{
  "resourceType": "Bundle",
  "id": "38a2b3c7-8827-46de-a9fb-f267f9177e0a",
  "meta": {
    "profile": [
      "http://hl7.eu/fhir/laboratory/StructureDefinition/Bundle-eu-lab"
    ]
  },
  "identifier": {
    "assigner": {
      "display": "HL7 Europe"
    },
    "system": "urn:oid:2.16.840.1.113883.2.51.999",
    "value": "66367cf8-84c2-4173-aceb-470ab21be322"
  },
  "entry": [
    {
      "fullUrl": "urn:uuid:6c8b1203-0e86-4939-96d2-1c2e80aa78d9",
      "resource": {
        "resourceType": "Composition",
        "id": "6c8b1203-0e86-4939-96d2-1c2e80aa78d9",
        "meta": {
          "profile": [
            "http://hl7.eu/fhir/laboratory/StructureDefinition/Composition-eu-lab"
          ]
        },
        "identifier": {
          "assigner": {
            "display": "HL7 Europe"
          },
          "system": "urn:oid:2.16.840.1.113883.2.51.999",
          "value": "4eb24e0b-5225-43d1-9452-b6d5370bc56a"
        },
        "author": [
          {
            "reference": "urn:uuid:bb9837cd-734e-4d04-ad91-2e5e1b0d079d"
          }
        ],
        "category": [
          {
            "coding": [
              {
                "code": "26436-6",
                "system": "http://loinc.org",
                "display": "Laboratory studies (set)"
              }
            ]
          }
        ],
        "type": {
          "coding": [
            {
              "code": "11502-2",
              "system": "http://loinc.org",
              "display": "Laboratory report"
            }
          ],
          "text": "Laboratory Report"
        },
        "section": [
          {
            "code": {
              "coding": [
                {
                  "code": "26436-6",
                  "system": "http://loinc.org",
                  "display": "Laboratory studies (set)"
                }
              ],
              "text": "Laboratory studies"
            },
            "section": [
              {
                "code": {
                  "coding": [
                    {
                      "code": "$18719-5",
                      "system": "http://loinc.org",
                      "display": "Chemistry studies (set)"
                    }
                  ],
                  "text": "Chemistry"
                },
                "entry": [
                  {
                    "reference": "urn:uuid:22f3975e-054e-456a-9c80-b6d334dfeef0"
                  },
                  {
                    "reference": "urn:uuid:305de65e-b6a3-4fe7-bfc7-2e23513f21e2"
                  },
                  {
                    "reference": "urn:uuid:717a1032-5bb0-42af-95b1-946953b92cd9"
                  },
                  {
                    "reference": "urn:uuid:0fc037a7-dd1b-4524-b7e9-3831d0127b35"
                  },
                  {
                    "reference": "urn:uuid:65ca119b-0034-46fa-ba18-d0d53d6e7594"
                  },
                  {
                    "reference": "urn:uuid:d7a79c2b-a010-477f-873d-5ffe022c0152"
                  },
                  {
                    "reference": "urn:uuid:c40f4cf5-c4c4-45cc-a3a4-241158f896d4"
                  },
                  {
                    "reference": "urn:uuid:ae0151b0-765d-4270-a5c9-cec350bf1a42"
                  },
                  {
                    "reference": "urn:uuid:d4367fb4-f961-42e8-a9df-3bfc133576cc"
                  },
                  {
                    "reference": "urn:uuid:6865c920-0a34-4ff3-a1bd-bf88caab88a2"
                  },
                  {
                    "reference": "urn:uuid:8ec90181-9206-431c-a73b-2c857d3501d3"
                  },
                  {
                    "reference": "urn:uuid:ad2dba94-4e28-4013-8d9a-6313d7b19fc1"
                  },
                  {
                    "reference": "urn:uuid:97e6c9dc-b739-4805-bbe2-d0a8b5e84e55"
                  },
                  {
                    "reference": "urn:uuid:75c638a2-655f-4236-bdc6-4a49226b208e"
                  },
                  {
                    "reference": "urn:uuid:ce5ae540-49b6-4a66-89db-aeb13506c9d2"
                  },
                  {
                    "reference": "urn:uuid:a3dbe6ea-17ba-4b60-82e8-494c1bceae6f"
                  },
                  {
                    "reference": "urn:uuid:5afaff45-512b-4eb0-a6be-1302c98bf1bf"
                  },
                  {
                    "reference": "urn:uuid:040b3399-e7b4-4b55-8574-9532282e3288"
                  }
                ],
                "text": {
                  "status": "generated",
                  "div": "<div xmlns=\"http://www.w3.org/1999/xhtml\"><h3>Chemistry</h3><table class=\"hl7__eu__lab__report\"><thead><tr><th>Test</th><th>06-OCT-2020</th><th>Reference&#xA0;Range</th><th>Unit</th></tr></thead><tbody><tr><td>Glucose [Mass/volume] in Serum or Plasma</td><td><strong>66.9 L</strong></td><td>70 - 99</td><td>mg/dL</td></tr><tr><td>Urea nitrogen [Mass/volume] in Serum or Plasma</td><td>7.6</td><td>7 - 50</td><td>mg/dL</td></tr><tr><td>Creatinine [Mass/volume] in Serum or Plasma</td><td><strong>2.1 H</strong></td><td>0.6 - 1.1</td><td>mg/dL</td></tr><tr><td>Calcium [Mass/volume] in Serum or Plasma</td><td>8.7</td><td>8.6 - 10.4</td><td>mg/dL</td></tr><tr><td>Sodium [Moles/volume] in Serum or Plasma</td><td>142.9</td><td>135 - 145</td><td>mmol/L</td></tr><tr><td>Potassium [Moles/volume] in Serum or Plasma</td><td>3.9</td><td>3.5 - 5.1</td><td>mmol/L</td></tr><tr><td>Chloride [Moles/volume] in Serum or Plasma</td><td>103.6</td><td>98 - 108</td><td>mmol/L</td></tr><tr><td>Carbon dioxide, total [Moles/volume] in Serum or Plasma</td><td>25.8</td><td>22 - 32</td><td>mmol/L</td></tr><tr><td>Ketones [Presence] in Urine by Test strip</td><td>Urine ketone test = ++</td><td></td><td></td></tr><tr><td>Hemoglobin A1c/Hemoglobin.total in Blood</td><td><strong>3.4 L</strong></td><td>4 - 6.4</td><td>%</td></tr><tr><td>Glucose [Mass/volume] in Blood</td><td><strong>66.9 L</strong></td><td>70 - 100</td><td>mg/dL</td></tr><tr><td>Urea nitrogen [Mass/volume] in Blood</td><td>7.6</td><td>7 - 43</td><td>mg/dL</td></tr><tr><td>Creatinine [Mass/volume] in Blood</td><td><strong>2.7 H</strong></td><td>0.6 - 1.1</td><td>mg/dL</td></tr><tr><td>Calcium [Mass/volume] in Blood</td><td>8.7</td><td>8.5 - 10.5</td><td>mg/dL</td></tr><tr><td>Sodium [Moles/volume] in Blood</td><td>142.9</td><td>135 - 145</td><td>mmol/L</td></tr><tr><td>Potassium [Moles/volume] in Blood</td><td>3.9</td><td>3.5 - 5.1</td><td>mmol/L</td></tr><tr><td>Chloride [Moles/volume] in Blood</td><td>103.6</td><td>98 - 108</td><td>mmol/L</td></tr><tr><td>Carbon dioxide, total [Moles/volume] in Blood</td><td>25.8</td><td>22 - 29</td><td>mmol/L</td></tr></tbody></table></div>"
                },
                "title": "Chemistry"
              },
              {
                "code": {
                  "coding": [
                    {
                      "code": "$18729-4",
                      "system": "http://loinc.org",
                      "display": "Urinalysis studies (set)"
                    }
                  ],
                  "text": "Urinalysis"
                },
                "entry": [
                  {
                    "reference": "urn:uuid:642a4dde-d6b1-488c-850b-6f93c13384a7"
                  },
                  {
                    "reference": "urn:uuid:333b6350-141d-4be8-8200-e5f160d23811"
                  },
                  {
                    "reference": "urn:uuid:98b529e5-6067-4efa-9421-c94bbf4abc71"
                  },
                  {
                    "reference": "urn:uuid:4b7950f4-2dca-4b60-b13f-7fb7005a0698"
                  },
                  {
                    "reference": "urn:uuid:790868ee-3226-4de4-b0d8-d57e15dc9f7e"
                  },
                  {
                    "reference": "urn:uuid:cf8ac3ef-8ee2-475f-9e62-822bc8b6501d"
                  },
                  {
                    "reference": "urn:uuid:bf7dc105-b220-4bef-94db-c5832d27cd65"
                  },
                  {
                    "reference": "urn:uuid:3f7c974c-2ae4-4b4f-96d5-e351c9111544"
                  },
                  {
                    "reference": "urn:uuid:f820b846-8c01-40f8-bfe4-e8b5da157219"
                  },
                  {
                    "reference": "urn:uuid:3d2d1966-796d-410c-a21d-56442838f52b"
                  },
                  {
                    "reference": "urn:uuid:1899c027-173f-4a08-833c-3057998d290c"
                  },
                  {
                    "reference": "urn:uuid:4f36e4ab-d27a-424e-b242-f1de785bc756"
                  }
                ],
                "text": {
                  "status": "generated",
                  "div": "<div xmlns=\"http://www.w3.org/1999/xhtml\"><h3>Urinalysis</h3><table class=\"hl7__eu__lab__report\"><thead><tr><th>Test</th><th>06-OCT-2020</th><th>Reference&#xA0;Range</th><th>Unit</th></tr></thead><tbody><tr><td>Glucose [Mass/volume] in Urine by Test strip</td><td><strong>1.1 H</strong></td><td>0.8 - 0</td><td>mg/dL</td></tr><tr><td>Glucose [Presence] in Urine by Test strip</td><td>++</td><td></td><td></td></tr><tr><td>Bilirubin.total [Mass/volume] in Urine by Test strip</td><td>0.5</td><td>0 - 1</td><td>mg/dL</td></tr><tr><td>Bilirubin.total [Presence] in Urine by Test strip</td><td>Finding of bilirubin in urine</td><td></td><td></td></tr><tr><td>Ketones [Mass/volume] in Urine by Test strip</td><td>0.8</td><td>0 - 4</td><td>mg/dL</td></tr><tr><td>Specific gravity of Urine by Test strip</td><td><strong>1.0 L</strong></td><td>1.005 - 1.03</td><td>{nominal}</td></tr><tr><td>pH of Urine by Test strip</td><td>6.7</td><td>4.6 - 7</td><td>pH</td></tr><tr><td>Protein [Mass/volume] in Urine by Test strip</td><td><strong>343.7 H</strong></td><td>0 - 14</td><td>mg/dL</td></tr><tr><td>Protein [Presence] in Urine by Test strip</td><td>Urine protein test = ++</td><td></td><td></td></tr><tr><td>Nitrite [Presence] in Urine by Test strip</td><td>Urine nitrite negative</td><td></td><td></td></tr><tr><td>Hemoglobin [Presence] in Urine by Test strip</td><td>Urine blood test = negative</td><td></td><td></td></tr><tr><td>Leukocyte esterase [Presence] in Urine by Test strip</td><td>Urine leukocyte test negative</td><td></td><td></td></tr></tbody></table></div>"
                },
                "title": "Urinalysis"
              },
              {
                "code": {
                  "coding": [
                    {
                      "code": "$LP7846-1",
                      "system": "http://loinc.org",
                      "display": "Specimen information"
                    }
                  ],
                  "text": "Specimen information"
                },
                "entry": [
                  {
                    "reference": "urn:uuid:105e29be-b5c8-4f19-a861-c1d048fffbe6"
                  },
                  {
                    "reference": "urn:uuid:e47a901a-a4ab-4fce-8bac-7be4a5eb81da"
                  },
                  {
                    "reference": "urn:uuid:7909d930-0cff-4122-91bd-29cf456d09ce"
                  },
                  {
                    "reference": "urn:uuid:b70a0a1a-b816-4fe4-b5d8-b9a47223f192"
                  }
                ],
                "text": {
                  "status": "generated",
                  "div": "<div xmlns=\"http://www.w3.org/1999/xhtml\"><h3>Specimen information</h3><table class=\"hl7__eu__lab__report\"><thead><tr><th>Test</th><th>06-OCT-2020</th><th>Specimen</th><th></th></tr></thead><tbody><tr><td>Appearance of Urine</td><td>Cloudy urine</td><td>Urine</td><td></td></tr><tr><td>Odor of Urine</td><td>Urine smell ammoniacal</td><td>Urine</td><td></td></tr><tr><td>Clarity of Urine</td><td>Translucent</td><td>Urine</td><td></td></tr><tr><td>Color of Urine</td><td>Brown color</td><td>Urine</td><td></td></tr></tbody></table></div>"
                },
                "title": "Specimen information"
              }
            ],
            "title": "Laboratory Report"
          },
          {
            "text": {
              "status": "generated",
              "div": "<div xmlns=\"http://www.w3.org/1999/xhtml\"><h3>Annotation</h3><table class=\"hl7__eu__lab__report\"><tr><th>Conclusion and Recommendations based on this report and previous findings known to us</th></tr><tr><td>The patient shows significant renal impairment (elevated creatinine), marked proteinuria, and abnormal urine findings (cloudy, brown, low specific gravity), suggesting possible nephrotic syndrome or glomerular disease. Hypoglycemia and low HbA1c are noted. No evidence of urinary tract infection. Recommend urgent nephrology evaluation and further assessment of renal function and underlying etiology.</td></tr></table></div>"
            },
            "code": {
              "coding": [
                {
                  "system": "http://loinc.org",
                  "code": "48767-8",
                  "display": "Annotation comment"
                }
              ]
            },
            "title": "Annotation comment"
          }
        ],
        "status": "final",
        "subject": {
          "reference": "urn:uuid:abb56509-2d90-4932-bef1-b1e8dcb8aa27",
          "display": "Meaghan Neary"
        },
        "date": "2020-10-06T00:11:04Z",
        "title": "Laboratory Report",
        "confidentiality": "N"
      }
    },
    {
      "fullUrl": "urn:uuid:481c1f86-344d-4825-8666-1afa209001a2",
      "resource": {
        "resourceType": "DiagnosticReport",
        "id": "481c1f86-344d-4825-8666-1afa209001a2",
        "meta": {
          "profile": [
            "http://hl7.eu/fhir/laboratory/StructureDefinition/DiagnosticReport-eu-lab"
          ]
        },
        "identifier": [
          {
            "assigner": {
              "display": "HL7 Europe"
            },
            "system": "urn:oid:2.16.840.1.113883.2.51.999",
            "value": "b15ddb31-e69e-4abe-8bb9-3095229feacc"
          }
        ],
        "extension": [
          {
            "url": "http://hl7.org/fhir/5.0/StructureDefinition/extension-DiagnosticReport.composition",
            "valueReference": {
              "reference": "urn:uuid:4eb24e0b-5225-43d1-9452-b6d5370bc56a"
            }
          }
        ],
        "category": [
          {
            "coding": [
              {
                "code": "26436-6",
                "system": "http://loinc.org",
                "display": "Laboratory studies (set)"
              }
            ]
          }
        ],
        "specimen": [
          {
            "reference": "urn:uuid:fd8033cd-d6c3-4b22-ba2a-f9a165819d47"
          },
          {
            "reference": "urn:uuid:76248245-f5d4-43af-98ab-0a8008a9e42e"
          },
          {
            "reference": "urn:uuid:fd943c04-d391-477b-8ad3-af24abb28139"
          }
        ],
        "result": [
          {
            "reference": "urn:uuid:22f3975e-054e-456a-9c80-b6d334dfeef0"
          },
          {
            "reference": "urn:uuid:305de65e-b6a3-4fe7-bfc7-2e23513f21e2"
          },
          {
            "reference": "urn:uuid:717a1032-5bb0-42af-95b1-946953b92cd9"
          },
          {
            "reference": "urn:uuid:0fc037a7-dd1b-4524-b7e9-3831d0127b35"
          },
          {
            "reference": "urn:uuid:65ca119b-0034-46fa-ba18-d0d53d6e7594"
          },
          {
            "reference": "urn:uuid:d7a79c2b-a010-477f-873d-5ffe022c0152"
          },
          {
            "reference": "urn:uuid:c40f4cf5-c4c4-45cc-a3a4-241158f896d4"
          },
          {
            "reference": "urn:uuid:ae0151b0-765d-4270-a5c9-cec350bf1a42"
          },
          {
            "reference": "urn:uuid:105e29be-b5c8-4f19-a861-c1d048fffbe6"
          },
          {
            "reference": "urn:uuid:e47a901a-a4ab-4fce-8bac-7be4a5eb81da"
          },
          {
            "reference": "urn:uuid:7909d930-0cff-4122-91bd-29cf456d09ce"
          },
          {
            "reference": "urn:uuid:b70a0a1a-b816-4fe4-b5d8-b9a47223f192"
          },
          {
            "reference": "urn:uuid:642a4dde-d6b1-488c-850b-6f93c13384a7"
          },
          {
            "reference": "urn:uuid:333b6350-141d-4be8-8200-e5f160d23811"
          },
          {
            "reference": "urn:uuid:98b529e5-6067-4efa-9421-c94bbf4abc71"
          },
          {
            "reference": "urn:uuid:4b7950f4-2dca-4b60-b13f-7fb7005a0698"
          },
          {
            "reference": "urn:uuid:790868ee-3226-4de4-b0d8-d57e15dc9f7e"
          },
          {
            "reference": "urn:uuid:d4367fb4-f961-42e8-a9df-3bfc133576cc"
          },
          {
            "reference": "urn:uuid:cf8ac3ef-8ee2-475f-9e62-822bc8b6501d"
          },
          {
            "reference": "urn:uuid:bf7dc105-b220-4bef-94db-c5832d27cd65"
          },
          {
            "reference": "urn:uuid:3f7c974c-2ae4-4b4f-96d5-e351c9111544"
          },
          {
            "reference": "urn:uuid:f820b846-8c01-40f8-bfe4-e8b5da157219"
          },
          {
            "reference": "urn:uuid:3d2d1966-796d-410c-a21d-56442838f52b"
          },
          {
            "reference": "urn:uuid:1899c027-173f-4a08-833c-3057998d290c"
          },
          {
            "reference": "urn:uuid:4f36e4ab-d27a-424e-b242-f1de785bc756"
          },
          {
            "reference": "urn:uuid:6865c920-0a34-4ff3-a1bd-bf88caab88a2"
          },
          {
            "reference": "urn:uuid:8ec90181-9206-431c-a73b-2c857d3501d3"
          },
          {
            "reference": "urn:uuid:ad2dba94-4e28-4013-8d9a-6313d7b19fc1"
          },
          {
            "reference": "urn:uuid:97e6c9dc-b739-4805-bbe2-d0a8b5e84e55"
          },
          {
            "reference": "urn:uuid:75c638a2-655f-4236-bdc6-4a49226b208e"
          },
          {
            "reference": "urn:uuid:ce5ae540-49b6-4a66-89db-aeb13506c9d2"
          },
          {
            "reference": "urn:uuid:a3dbe6ea-17ba-4b60-82e8-494c1bceae6f"
          },
          {
            "reference": "urn:uuid:5afaff45-512b-4eb0-a6be-1302c98bf1bf"
          },
          {
            "reference": "urn:uuid:040b3399-e7b4-4b55-8574-9532282e3288"
          }
        ],
        "status": "registered",
        "code": {
          "coding": [
            {
              "code": "11502-2",
              "system": "http://loinc.org",
              "display": "Laboratory report"
            }
          ]
        },
        "subject": {
          "reference": "urn:uuid:abb56509-2d90-4932-bef1-b1e8dcb8aa27",
          "display": "Meaghan Neary"
        }
      }
    },
    {
      "fullUrl": "urn:uuid:abb56509-2d90-4932-bef1-b1e8dcb8aa27",
      "resource": {
        "resourceType": "Patient",
        "id": "abb56509-2d90-4932-bef1-b1e8dcb8aa27",
        "meta": {
          "security": [
            {
              "system": "http://terminology.hl7.org/CodeSystem/v3-ActReason",
              "code": "HTEST"
            },
            {
              "system": "http://terminology.hl7.org/CodeSystem/v3-ActReason",
              "code": "TRAIN"
            }
          ],
          "tag": [
            {
              "system": "https://synderai.net/fhir/CodeSystem/tags",
              "code": "synthetic",
              "display": "SYNDERAI Synthetic data"
            }
          ],
          "profile": [
            "http://hl7.eu/fhir/base/StructureDefinition/patient-eu-core"
          ]
        },
        "identifier": [
          {
            "type": {
              "coding": [
                {
                  "code": "PT",
                  "system": "http://terminology.hl7.org/CodeSystem/v2-0203"
                }
              ]
            },
            "system": "http://ec.europa.eu/identifier/eci",
            "value": "1586-567257-8"
          },
          {
            "type": {
              "coding": [
                {
                  "code": "MR",
                  "system": "http://terminology.hl7.org/CodeSystem/v2-0203"
                }
              ]
            },
            "system": "http://local.setting.eu/identifier",
            "value": "443e6379-f231-b364-3ccb-644740a1aa2a"
          }
        ],
        "name": [
          {
            "family": "Neary"
          },
          {
            "given": [
              "Meaghan"
            ]
          },
          {
            "text": "Meaghan Neary"
          }
        ],
        "address": [
          {
            "line": [
              "64 Linskey Street"
            ],
            "use": "home",
            "type": "physical",
            "postalCode": "D02",
            "city": "Dublin",
            "country": "Ireland"
          }
        ],
        "telecom": [
          {
            "system": "phone",
            "value": "001-967-573-0911x465"
          }
        ],
        "extension": [
          {
            "url": "http://hl7.org/fhir/StructureDefinition/patient-nationality",
            "valueCodeableConcept": {
              "coding": [
                {
                  "code": "IE",
                  "system": "http://hl7.org/fhir/ValueSet/country"
                }
              ]
            }
          }
        ],
        "text": {
          "status": "generated",
          "div": "<div xmlns=\"http://www.w3.org/1999/xhtml\"><table class=\"hl7__ips\"><tr><td>Meaghan Neary</td><td>female</td><td>19-Dec-1960</td></tr></table></div>"
        },
        "gender": "female",
        "birthDate": "1960-12-19"
      }
    },
    {
      "fullUrl": "urn:uuid:3d810af7-a181-431b-b6b4-76c201777ed5",
      "resource": {
        "resourceType": "ServiceRequest",
        "id": "3d810af7-a181-431b-b6b4-76c201777ed5",
        "meta": {
          "profile": [
            "http://hl7.eu/fhir/laboratory/StructureDefinition/ServiceRequest-eu-lab"
          ]
        },
        "identifier": [
          {
            "system": "http://example.org",
            "value": "0a47939d-706b-44ca-9c70-086b466ac245"
          }
        ],
        "specimen": [
          {
            "reference": "urn:uuid:fd8033cd-d6c3-4b22-ba2a-f9a165819d47"
          },
          {
            "reference": "urn:uuid:76248245-f5d4-43af-98ab-0a8008a9e42e"
          },
          {
            "reference": "urn:uuid:fd943c04-d391-477b-8ad3-af24abb28139"
          }
        ],
        "reasonCode": [
          {
            "coding": [
              {
                "code": "55822004",
                "system": "http://snomed.info/sct",
                "display": "Hyperlipidemia"
              }
            ]
          },
          {
            "coding": [
              {
                "code": "433144002",
                "system": "http://snomed.info/sct",
                "display": "Chronic kidney disease stage 3"
              }
            ]
          },
          {
            "coding": [
              {
                "code": "157141000119108",
                "system": "http://snomed.info/sct",
                "display": "Proteinuria due to type 2 diabetes mellitus"
              }
            ]
          },
          {
            "coding": [
              {
                "code": "431856006",
                "system": "http://snomed.info/sct",
                "display": "Chronic kidney disease stage 2"
              }
            ]
          },
          {
            "coding": [
              {
                "code": "90781000119102",
                "system": "http://snomed.info/sct",
                "display": "Microalbuminuria due to type 2 diabetes mellitus"
              }
            ]
          },
          {
            "coding": [
              {
                "code": "127013003",
                "system": "http://snomed.info/sct",
                "display": "Disorder of kidney due to diabetes mellitus"
              }
            ]
          },
          {
            "coding": [
              {
                "code": "431855005",
                "system": "http://snomed.info/sct",
                "display": "Chronic kidney disease stage 1"
              }
            ]
          },
          {
            "coding": [
              {
                "code": "237602007",
                "system": "http://snomed.info/sct",
                "display": "Metabolic syndrome X"
              }
            ]
          },
          {
            "coding": [
              {
                "code": "271737000",
                "system": "http://snomed.info/sct",
                "display": "Anemia"
              }
            ]
          },
          {
            "coding": [
              {
                "code": "15777000",
                "system": "http://snomed.info/sct",
                "display": "Prediabetes"
              }
            ]
          },
          {
            "coding": [
              {
                "code": "59621000",
                "system": "http://snomed.info/sct",
                "display": "Essential hypertension"
              }
            ]
          }
        ],
        "status": "active",
        "intent": "order",
        "code": {
          "coding": [
            {
              "code": "108252007",
              "system": "http://snomed.info/sct",
              "display": "Laboratory procedure"
            }
          ]
        },
        "subject": {
          "reference": "urn:uuid:abb56509-2d90-4932-bef1-b1e8dcb8aa27",
          "display": "Meaghan Neary"
        },
        "requester": {
          "reference": "urn:uuid:82c1d600-e115-452a-822a-d1d72df3a3b3"
        }
      }
    },
    {
      "fullUrl": "urn:uuid:82c1d600-e115-452a-822a-d1d72df3a3b3",
      "resource": {
        "resourceType": "PractitionerRole",
        "id": "82c1d600-e115-452a-822a-d1d72df3a3b3",
        "meta": {
          "profile": [
            "http://hl7.eu/fhir/base/StructureDefinition/practitionerRole-eu"
          ]
        },
        "text": {
          "status": "generated",
          "div": "<div xmlns=\"http://www.w3.org/1999/xhtml\">Provider Role Id: 82c1d600-e115-452a-822a-d1d72df3a3b3</div>"
        },
        "organization": {
          "reference": "urn:uuid:514281b0-6dac-4c63-8bb8-2eced930fe7b"
        }
      }
    },
    {
      "fullUrl": "urn:uuid:514281b0-6dac-4c63-8bb8-2eced930fe7b",
      "resource": {
        "resourceType": "Organization",
        "id": "514281b0-6dac-4c63-8bb8-2eced930fe7b",
        "meta": {
          "profile": [
            "http://hl7.eu/fhir/base/StructureDefinition/organization-eu"
          ]
        },
        "identifier": [
          {
            "assigner": {
              "display": "HL7 Europe"
            },
            "system": "urn:oid:2.16.840.1.113883.2.51.999",
            "value": "e0993a38-8293-4ae9-ab39-f228a36c7647"
          }
        ],
        "address": [
          {
            "line": [
              "Parnell Square West nan"
            ],
            "city": "Dublin",
            "postalCode": "D01",
            "country": "Ireland"
          }
        ],
        "text": {
          "status": "generated",
          "div": "<div xmlns=\"http://www.w3.org/1999/xhtml\">Provider Organization: Rotunda Hospital</div>"
        },
        "name": "Rotunda Hospital"
      }
    },
    {
      "fullUrl": "urn:uuid:fd8033cd-d6c3-4b22-ba2a-f9a165819d47",
      "resource": {
        "resourceType": "Specimen",
        "id": "fd8033cd-d6c3-4b22-ba2a-f9a165819d47",
        "meta": {
          "profile": [
            "http://hl7.eu/fhir/laboratory/StructureDefinition/Specimen-eu-lab"
          ]
        },
        "collection": {
          "collectedDateTime": "2020-10-05"
        },
        "text": {
          "status": "generated",
          "div": "<div xmlns=\"http://www.w3.org/1999/xhtml\"><table class=\"hl7__eu__lab__report\"><tr><th>Specimen</th><th>Collection Date</th></tr><tr><td>Acellular blood (serum or plasma) specimen</td><td><span class=\"nb\">05-Oct-2020</span></td></tr></table></div>"
        },
        "type": {
          "coding": [
            {
              "code": "122592007",
              "system": "http://snomed.info/sct",
              "display": "Acellular blood (serum or plasma) specimen"
            }
          ]
        }
      }
    },
    {
      "fullUrl": "urn:uuid:76248245-f5d4-43af-98ab-0a8008a9e42e",
      "resource": {
        "resourceType": "Specimen",
        "id": "76248245-f5d4-43af-98ab-0a8008a9e42e",
        "meta": {
          "profile": [
            "http://hl7.eu/fhir/laboratory/StructureDefinition/Specimen-eu-lab"
          ]
        },
        "collection": {
          "collectedDateTime": "2020-10-05"
        },
        "text": {
          "status": "generated",
          "div": "<div xmlns=\"http://www.w3.org/1999/xhtml\"><table class=\"hl7__eu__lab__report\"><tr><th>Specimen</th><th>Collection Date</th></tr><tr><td>Urine specimen</td><td><span class=\"nb\">05-Oct-2020</span></td></tr></table></div>"
        },
        "type": {
          "coding": [
            {
              "code": "122575003",
              "system": "http://snomed.info/sct",
              "display": "Urine specimen"
            }
          ]
        }
      }
    },
    {
      "fullUrl": "urn:uuid:fd943c04-d391-477b-8ad3-af24abb28139",
      "resource": {
        "resourceType": "Specimen",
        "id": "fd943c04-d391-477b-8ad3-af24abb28139",
        "meta": {
          "profile": [
            "http://hl7.eu/fhir/laboratory/StructureDefinition/Specimen-eu-lab"
          ]
        },
        "collection": {
          "collectedDateTime": "2020-10-05"
        },
        "text": {
          "status": "generated",
          "div": "<div xmlns=\"http://www.w3.org/1999/xhtml\"><table class=\"hl7__eu__lab__report\"><tr><th>Specimen</th><th>Collection Date</th></tr><tr><td>Whole blood specimen (specimen)</td><td><span class=\"nb\">05-Oct-2020</span></td></tr></table></div>"
        },
        "type": {
          "coding": [
            {
              "code": "258580003",
              "system": "http://snomed.info/sct",
              "display": "Whole blood specimen (specimen)"
            }
          ]
        }
      }
    },
    {
      "fullUrl": "urn:uuid:22f3975e-054e-456a-9c80-b6d334dfeef0",
      "resource": {
        "resourceType": "Observation",
        "id": "22f3975e-054e-456a-9c80-b6d334dfeef0",
        "meta": {
          "profile": [
            "http://hl7.eu/fhir/laboratory/StructureDefinition/Observation-resultslab-eu-lab"
          ]
        },
        "performer": [
          {
            "display": "The Central European Lab"
          }
        ],
        "category": [
          {
            "coding": [
              {
                "system": "http://terminology.hl7.org/CodeSystem/observation-category",
                "code": "laboratory"
              }
            ]
          }
        ],
        "code": {
          "coding": [
            {
              "code": "2345-7",
              "system": "http://loinc.org",
              "display": "Glucose [Mass/volume] in Serum or Plasma"
            }
          ],
          "text": "Glucose [Mass/volume] in Serum or Plasma"
        },
        "valueQuantity": {
          "system": "http://unitsofmeasure.org",
          "value": 66.9,
          "unit": "mg/dL",
          "code": "mg/dL"
        },
        "referenceRange": [
          {
            "low": {
              "value": 70,
              "code": "mg/dL",
              "system": "http://unitsofmeasure.org"
            }
          },
          {
            "high": {
              "value": 99,
              "code": "mg/dL",
              "system": "http://unitsofmeasure.org"
            }
          }
        ],
        "interpretation": [
          {
            "coding": [
              {
                "code": "L",
                "system": "http://terminology.hl7.org/CodeSystem/v3-ObservationInterpretation",
                "display": "Low"
              }
            ]
          }
        ],
        "text": {
          "status": "generated",
          "div": "<div xmlns=\"http://www.w3.org/1999/xhtml\"><table class=\"hl7__eu__lab__report\"><tr><th>Test</th><th>06-Oct-2020</th><th>Reference&#xA0;Range</th><th>Unit</th></tr><tr><td>Glucose [Mass/volume] in Serum or Plasma</td><td>66.9</td><td>70 - 99</td><td>L</td><td>mg/dL</td></tr></table></div>"
        },
        "status": "final",
        "subject": {
          "reference": "urn:uuid:abb56509-2d90-4932-bef1-b1e8dcb8aa27",
          "display": "Meaghan Neary"
        },
        "effectiveDateTime": "2020-10-05T22:11:04Z",
        "specimen": {
          "reference": "urn:uuid:fd8033cd-d6c3-4b22-ba2a-f9a165819d47"
        }
      }
    },
    {
      "fullUrl": "urn:uuid:305de65e-b6a3-4fe7-bfc7-2e23513f21e2",
      "resource": {
        "resourceType": "Observation",
        "id": "305de65e-b6a3-4fe7-bfc7-2e23513f21e2",
        "meta": {
          "profile": [
            "http://hl7.eu/fhir/laboratory/StructureDefinition/Observation-resultslab-eu-lab"
          ]
        },
        "performer": [
          {
            "display": "The Central European Lab"
          }
        ],
        "category": [
          {
            "coding": [
              {
                "system": "http://terminology.hl7.org/CodeSystem/observation-category",
                "code": "laboratory"
              }
            ]
          }
        ],
        "code": {
          "coding": [
            {
              "code": "3094-0",
              "system": "http://loinc.org",
              "display": "Urea nitrogen [Mass/volume] in Serum or Plasma"
            }
          ],
          "text": "Urea nitrogen [Mass/volume] in Serum or Plasma"
        },
        "valueQuantity": {
          "system": "http://unitsofmeasure.org",
          "value": 7.6,
          "unit": "mg/dL",
          "code": "mg/dL"
        },
        "referenceRange": [
          {
            "low": {
              "value": 7,
              "code": "mg/dL",
              "system": "http://unitsofmeasure.org"
            }
          },
          {
            "high": {
              "value": 50,
              "code": "mg/dL",
              "system": "http://unitsofmeasure.org"
            }
          }
        ],
        "text": {
          "status": "generated",
          "div": "<div xmlns=\"http://www.w3.org/1999/xhtml\"><table class=\"hl7__eu__lab__report\"><tr><th>Test</th><th>06-Oct-2020</th><th>Reference&#xA0;Range</th><th>Unit</th></tr><tr><td>Urea nitrogen [Mass/volume] in Serum or Plasma</td><td>7.6</td><td>7 - 50</td><td></td><td>mg/dL</td></tr></table></div>"
        },
        "status": "final",
        "subject": {
          "reference": "urn:uuid:abb56509-2d90-4932-bef1-b1e8dcb8aa27",
          "display": "Meaghan Neary"
        },
        "effectiveDateTime": "2020-10-05T22:11:04Z",
        "specimen": {
          "reference": "urn:uuid:fd8033cd-d6c3-4b22-ba2a-f9a165819d47"
        }
      }
    },
    {
      "fullUrl": "urn:uuid:717a1032-5bb0-42af-95b1-946953b92cd9",
      "resource": {
        "resourceType": "Observation",
        "id": "717a1032-5bb0-42af-95b1-946953b92cd9",
        "meta": {
          "profile": [
            "http://hl7.eu/fhir/laboratory/StructureDefinition/Observation-resultslab-eu-lab"
          ]
        },
        "performer": [
          {
            "display": "The Central European Lab"
          }
        ],
        "category": [
          {
            "coding": [
              {
                "system": "http://terminology.hl7.org/CodeSystem/observation-category",
                "code": "laboratory"
              }
            ]
          }
        ],
        "code": {
          "coding": [
            {
              "code": "2160-0",
              "system": "http://loinc.org",
              "display": "Creatinine [Mass/volume] in Serum or Plasma"
            }
          ],
          "text": "Creatinine [Mass/volume] in Serum or Plasma"
        },
        "valueQuantity": {
          "system": "http://unitsofmeasure.org",
          "value": 2.1,
          "unit": "mg/dL",
          "code": "mg/dL"
        },
        "referenceRange": [
          {
            "low": {
              "value": 0.6,
              "code": "mg/dL",
              "system": "http://unitsofmeasure.org"
            }
          },
          {
            "high": {
              "value": 1.1,
              "code": "mg/dL",
              "system": "http://unitsofmeasure.org"
            }
          }
        ],
        "interpretation": [
          {
            "coding": [
              {
                "code": "H",
                "system": "http://terminology.hl7.org/CodeSystem/v3-ObservationInterpretation",
                "display": "High"
              }
            ]
          }
        ],
        "text": {
          "status": "generated",
          "div": "<div xmlns=\"http://www.w3.org/1999/xhtml\"><table class=\"hl7__eu__lab__report\"><tr><th>Test</th><th>06-Oct-2020</th><th>Reference&#xA0;Range</th><th>Unit</th></tr><tr><td>Creatinine [Mass/volume] in Serum or Plasma</td><td>2.1</td><td>0.6 - 1.1</td><td>H</td><td>mg/dL</td></tr></table></div>"
        },
        "status": "final",
        "subject": {
          "reference": "urn:uuid:abb56509-2d90-4932-bef1-b1e8dcb8aa27",
          "display": "Meaghan Neary"
        },
        "effectiveDateTime": "2020-10-05T22:11:04Z",
        "specimen": {
          "reference": "urn:uuid:fd8033cd-d6c3-4b22-ba2a-f9a165819d47"
        }
      }
    },
    {
      "fullUrl": "urn:uuid:0fc037a7-dd1b-4524-b7e9-3831d0127b35",
      "resource": {
        "resourceType": "Observation",
        "id": "0fc037a7-dd1b-4524-b7e9-3831d0127b35",
        "meta": {
          "profile": [
            "http://hl7.eu/fhir/laboratory/StructureDefinition/Observation-resultslab-eu-lab"
          ]
        },
        "performer": [
          {
            "display": "The Central European Lab"
          }
        ],
        "category": [
          {
            "coding": [
              {
                "system": "http://terminology.hl7.org/CodeSystem/observation-category",
                "code": "laboratory"
              }
            ]
          }
        ],
        "code": {
          "coding": [
            {
              "code": "17861-6",
              "system": "http://loinc.org",
              "display": "Calcium [Mass/volume] in Serum or Plasma"
            }
          ],
          "text": "Calcium [Mass/volume] in Serum or Plasma"
        },
        "valueQuantity": {
          "system": "http://unitsofmeasure.org",
          "value": 8.7,
          "unit": "mg/dL",
          "code": "mg/dL"
        },
        "referenceRange": [
          {
            "low": {
              "value": 8.6,
              "code": "mg/dL",
              "system": "http://unitsofmeasure.org"
            }
          },
          {
            "high": {
              "value": 10.4,
              "code": "mg/dL",
              "system": "http://unitsofmeasure.org"
            }
          }
        ],
        "text": {
          "status": "generated",
          "div": "<div xmlns=\"http://www.w3.org/1999/xhtml\"><table class=\"hl7__eu__lab__report\"><tr><th>Test</th><th>06-Oct-2020</th><th>Reference&#xA0;Range</th><th>Unit</th></tr><tr><td>Calcium [Mass/volume] in Serum or Plasma</td><td>8.7</td><td>8.6 - 10.4</td><td></td><td>mg/dL</td></tr></table></div>"
        },
        "status": "final",
        "subject": {
          "reference": "urn:uuid:abb56509-2d90-4932-bef1-b1e8dcb8aa27",
          "display": "Meaghan Neary"
        },
        "effectiveDateTime": "2020-10-05T22:11:04Z",
        "specimen": {
          "reference": "urn:uuid:fd8033cd-d6c3-4b22-ba2a-f9a165819d47"
        }
      }
    },
    {
      "fullUrl": "urn:uuid:65ca119b-0034-46fa-ba18-d0d53d6e7594",
      "resource": {
        "resourceType": "Observation",
        "id": "65ca119b-0034-46fa-ba18-d0d53d6e7594",
        "meta": {
          "profile": [
            "http://hl7.eu/fhir/laboratory/StructureDefinition/Observation-resultslab-eu-lab"
          ]
        },
        "performer": [
          {
            "display": "The Central European Lab"
          }
        ],
        "category": [
          {
            "coding": [
              {
                "system": "http://terminology.hl7.org/CodeSystem/observation-category",
                "code": "laboratory"
              }
            ]
          }
        ],
        "code": {
          "coding": [
            {
              "code": "2951-2",
              "system": "http://loinc.org",
              "display": "Sodium [Moles/volume] in Serum or Plasma"
            }
          ],
          "text": "Sodium [Moles/volume] in Serum or Plasma"
        },
        "valueQuantity": {
          "system": "http://unitsofmeasure.org",
          "value": 142.9,
          "unit": "mmol/L",
          "code": "mmol/L"
        },
        "referenceRange": [
          {
            "low": {
              "value": 135,
              "code": "mmol/L",
              "system": "http://unitsofmeasure.org"
            }
          },
          {
            "high": {
              "value": 145,
              "code": "mmol/L",
              "system": "http://unitsofmeasure.org"
            }
          }
        ],
        "text": {
          "status": "generated",
          "div": "<div xmlns=\"http://www.w3.org/1999/xhtml\"><table class=\"hl7__eu__lab__report\"><tr><th>Test</th><th>06-Oct-2020</th><th>Reference&#xA0;Range</th><th>Unit</th></tr><tr><td>Sodium [Moles/volume] in Serum or Plasma</td><td>142.9</td><td>135 - 145</td><td></td><td>mmol/L</td></tr></table></div>"
        },
        "status": "final",
        "subject": {
          "reference": "urn:uuid:abb56509-2d90-4932-bef1-b1e8dcb8aa27",
          "display": "Meaghan Neary"
        },
        "effectiveDateTime": "2020-10-05T22:11:04Z",
        "specimen": {
          "reference": "urn:uuid:fd8033cd-d6c3-4b22-ba2a-f9a165819d47"
        }
      }
    },
    {
      "fullUrl": "urn:uuid:d7a79c2b-a010-477f-873d-5ffe022c0152",
      "resource": {
        "resourceType": "Observation",
        "id": "d7a79c2b-a010-477f-873d-5ffe022c0152",
        "meta": {
          "profile": [
            "http://hl7.eu/fhir/laboratory/StructureDefinition/Observation-resultslab-eu-lab"
          ]
        },
        "performer": [
          {
            "display": "The Central European Lab"
          }
        ],
        "category": [
          {
            "coding": [
              {
                "system": "http://terminology.hl7.org/CodeSystem/observation-category",
                "code": "laboratory"
              }
            ]
          }
        ],
        "code": {
          "coding": [
            {
              "code": "2823-3",
              "system": "http://loinc.org",
              "display": "Potassium [Moles/volume] in Serum or Plasma"
            }
          ],
          "text": "Potassium [Moles/volume] in Serum or Plasma"
        },
        "valueQuantity": {
          "system": "http://unitsofmeasure.org",
          "value": 3.9,
          "unit": "mmol/L",
          "code": "mmol/L"
        },
        "referenceRange": [
          {
            "low": {
              "value": 3.5,
              "code": "mmol/L",
              "system": "http://unitsofmeasure.org"
            }
          },
          {
            "high": {
              "value": 5.1,
              "code": "mmol/L",
              "system": "http://unitsofmeasure.org"
            }
          }
        ],
        "text": {
          "status": "generated",
          "div": "<div xmlns=\"http://www.w3.org/1999/xhtml\"><table class=\"hl7__eu__lab__report\"><tr><th>Test</th><th>06-Oct-2020</th><th>Reference&#xA0;Range</th><th>Unit</th></tr><tr><td>Potassium [Moles/volume] in Serum or Plasma</td><td>3.9</td><td>3.5 - 5.1</td><td></td><td>mmol/L</td></tr></table></div>"
        },
        "status": "final",
        "subject": {
          "reference": "urn:uuid:abb56509-2d90-4932-bef1-b1e8dcb8aa27",
          "display": "Meaghan Neary"
        },
        "effectiveDateTime": "2020-10-05T22:11:04Z",
        "specimen": {
          "reference": "urn:uuid:fd8033cd-d6c3-4b22-ba2a-f9a165819d47"
        }
      }
    },
    {
      "fullUrl": "urn:uuid:c40f4cf5-c4c4-45cc-a3a4-241158f896d4",
      "resource": {
        "resourceType": "Observation",
        "id": "c40f4cf5-c4c4-45cc-a3a4-241158f896d4",
        "meta": {
          "profile": [
            "http://hl7.eu/fhir/laboratory/StructureDefinition/Observation-resultslab-eu-lab"
          ]
        },
        "performer": [
          {
            "display": "The Central European Lab"
          }
        ],
        "category": [
          {
            "coding": [
              {
                "system": "http://terminology.hl7.org/CodeSystem/observation-category",
                "code": "laboratory"
              }
            ]
          }
        ],
        "code": {
          "coding": [
            {
              "code": "2075-0",
              "system": "http://loinc.org",
              "display": "Chloride [Moles/volume] in Serum or Plasma"
            }
          ],
          "text": "Chloride [Moles/volume] in Serum or Plasma"
        },
        "valueQuantity": {
          "system": "http://unitsofmeasure.org",
          "value": 103.6,
          "unit": "mmol/L",
          "code": "mmol/L"
        },
        "referenceRange": [
          {
            "low": {
              "value": 98,
              "code": "mmol/L",
              "system": "http://unitsofmeasure.org"
            }
          },
          {
            "high": {
              "value": 108,
              "code": "mmol/L",
              "system": "http://unitsofmeasure.org"
            }
          }
        ],
        "text": {
          "status": "generated",
          "div": "<div xmlns=\"http://www.w3.org/1999/xhtml\"><table class=\"hl7__eu__lab__report\"><tr><th>Test</th><th>06-Oct-2020</th><th>Reference&#xA0;Range</th><th>Unit</th></tr><tr><td>Chloride [Moles/volume] in Serum or Plasma</td><td>103.6</td><td>98 - 108</td><td></td><td>mmol/L</td></tr></table></div>"
        },
        "status": "final",
        "subject": {
          "reference": "urn:uuid:abb56509-2d90-4932-bef1-b1e8dcb8aa27",
          "display": "Meaghan Neary"
        },
        "effectiveDateTime": "2020-10-05T22:11:04Z",
        "specimen": {
          "reference": "urn:uuid:fd8033cd-d6c3-4b22-ba2a-f9a165819d47"
        }
      }
    },
    {
      "fullUrl": "urn:uuid:ae0151b0-765d-4270-a5c9-cec350bf1a42",
      "resource": {
        "resourceType": "Observation",
        "id": "ae0151b0-765d-4270-a5c9-cec350bf1a42",
        "meta": {
          "profile": [
            "http://hl7.eu/fhir/laboratory/StructureDefinition/Observation-resultslab-eu-lab"
          ]
        },
        "performer": [
          {
            "display": "The Central European Lab"
          }
        ],
        "category": [
          {
            "coding": [
              {
                "system": "http://terminology.hl7.org/CodeSystem/observation-category",
                "code": "laboratory"
              }
            ]
          }
        ],
        "code": {
          "coding": [
            {
              "code": "2028-9",
              "system": "http://loinc.org",
              "display": "Carbon dioxide, total [Moles/volume] in Serum or Plasma"
            }
          ],
          "text": "Carbon dioxide, total [Moles/volume] in Serum or Plasma"
        },
        "valueQuantity": {
          "system": "http://unitsofmeasure.org",
          "value": 25.8,
          "unit": "mmol/L",
          "code": "mmol/L"
        },
        "referenceRange": [
          {
            "low": {
              "value": 22,
              "code": "mmol/L",
              "system": "http://unitsofmeasure.org"
            }
          },
          {
            "high": {
              "value": 32,
              "code": "mmol/L",
              "system": "http://unitsofmeasure.org"
            }
          }
        ],
        "text": {
          "status": "generated",
          "div": "<div xmlns=\"http://www.w3.org/1999/xhtml\"><table class=\"hl7__eu__lab__report\"><tr><th>Test</th><th>06-Oct-2020</th><th>Reference&#xA0;Range</th><th>Unit</th></tr><tr><td>Carbon dioxide, total [Moles/volume] in Serum or Plasma</td><td>25.8</td><td>22 - 32</td><td></td><td>mmol/L</td></tr></table></div>"
        },
        "status": "final",
        "subject": {
          "reference": "urn:uuid:abb56509-2d90-4932-bef1-b1e8dcb8aa27",
          "display": "Meaghan Neary"
        },
        "effectiveDateTime": "2020-10-05T22:11:04Z",
        "specimen": {
          "reference": "urn:uuid:fd8033cd-d6c3-4b22-ba2a-f9a165819d47"
        }
      }
    },
    {
      "fullUrl": "urn:uuid:105e29be-b5c8-4f19-a861-c1d048fffbe6",
      "resource": {
        "resourceType": "Observation",
        "id": "105e29be-b5c8-4f19-a861-c1d048fffbe6",
        "meta": {
          "profile": [
            "http://hl7.eu/fhir/laboratory/StructureDefinition/Observation-resultslab-eu-lab"
          ]
        },
        "performer": [
          {
            "display": "The Central European Lab"
          }
        ],
        "category": [
          {
            "coding": [
              {
                "system": "http://terminology.hl7.org/CodeSystem/observation-category",
                "code": "laboratory"
              }
            ]
          }
        ],
        "code": {
          "coding": [
            {
              "code": "5767-9",
              "system": "http://loinc.org",
              "display": "Appearance of Urine"
            }
          ],
          "text": "Appearance of Urine"
        },
        "text": {
          "status": "generated",
          "div": "<div xmlns=\"http://www.w3.org/1999/xhtml\"><table class=\"hl7__eu__lab__report\"><tr><th>Test</th><th>06-Oct-2020</th><th>Reference&#xA0;Range</th><th>Unit</th></tr><tr><td>Appearance of Urine</td></tr></table></div>"
        },
        "status": "final",
        "subject": {
          "reference": "urn:uuid:abb56509-2d90-4932-bef1-b1e8dcb8aa27",
          "display": "Meaghan Neary"
        },
        "effectiveDateTime": "2020-10-05T22:11:04Z",
        "specimen": {
          "reference": "urn:uuid:76248245-f5d4-43af-98ab-0a8008a9e42e"
        }
      }
    },
    {
      "fullUrl": "urn:uuid:e47a901a-a4ab-4fce-8bac-7be4a5eb81da",
      "resource": {
        "resourceType": "Observation",
        "id": "e47a901a-a4ab-4fce-8bac-7be4a5eb81da",
        "meta": {
          "profile": [
            "http://hl7.eu/fhir/laboratory/StructureDefinition/Observation-resultslab-eu-lab"
          ]
        },
        "performer": [
          {
            "display": "The Central European Lab"
          }
        ],
        "category": [
          {
            "coding": [
              {
                "system": "http://terminology.hl7.org/CodeSystem/observation-category",
                "code": "laboratory"
              }
            ]
          }
        ],
        "code": {
          "coding": [
            {
              "code": "34533-0",
              "system": "http://loinc.org",
              "display": "Odor of Urine"
            }
          ],
          "text": "Odor of Urine"
        },
        "text": {
          "status": "generated",
          "div": "<div xmlns=\"http://www.w3.org/1999/xhtml\"><table class=\"hl7__eu__lab__report\"><tr><th>Test</th><th>06-Oct-2020</th><th>Reference&#xA0;Range</th><th>Unit</th></tr><tr><td>Odor of Urine</td></tr></table></div>"
        },
        "status": "final",
        "subject": {
          "reference": "urn:uuid:abb56509-2d90-4932-bef1-b1e8dcb8aa27",
          "display": "Meaghan Neary"
        },
        "effectiveDateTime": "2020-10-05T22:11:04Z",
        "specimen": {
          "reference": "urn:uuid:76248245-f5d4-43af-98ab-0a8008a9e42e"
        }
      }
    },
    {
      "fullUrl": "urn:uuid:7909d930-0cff-4122-91bd-29cf456d09ce",
      "resource": {
        "resourceType": "Observation",
        "id": "7909d930-0cff-4122-91bd-29cf456d09ce",
        "meta": {
          "profile": [
            "http://hl7.eu/fhir/laboratory/StructureDefinition/Observation-resultslab-eu-lab"
          ]
        },
        "performer": [
          {
            "display": "The Central European Lab"
          }
        ],
        "category": [
          {
            "coding": [
              {
                "system": "http://terminology.hl7.org/CodeSystem/observation-category",
                "code": "laboratory"
              }
            ]
          }
        ],
        "code": {
          "coding": [
            {
              "code": "32167-9",
              "system": "http://loinc.org",
              "display": "Clarity of Urine"
            }
          ],
          "text": "Clarity of Urine"
        },
        "text": {
          "status": "generated",
          "div": "<div xmlns=\"http://www.w3.org/1999/xhtml\"><table class=\"hl7__eu__lab__report\"><tr><th>Test</th><th>06-Oct-2020</th><th>Reference&#xA0;Range</th><th>Unit</th></tr><tr><td>Clarity of Urine</td></tr></table></div>"
        },
        "status": "final",
        "subject": {
          "reference": "urn:uuid:abb56509-2d90-4932-bef1-b1e8dcb8aa27",
          "display": "Meaghan Neary"
        },
        "effectiveDateTime": "2020-10-05T22:11:04Z",
        "specimen": {
          "reference": "urn:uuid:76248245-f5d4-43af-98ab-0a8008a9e42e"
        }
      }
    },
    {
      "fullUrl": "urn:uuid:b70a0a1a-b816-4fe4-b5d8-b9a47223f192",
      "resource": {
        "resourceType": "Observation",
        "id": "b70a0a1a-b816-4fe4-b5d8-b9a47223f192",
        "meta": {
          "profile": [
            "http://hl7.eu/fhir/laboratory/StructureDefinition/Observation-resultslab-eu-lab"
          ]
        },
        "performer": [
          {
            "display": "The Central European Lab"
          }
        ],
        "category": [
          {
            "coding": [
              {
                "system": "http://terminology.hl7.org/CodeSystem/observation-category",
                "code": "laboratory"
              }
            ]
          }
        ],
        "code": {
          "coding": [
            {
              "code": "5778-6",
              "system": "http://loinc.org",
              "display": "Color of Urine"
            }
          ],
          "text": "Color of Urine"
        },
        "text": {
          "status": "generated",
          "div": "<div xmlns=\"http://www.w3.org/1999/xhtml\"><table class=\"hl7__eu__lab__report\"><tr><th>Test</th><th>06-Oct-2020</th><th>Reference&#xA0;Range</th><th>Unit</th></tr><tr><td>Color of Urine</td></tr></table></div>"
        },
        "status": "final",
        "subject": {
          "reference": "urn:uuid:abb56509-2d90-4932-bef1-b1e8dcb8aa27",
          "display": "Meaghan Neary"
        },
        "effectiveDateTime": "2020-10-05T22:11:04Z",
        "specimen": {
          "reference": "urn:uuid:76248245-f5d4-43af-98ab-0a8008a9e42e"
        }
      }
    },
    {
      "fullUrl": "urn:uuid:642a4dde-d6b1-488c-850b-6f93c13384a7",
      "resource": {
        "resourceType": "Observation",
        "id": "642a4dde-d6b1-488c-850b-6f93c13384a7",
        "meta": {
          "profile": [
            "http://hl7.eu/fhir/laboratory/StructureDefinition/Observation-resultslab-eu-lab"
          ]
        },
        "performer": [
          {
            "display": "The Central European Lab"
          }
        ],
        "category": [
          {
            "coding": [
              {
                "system": "http://terminology.hl7.org/CodeSystem/observation-category",
                "code": "laboratory"
              }
            ]
          }
        ],
        "code": {
          "coding": [
            {
              "code": "5792-7",
              "system": "http://loinc.org",
              "display": "Glucose [Mass/volume] in Urine by Test strip"
            }
          ],
          "text": "Glucose [Mass/volume] in Urine by Test strip"
        },
        "valueQuantity": {
          "system": "http://unitsofmeasure.org",
          "value": 1.1,
          "unit": "mg/dL",
          "code": "mg/dL"
        },
        "referenceRange": [
          {
            "low": {
              "value": 0.8,
              "code": "mg/dL",
              "system": "http://unitsofmeasure.org"
            }
          },
          {
            "high": {
              "value": 0,
              "code": "mg/dL",
              "system": "http://unitsofmeasure.org"
            }
          }
        ],
        "interpretation": [
          {
            "coding": [
              {
                "code": "H",
                "system": "http://terminology.hl7.org/CodeSystem/v3-ObservationInterpretation",
                "display": "High"
              }
            ]
          }
        ],
        "text": {
          "status": "generated",
          "div": "<div xmlns=\"http://www.w3.org/1999/xhtml\"><table class=\"hl7__eu__lab__report\"><tr><th>Test</th><th>06-Oct-2020</th><th>Reference&#xA0;Range</th><th>Unit</th></tr><tr><td>Glucose [Mass/volume] in Urine by Test strip</td><td>1.1</td><td>0.8 - 0</td><td>H</td><td>mg/dL</td></tr></table></div>"
        },
        "status": "final",
        "subject": {
          "reference": "urn:uuid:abb56509-2d90-4932-bef1-b1e8dcb8aa27",
          "display": "Meaghan Neary"
        },
        "effectiveDateTime": "2020-10-05T22:11:04Z",
        "specimen": {
          "reference": "urn:uuid:76248245-f5d4-43af-98ab-0a8008a9e42e"
        }
      }
    },
    {
      "fullUrl": "urn:uuid:333b6350-141d-4be8-8200-e5f160d23811",
      "resource": {
        "resourceType": "Observation",
        "id": "333b6350-141d-4be8-8200-e5f160d23811",
        "meta": {
          "profile": [
            "http://hl7.eu/fhir/laboratory/StructureDefinition/Observation-resultslab-eu-lab"
          ]
        },
        "performer": [
          {
            "display": "The Central European Lab"
          }
        ],
        "category": [
          {
            "coding": [
              {
                "system": "http://terminology.hl7.org/CodeSystem/observation-category",
                "code": "laboratory"
              }
            ]
          }
        ],
        "code": {
          "coding": [
            {
              "code": "25428-4",
              "system": "http://loinc.org",
              "display": "Glucose [Presence] in Urine by Test strip"
            }
          ],
          "text": "Glucose [Presence] in Urine by Test strip"
        },
        "text": {
          "status": "generated",
          "div": "<div xmlns=\"http://www.w3.org/1999/xhtml\"><table class=\"hl7__eu__lab__report\"><tr><th>Test</th><th>06-Oct-2020</th><th>Reference&#xA0;Range</th><th>Unit</th></tr><tr><td>Glucose [Presence] in Urine by Test strip</td></tr></table></div>"
        },
        "status": "final",
        "subject": {
          "reference": "urn:uuid:abb56509-2d90-4932-bef1-b1e8dcb8aa27",
          "display": "Meaghan Neary"
        },
        "effectiveDateTime": "2020-10-05T22:11:04Z",
        "specimen": {
          "reference": "urn:uuid:76248245-f5d4-43af-98ab-0a8008a9e42e"
        }
      }
    },
    {
      "fullUrl": "urn:uuid:98b529e5-6067-4efa-9421-c94bbf4abc71",
      "resource": {
        "resourceType": "Observation",
        "id": "98b529e5-6067-4efa-9421-c94bbf4abc71",
        "meta": {
          "profile": [
            "http://hl7.eu/fhir/laboratory/StructureDefinition/Observation-resultslab-eu-lab"
          ]
        },
        "performer": [
          {
            "display": "The Central European Lab"
          }
        ],
        "category": [
          {
            "coding": [
              {
                "system": "http://terminology.hl7.org/CodeSystem/observation-category",
                "code": "laboratory"
              }
            ]
          }
        ],
        "code": {
          "coding": [
            {
              "code": "20505-4",
              "system": "http://loinc.org",
              "display": "Bilirubin.total [Mass/volume] in Urine by Test strip"
            }
          ],
          "text": "Bilirubin.total [Mass/volume] in Urine by Test strip"
        },
        "valueQuantity": {
          "system": "http://unitsofmeasure.org",
          "value": 0.5,
          "unit": "mg/dL",
          "code": "mg/dL"
        },
        "referenceRange": [
          {
            "low": {
              "value": 0,
              "code": "mg/dL",
              "system": "http://unitsofmeasure.org"
            }
          },
          {
            "high": {
              "value": 1,
              "code": "mg/dL",
              "system": "http://unitsofmeasure.org"
            }
          }
        ],
        "text": {
          "status": "generated",
          "div": "<div xmlns=\"http://www.w3.org/1999/xhtml\"><table class=\"hl7__eu__lab__report\"><tr><th>Test</th><th>06-Oct-2020</th><th>Reference&#xA0;Range</th><th>Unit</th></tr><tr><td>Bilirubin.total [Mass/volume] in Urine by Test strip</td><td>0.5</td><td>0 - 1</td><td></td><td>mg/dL</td></tr></table></div>"
        },
        "status": "final",
        "subject": {
          "reference": "urn:uuid:abb56509-2d90-4932-bef1-b1e8dcb8aa27",
          "display": "Meaghan Neary"
        },
        "effectiveDateTime": "2020-10-05T22:11:04Z",
        "specimen": {
          "reference": "urn:uuid:76248245-f5d4-43af-98ab-0a8008a9e42e"
        }
      }
    },
    {
      "fullUrl": "urn:uuid:4b7950f4-2dca-4b60-b13f-7fb7005a0698",
      "resource": {
        "resourceType": "Observation",
        "id": "4b7950f4-2dca-4b60-b13f-7fb7005a0698",
        "meta": {
          "profile": [
            "http://hl7.eu/fhir/laboratory/StructureDefinition/Observation-resultslab-eu-lab"
          ]
        },
        "performer": [
          {
            "display": "The Central European Lab"
          }
        ],
        "category": [
          {
            "coding": [
              {
                "system": "http://terminology.hl7.org/CodeSystem/observation-category",
                "code": "laboratory"
              }
            ]
          }
        ],
        "code": {
          "coding": [
            {
              "code": "5770-3",
              "system": "http://loinc.org",
              "display": "Bilirubin.total [Presence] in Urine by Test strip"
            }
          ],
          "text": "Bilirubin.total [Presence] in Urine by Test strip"
        },
        "text": {
          "status": "generated",
          "div": "<div xmlns=\"http://www.w3.org/1999/xhtml\"><table class=\"hl7__eu__lab__report\"><tr><th>Test</th><th>06-Oct-2020</th><th>Reference&#xA0;Range</th><th>Unit</th></tr><tr><td>Bilirubin.total [Presence] in Urine by Test strip</td></tr></table></div>"
        },
        "status": "final",
        "subject": {
          "reference": "urn:uuid:abb56509-2d90-4932-bef1-b1e8dcb8aa27",
          "display": "Meaghan Neary"
        },
        "effectiveDateTime": "2020-10-05T22:11:04Z",
        "specimen": {
          "reference": "urn:uuid:76248245-f5d4-43af-98ab-0a8008a9e42e"
        }
      }
    },
    {
      "fullUrl": "urn:uuid:790868ee-3226-4de4-b0d8-d57e15dc9f7e",
      "resource": {
        "resourceType": "Observation",
        "id": "790868ee-3226-4de4-b0d8-d57e15dc9f7e",
        "meta": {
          "profile": [
            "http://hl7.eu/fhir/laboratory/StructureDefinition/Observation-resultslab-eu-lab"
          ]
        },
        "performer": [
          {
            "display": "The Central European Lab"
          }
        ],
        "category": [
          {
            "coding": [
              {
                "system": "http://terminology.hl7.org/CodeSystem/observation-category",
                "code": "laboratory"
              }
            ]
          }
        ],
        "code": {
          "coding": [
            {
              "code": "5797-6",
              "system": "http://loinc.org",
              "display": "Ketones [Mass/volume] in Urine by Test strip"
            }
          ],
          "text": "Ketones [Mass/volume] in Urine by Test strip"
        },
        "valueQuantity": {
          "system": "http://unitsofmeasure.org",
          "value": 0.8,
          "unit": "mg/dL",
          "code": "mg/dL"
        },
        "referenceRange": [
          {
            "low": {
              "value": 0,
              "code": "mg/dL",
              "system": "http://unitsofmeasure.org"
            }
          },
          {
            "high": {
              "value": 4,
              "code": "mg/dL",
              "system": "http://unitsofmeasure.org"
            }
          }
        ],
        "text": {
          "status": "generated",
          "div": "<div xmlns=\"http://www.w3.org/1999/xhtml\"><table class=\"hl7__eu__lab__report\"><tr><th>Test</th><th>06-Oct-2020</th><th>Reference&#xA0;Range</th><th>Unit</th></tr><tr><td>Ketones [Mass/volume] in Urine by Test strip</td><td>0.8</td><td>0 - 4</td><td></td><td>mg/dL</td></tr></table></div>"
        },
        "status": "final",
        "subject": {
          "reference": "urn:uuid:abb56509-2d90-4932-bef1-b1e8dcb8aa27",
          "display": "Meaghan Neary"
        },
        "effectiveDateTime": "2020-10-05T22:11:04Z",
        "specimen": {
          "reference": "urn:uuid:76248245-f5d4-43af-98ab-0a8008a9e42e"
        }
      }
    },
    {
      "fullUrl": "urn:uuid:d4367fb4-f961-42e8-a9df-3bfc133576cc",
      "resource": {
        "resourceType": "Observation",
        "id": "d4367fb4-f961-42e8-a9df-3bfc133576cc",
        "meta": {
          "profile": [
            "http://hl7.eu/fhir/laboratory/StructureDefinition/Observation-resultslab-eu-lab"
          ]
        },
        "performer": [
          {
            "display": "The Central European Lab"
          }
        ],
        "category": [
          {
            "coding": [
              {
                "system": "http://terminology.hl7.org/CodeSystem/observation-category",
                "code": "laboratory"
              }
            ]
          }
        ],
        "code": {
          "coding": [
            {
              "code": "2514-8",
              "system": "http://loinc.org",
              "display": "Ketones [Presence] in Urine by Test strip"
            }
          ],
          "text": "Ketones [Presence] in Urine by Test strip"
        },
        "text": {
          "status": "generated",
          "div": "<div xmlns=\"http://www.w3.org/1999/xhtml\"><table class=\"hl7__eu__lab__report\"><tr><th>Test</th><th>06-Oct-2020</th><th>Reference&#xA0;Range</th><th>Unit</th></tr><tr><td>Ketones [Presence] in Urine by Test strip</td></tr></table></div>"
        },
        "status": "final",
        "subject": {
          "reference": "urn:uuid:abb56509-2d90-4932-bef1-b1e8dcb8aa27",
          "display": "Meaghan Neary"
        },
        "effectiveDateTime": "2020-10-05T22:11:04Z",
        "specimen": {
          "reference": "urn:uuid:76248245-f5d4-43af-98ab-0a8008a9e42e"
        }
      }
    },
    {
      "fullUrl": "urn:uuid:cf8ac3ef-8ee2-475f-9e62-822bc8b6501d",
      "resource": {
        "resourceType": "Observation",
        "id": "cf8ac3ef-8ee2-475f-9e62-822bc8b6501d",
        "meta": {
          "profile": [
            "http://hl7.eu/fhir/laboratory/StructureDefinition/Observation-resultslab-eu-lab"
          ]
        },
        "performer": [
          {
            "display": "The Central European Lab"
          }
        ],
        "category": [
          {
            "coding": [
              {
                "system": "http://terminology.hl7.org/CodeSystem/observation-category",
                "code": "laboratory"
              }
            ]
          }
        ],
        "code": {
          "coding": [
            {
              "code": "5811-5",
              "system": "http://loinc.org",
              "display": "Specific gravity of Urine by Test strip"
            }
          ],
          "text": "Specific gravity of Urine by Test strip"
        },
        "valueQuantity": {
          "system": "http://unitsofmeasure.org",
          "value": 1,
          "unit": "{nominal}",
          "code": "{nominal}"
        },
        "referenceRange": [
          {
            "low": {
              "value": 1.005,
              "code": "g/mL",
              "system": "http://unitsofmeasure.org"
            }
          },
          {
            "high": {
              "value": 1.03,
              "code": "g/mL",
              "system": "http://unitsofmeasure.org"
            }
          }
        ],
        "interpretation": [
          {
            "coding": [
              {
                "code": "L",
                "system": "http://terminology.hl7.org/CodeSystem/v3-ObservationInterpretation",
                "display": "Low"
              }
            ]
          }
        ],
        "text": {
          "status": "generated",
          "div": "<div xmlns=\"http://www.w3.org/1999/xhtml\"><table class=\"hl7__eu__lab__report\"><tr><th>Test</th><th>06-Oct-2020</th><th>Reference&#xA0;Range</th><th>Unit</th></tr><tr><td>Specific gravity of Urine by Test strip</td><td>1.0</td><td>1.005 - 1.03</td><td>L</td><td>{nominal}</td></tr></table></div>"
        },
        "status": "final",
        "subject": {
          "reference": "urn:uuid:abb56509-2d90-4932-bef1-b1e8dcb8aa27",
          "display": "Meaghan Neary"
        },
        "effectiveDateTime": "2020-10-05T22:11:04Z",
        "specimen": {
          "reference": "urn:uuid:76248245-f5d4-43af-98ab-0a8008a9e42e"
        }
      }
    },
    {
      "fullUrl": "urn:uuid:bf7dc105-b220-4bef-94db-c5832d27cd65",
      "resource": {
        "resourceType": "Observation",
        "id": "bf7dc105-b220-4bef-94db-c5832d27cd65",
        "meta": {
          "profile": [
            "http://hl7.eu/fhir/laboratory/StructureDefinition/Observation-resultslab-eu-lab"
          ]
        },
        "performer": [
          {
            "display": "The Central European Lab"
          }
        ],
        "category": [
          {
            "coding": [
              {
                "system": "http://terminology.hl7.org/CodeSystem/observation-category",
                "code": "laboratory"
              }
            ]
          }
        ],
        "code": {
          "coding": [
            {
              "code": "5803-2",
              "system": "http://loinc.org",
              "display": "pH of Urine by Test strip"
            }
          ],
          "text": "pH of Urine by Test strip"
        },
        "valueQuantity": {
          "system": "http://unitsofmeasure.org",
          "value": 6.7,
          "unit": "pH",
          "code": "pH"
        },
        "referenceRange": [
          {
            "low": {
              "value": 4.6,
              "code": "pH",
              "system": "http://unitsofmeasure.org"
            }
          },
          {
            "high": {
              "value": 7,
              "code": "pH",
              "system": "http://unitsofmeasure.org"
            }
          }
        ],
        "text": {
          "status": "generated",
          "div": "<div xmlns=\"http://www.w3.org/1999/xhtml\"><table class=\"hl7__eu__lab__report\"><tr><th>Test</th><th>06-Oct-2020</th><th>Reference&#xA0;Range</th><th>Unit</th></tr><tr><td>pH of Urine by Test strip</td><td>6.7</td><td>4.6 - 7</td><td></td><td>pH</td></tr></table></div>"
        },
        "status": "final",
        "subject": {
          "reference": "urn:uuid:abb56509-2d90-4932-bef1-b1e8dcb8aa27",
          "display": "Meaghan Neary"
        },
        "effectiveDateTime": "2020-10-05T22:11:04Z",
        "specimen": {
          "reference": "urn:uuid:76248245-f5d4-43af-98ab-0a8008a9e42e"
        }
      }
    },
    {
      "fullUrl": "urn:uuid:3f7c974c-2ae4-4b4f-96d5-e351c9111544",
      "resource": {
        "resourceType": "Observation",
        "id": "3f7c974c-2ae4-4b4f-96d5-e351c9111544",
        "meta": {
          "profile": [
            "http://hl7.eu/fhir/laboratory/StructureDefinition/Observation-resultslab-eu-lab"
          ]
        },
        "performer": [
          {
            "display": "The Central European Lab"
          }
        ],
        "category": [
          {
            "coding": [
              {
                "system": "http://terminology.hl7.org/CodeSystem/observation-category",
                "code": "laboratory"
              }
            ]
          }
        ],
        "code": {
          "coding": [
            {
              "code": "5804-0",
              "system": "http://loinc.org",
              "display": "Protein [Mass/volume] in Urine by Test strip"
            }
          ],
          "text": "Protein [Mass/volume] in Urine by Test strip"
        },
        "valueQuantity": {
          "system": "http://unitsofmeasure.org",
          "value": 343.7,
          "unit": "mg/dL",
          "code": "mg/dL"
        },
        "referenceRange": [
          {
            "low": {
              "value": 0,
              "code": "mg/dL",
              "system": "http://unitsofmeasure.org"
            }
          },
          {
            "high": {
              "value": 14,
              "code": "mg/dL",
              "system": "http://unitsofmeasure.org"
            }
          }
        ],
        "interpretation": [
          {
            "coding": [
              {
                "code": "H",
                "system": "http://terminology.hl7.org/CodeSystem/v3-ObservationInterpretation",
                "display": "High"
              }
            ]
          }
        ],
        "text": {
          "status": "generated",
          "div": "<div xmlns=\"http://www.w3.org/1999/xhtml\"><table class=\"hl7__eu__lab__report\"><tr><th>Test</th><th>06-Oct-2020</th><th>Reference&#xA0;Range</th><th>Unit</th></tr><tr><td>Protein [Mass/volume] in Urine by Test strip</td><td>343.7</td><td>0 - 14</td><td>H</td><td>mg/dL</td></tr></table></div>"
        },
        "status": "final",
        "subject": {
          "reference": "urn:uuid:abb56509-2d90-4932-bef1-b1e8dcb8aa27",
          "display": "Meaghan Neary"
        },
        "effectiveDateTime": "2020-10-05T22:11:04Z",
        "specimen": {
          "reference": "urn:uuid:76248245-f5d4-43af-98ab-0a8008a9e42e"
        }
      }
    },
    {
      "fullUrl": "urn:uuid:f820b846-8c01-40f8-bfe4-e8b5da157219",
      "resource": {
        "resourceType": "Observation",
        "id": "f820b846-8c01-40f8-bfe4-e8b5da157219",
        "meta": {
          "profile": [
            "http://hl7.eu/fhir/laboratory/StructureDefinition/Observation-resultslab-eu-lab"
          ]
        },
        "performer": [
          {
            "display": "The Central European Lab"
          }
        ],
        "category": [
          {
            "coding": [
              {
                "system": "http://terminology.hl7.org/CodeSystem/observation-category",
                "code": "laboratory"
              }
            ]
          }
        ],
        "code": {
          "coding": [
            {
              "code": "20454-5",
              "system": "http://loinc.org",
              "display": "Protein [Presence] in Urine by Test strip"
            }
          ],
          "text": "Protein [Presence] in Urine by Test strip"
        },
        "text": {
          "status": "generated",
          "div": "<div xmlns=\"http://www.w3.org/1999/xhtml\"><table class=\"hl7__eu__lab__report\"><tr><th>Test</th><th>06-Oct-2020</th><th>Reference&#xA0;Range</th><th>Unit</th></tr><tr><td>Protein [Presence] in Urine by Test strip</td></tr></table></div>"
        },
        "status": "final",
        "subject": {
          "reference": "urn:uuid:abb56509-2d90-4932-bef1-b1e8dcb8aa27",
          "display": "Meaghan Neary"
        },
        "effectiveDateTime": "2020-10-05T22:11:04Z",
        "specimen": {
          "reference": "urn:uuid:76248245-f5d4-43af-98ab-0a8008a9e42e"
        }
      }
    },
    {
      "fullUrl": "urn:uuid:3d2d1966-796d-410c-a21d-56442838f52b",
      "resource": {
        "resourceType": "Observation",
        "id": "3d2d1966-796d-410c-a21d-56442838f52b",
        "meta": {
          "profile": [
            "http://hl7.eu/fhir/laboratory/StructureDefinition/Observation-resultslab-eu-lab"
          ]
        },
        "performer": [
          {
            "display": "The Central European Lab"
          }
        ],
        "category": [
          {
            "coding": [
              {
                "system": "http://terminology.hl7.org/CodeSystem/observation-category",
                "code": "laboratory"
              }
            ]
          }
        ],
        "code": {
          "coding": [
            {
              "code": "5802-4",
              "system": "http://loinc.org",
              "display": "Nitrite [Presence] in Urine by Test strip"
            }
          ],
          "text": "Nitrite [Presence] in Urine by Test strip"
        },
        "text": {
          "status": "generated",
          "div": "<div xmlns=\"http://www.w3.org/1999/xhtml\"><table class=\"hl7__eu__lab__report\"><tr><th>Test</th><th>06-Oct-2020</th><th>Reference&#xA0;Range</th><th>Unit</th></tr><tr><td>Nitrite [Presence] in Urine by Test strip</td></tr></table></div>"
        },
        "status": "final",
        "subject": {
          "reference": "urn:uuid:abb56509-2d90-4932-bef1-b1e8dcb8aa27",
          "display": "Meaghan Neary"
        },
        "effectiveDateTime": "2020-10-05T22:11:04Z",
        "specimen": {
          "reference": "urn:uuid:76248245-f5d4-43af-98ab-0a8008a9e42e"
        }
      }
    },
    {
      "fullUrl": "urn:uuid:1899c027-173f-4a08-833c-3057998d290c",
      "resource": {
        "resourceType": "Observation",
        "id": "1899c027-173f-4a08-833c-3057998d290c",
        "meta": {
          "profile": [
            "http://hl7.eu/fhir/laboratory/StructureDefinition/Observation-resultslab-eu-lab"
          ]
        },
        "performer": [
          {
            "display": "The Central European Lab"
          }
        ],
        "category": [
          {
            "coding": [
              {
                "system": "http://terminology.hl7.org/CodeSystem/observation-category",
                "code": "laboratory"
              }
            ]
          }
        ],
        "code": {
          "coding": [
            {
              "code": "5794-3",
              "system": "http://loinc.org",
              "display": "Hemoglobin [Presence] in Urine by Test strip"
            }
          ],
          "text": "Hemoglobin [Presence] in Urine by Test strip"
        },
        "text": {
          "status": "generated",
          "div": "<div xmlns=\"http://www.w3.org/1999/xhtml\"><table class=\"hl7__eu__lab__report\"><tr><th>Test</th><th>06-Oct-2020</th><th>Reference&#xA0;Range</th><th>Unit</th></tr><tr><td>Hemoglobin [Presence] in Urine by Test strip</td></tr></table></div>"
        },
        "status": "final",
        "subject": {
          "reference": "urn:uuid:abb56509-2d90-4932-bef1-b1e8dcb8aa27",
          "display": "Meaghan Neary"
        },
        "effectiveDateTime": "2020-10-05T22:11:04Z",
        "specimen": {
          "reference": "urn:uuid:76248245-f5d4-43af-98ab-0a8008a9e42e"
        }
      }
    },
    {
      "fullUrl": "urn:uuid:4f36e4ab-d27a-424e-b242-f1de785bc756",
      "resource": {
        "resourceType": "Observation",
        "id": "4f36e4ab-d27a-424e-b242-f1de785bc756",
        "meta": {
          "profile": [
            "http://hl7.eu/fhir/laboratory/StructureDefinition/Observation-resultslab-eu-lab"
          ]
        },
        "performer": [
          {
            "display": "The Central European Lab"
          }
        ],
        "category": [
          {
            "coding": [
              {
                "system": "http://terminology.hl7.org/CodeSystem/observation-category",
                "code": "laboratory"
              }
            ]
          }
        ],
        "code": {
          "coding": [
            {
              "code": "5799-2",
              "system": "http://loinc.org",
              "display": "Leukocyte esterase [Presence] in Urine by Test strip"
            }
          ],
          "text": "Leukocyte esterase [Presence] in Urine by Test strip"
        },
        "text": {
          "status": "generated",
          "div": "<div xmlns=\"http://www.w3.org/1999/xhtml\"><table class=\"hl7__eu__lab__report\"><tr><th>Test</th><th>06-Oct-2020</th><th>Reference&#xA0;Range</th><th>Unit</th></tr><tr><td>Leukocyte esterase [Presence] in Urine by Test strip</td></tr></table></div>"
        },
        "status": "final",
        "subject": {
          "reference": "urn:uuid:abb56509-2d90-4932-bef1-b1e8dcb8aa27",
          "display": "Meaghan Neary"
        },
        "effectiveDateTime": "2020-10-05T22:11:04Z",
        "specimen": {
          "reference": "urn:uuid:76248245-f5d4-43af-98ab-0a8008a9e42e"
        }
      }
    },
    {
      "fullUrl": "urn:uuid:6865c920-0a34-4ff3-a1bd-bf88caab88a2",
      "resource": {
        "resourceType": "Observation",
        "id": "6865c920-0a34-4ff3-a1bd-bf88caab88a2",
        "meta": {
          "profile": [
            "http://hl7.eu/fhir/laboratory/StructureDefinition/Observation-resultslab-eu-lab"
          ]
        },
        "performer": [
          {
            "display": "The Central European Lab"
          }
        ],
        "category": [
          {
            "coding": [
              {
                "system": "http://terminology.hl7.org/CodeSystem/observation-category",
                "code": "laboratory"
              }
            ]
          }
        ],
        "code": {
          "coding": [
            {
              "code": "4548-4",
              "system": "http://loinc.org",
              "display": "Hemoglobin A1c/Hemoglobin.total in Blood"
            }
          ],
          "text": "Hemoglobin A1c/Hemoglobin.total in Blood"
        },
        "valueQuantity": {
          "system": "http://unitsofmeasure.org",
          "value": 3.4,
          "unit": "%",
          "code": "%"
        },
        "referenceRange": [
          {
            "low": {
              "value": 4,
              "code": "%",
              "system": "http://unitsofmeasure.org"
            }
          },
          {
            "high": {
              "value": 6.4,
              "code": "%",
              "system": "http://unitsofmeasure.org"
            }
          }
        ],
        "interpretation": [
          {
            "coding": [
              {
                "code": "L",
                "system": "http://terminology.hl7.org/CodeSystem/v3-ObservationInterpretation",
                "display": "Low"
              }
            ]
          }
        ],
        "text": {
          "status": "generated",
          "div": "<div xmlns=\"http://www.w3.org/1999/xhtml\"><table class=\"hl7__eu__lab__report\"><tr><th>Test</th><th>06-Oct-2020</th><th>Reference&#xA0;Range</th><th>Unit</th></tr><tr><td>Hemoglobin A1c/Hemoglobin.total in Blood</td><td>3.4</td><td>4 - 6.4</td><td>L</td><td>%</td></tr></table></div>"
        },
        "status": "final",
        "subject": {
          "reference": "urn:uuid:abb56509-2d90-4932-bef1-b1e8dcb8aa27",
          "display": "Meaghan Neary"
        },
        "effectiveDateTime": "2020-10-05T22:11:04Z",
        "specimen": {
          "reference": "urn:uuid:fd943c04-d391-477b-8ad3-af24abb28139"
        }
      }
    },
    {
      "fullUrl": "urn:uuid:8ec90181-9206-431c-a73b-2c857d3501d3",
      "resource": {
        "resourceType": "Observation",
        "id": "8ec90181-9206-431c-a73b-2c857d3501d3",
        "meta": {
          "profile": [
            "http://hl7.eu/fhir/laboratory/StructureDefinition/Observation-resultslab-eu-lab"
          ]
        },
        "performer": [
          {
            "display": "The Central European Lab"
          }
        ],
        "category": [
          {
            "coding": [
              {
                "system": "http://terminology.hl7.org/CodeSystem/observation-category",
                "code": "laboratory"
              }
            ]
          }
        ],
        "code": {
          "coding": [
            {
              "code": "2339-0",
              "system": "http://loinc.org",
              "display": "Glucose [Mass/volume] in Blood"
            }
          ],
          "text": "Glucose [Mass/volume] in Blood"
        },
        "valueQuantity": {
          "system": "http://unitsofmeasure.org",
          "value": 66.9,
          "unit": "mg/dL",
          "code": "mg/dL"
        },
        "referenceRange": [
          {
            "low": {
              "value": 70,
              "code": "mg/dL",
              "system": "http://unitsofmeasure.org"
            }
          },
          {
            "high": {
              "value": 100,
              "code": "mg/dL",
              "system": "http://unitsofmeasure.org"
            }
          }
        ],
        "interpretation": [
          {
            "coding": [
              {
                "code": "L",
                "system": "http://terminology.hl7.org/CodeSystem/v3-ObservationInterpretation",
                "display": "Low"
              }
            ]
          }
        ],
        "text": {
          "status": "generated",
          "div": "<div xmlns=\"http://www.w3.org/1999/xhtml\"><table class=\"hl7__eu__lab__report\"><tr><th>Test</th><th>06-Oct-2020</th><th>Reference&#xA0;Range</th><th>Unit</th></tr><tr><td>Glucose [Mass/volume] in Blood</td><td>66.9</td><td>70 - 100</td><td>L</td><td>mg/dL</td></tr></table></div>"
        },
        "status": "final",
        "subject": {
          "reference": "urn:uuid:abb56509-2d90-4932-bef1-b1e8dcb8aa27",
          "display": "Meaghan Neary"
        },
        "effectiveDateTime": "2020-10-05T22:11:04Z",
        "specimen": {
          "reference": "urn:uuid:fd943c04-d391-477b-8ad3-af24abb28139"
        }
      }
    },
    {
      "fullUrl": "urn:uuid:ad2dba94-4e28-4013-8d9a-6313d7b19fc1",
      "resource": {
        "resourceType": "Observation",
        "id": "ad2dba94-4e28-4013-8d9a-6313d7b19fc1",
        "meta": {
          "profile": [
            "http://hl7.eu/fhir/laboratory/StructureDefinition/Observation-resultslab-eu-lab"
          ]
        },
        "performer": [
          {
            "display": "The Central European Lab"
          }
        ],
        "category": [
          {
            "coding": [
              {
                "system": "http://terminology.hl7.org/CodeSystem/observation-category",
                "code": "laboratory"
              }
            ]
          }
        ],
        "code": {
          "coding": [
            {
              "code": "6299-2",
              "system": "http://loinc.org",
              "display": "Urea nitrogen [Mass/volume] in Blood"
            }
          ],
          "text": "Urea nitrogen [Mass/volume] in Blood"
        },
        "valueQuantity": {
          "system": "http://unitsofmeasure.org",
          "value": 7.6,
          "unit": "mg/dL",
          "code": "mg/dL"
        },
        "referenceRange": [
          {
            "low": {
              "value": 7,
              "code": "mg/dL",
              "system": "http://unitsofmeasure.org"
            }
          },
          {
            "high": {
              "value": 43,
              "code": "mg/dL",
              "system": "http://unitsofmeasure.org"
            }
          }
        ],
        "text": {
          "status": "generated",
          "div": "<div xmlns=\"http://www.w3.org/1999/xhtml\"><table class=\"hl7__eu__lab__report\"><tr><th>Test</th><th>06-Oct-2020</th><th>Reference&#xA0;Range</th><th>Unit</th></tr><tr><td>Urea nitrogen [Mass/volume] in Blood</td><td>7.6</td><td>7 - 43</td><td></td><td>mg/dL</td></tr></table></div>"
        },
        "status": "final",
        "subject": {
          "reference": "urn:uuid:abb56509-2d90-4932-bef1-b1e8dcb8aa27",
          "display": "Meaghan Neary"
        },
        "effectiveDateTime": "2020-10-05T22:11:04Z",
        "specimen": {
          "reference": "urn:uuid:fd943c04-d391-477b-8ad3-af24abb28139"
        }
      }
    },
    {
      "fullUrl": "urn:uuid:97e6c9dc-b739-4805-bbe2-d0a8b5e84e55",
      "resource": {
        "resourceType": "Observation",
        "id": "97e6c9dc-b739-4805-bbe2-d0a8b5e84e55",
        "meta": {
          "profile": [
            "http://hl7.eu/fhir/laboratory/StructureDefinition/Observation-resultslab-eu-lab"
          ]
        },
        "performer": [
          {
            "display": "The Central European Lab"
          }
        ],
        "category": [
          {
            "coding": [
              {
                "system": "http://terminology.hl7.org/CodeSystem/observation-category",
                "code": "laboratory"
              }
            ]
          }
        ],
        "code": {
          "coding": [
            {
              "code": "38483-4",
              "system": "http://loinc.org",
              "display": "Creatinine [Mass/volume] in Blood"
            }
          ],
          "text": "Creatinine [Mass/volume] in Blood"
        },
        "valueQuantity": {
          "system": "http://unitsofmeasure.org",
          "value": 2.7,
          "unit": "mg/dL",
          "code": "mg/dL"
        },
        "referenceRange": [
          {
            "low": {
              "value": 0.6,
              "code": "mg/dL",
              "system": "http://unitsofmeasure.org"
            }
          },
          {
            "high": {
              "value": 1.1,
              "code": "mg/dL",
              "system": "http://unitsofmeasure.org"
            }
          }
        ],
        "interpretation": [
          {
            "coding": [
              {
                "code": "H",
                "system": "http://terminology.hl7.org/CodeSystem/v3-ObservationInterpretation",
                "display": "High"
              }
            ]
          }
        ],
        "text": {
          "status": "generated",
          "div": "<div xmlns=\"http://www.w3.org/1999/xhtml\"><table class=\"hl7__eu__lab__report\"><tr><th>Test</th><th>06-Oct-2020</th><th>Reference&#xA0;Range</th><th>Unit</th></tr><tr><td>Creatinine [Mass/volume] in Blood</td><td>2.7</td><td>0.6 - 1.1</td><td>H</td><td>mg/dL</td></tr></table></div>"
        },
        "status": "final",
        "subject": {
          "reference": "urn:uuid:abb56509-2d90-4932-bef1-b1e8dcb8aa27",
          "display": "Meaghan Neary"
        },
        "effectiveDateTime": "2020-10-05T22:11:04Z",
        "specimen": {
          "reference": "urn:uuid:fd943c04-d391-477b-8ad3-af24abb28139"
        }
      }
    },
    {
      "fullUrl": "urn:uuid:75c638a2-655f-4236-bdc6-4a49226b208e",
      "resource": {
        "resourceType": "Observation",
        "id": "75c638a2-655f-4236-bdc6-4a49226b208e",
        "meta": {
          "profile": [
            "http://hl7.eu/fhir/laboratory/StructureDefinition/Observation-resultslab-eu-lab"
          ]
        },
        "performer": [
          {
            "display": "The Central European Lab"
          }
        ],
        "category": [
          {
            "coding": [
              {
                "system": "http://terminology.hl7.org/CodeSystem/observation-category",
                "code": "laboratory"
              }
            ]
          }
        ],
        "code": {
          "coding": [
            {
              "code": "49765-1",
              "system": "http://loinc.org",
              "display": "Calcium [Mass/volume] in Blood"
            }
          ],
          "text": "Calcium [Mass/volume] in Blood"
        },
        "valueQuantity": {
          "system": "http://unitsofmeasure.org",
          "value": 8.7,
          "unit": "mg/dL",
          "code": "mg/dL"
        },
        "referenceRange": [
          {
            "low": {
              "value": 8.5,
              "code": "mg/dL",
              "system": "http://unitsofmeasure.org"
            }
          },
          {
            "high": {
              "value": 10.5,
              "code": "mg/dL",
              "system": "http://unitsofmeasure.org"
            }
          }
        ],
        "text": {
          "status": "generated",
          "div": "<div xmlns=\"http://www.w3.org/1999/xhtml\"><table class=\"hl7__eu__lab__report\"><tr><th>Test</th><th>06-Oct-2020</th><th>Reference&#xA0;Range</th><th>Unit</th></tr><tr><td>Calcium [Mass/volume] in Blood</td><td>8.7</td><td>8.5 - 10.5</td><td></td><td>mg/dL</td></tr></table></div>"
        },
        "status": "final",
        "subject": {
          "reference": "urn:uuid:abb56509-2d90-4932-bef1-b1e8dcb8aa27",
          "display": "Meaghan Neary"
        },
        "effectiveDateTime": "2020-10-05T22:11:04Z",
        "specimen": {
          "reference": "urn:uuid:fd943c04-d391-477b-8ad3-af24abb28139"
        }
      }
    },
    {
      "fullUrl": "urn:uuid:ce5ae540-49b6-4a66-89db-aeb13506c9d2",
      "resource": {
        "resourceType": "Observation",
        "id": "ce5ae540-49b6-4a66-89db-aeb13506c9d2",
        "meta": {
          "profile": [
            "http://hl7.eu/fhir/laboratory/StructureDefinition/Observation-resultslab-eu-lab"
          ]
        },
        "performer": [
          {
            "display": "The Central European Lab"
          }
        ],
        "category": [
          {
            "coding": [
              {
                "system": "http://terminology.hl7.org/CodeSystem/observation-category",
                "code": "laboratory"
              }
            ]
          }
        ],
        "code": {
          "coding": [
            {
              "code": "2947-0",
              "system": "http://loinc.org",
              "display": "Sodium [Moles/volume] in Blood"
            }
          ],
          "text": "Sodium [Moles/volume] in Blood"
        },
        "valueQuantity": {
          "system": "http://unitsofmeasure.org",
          "value": 142.9,
          "unit": "mmol/L",
          "code": "mmol/L"
        },
        "referenceRange": [
          {
            "low": {
              "value": 135,
              "code": "mmol/L",
              "system": "http://unitsofmeasure.org"
            }
          },
          {
            "high": {
              "value": 145,
              "code": "mmol/L",
              "system": "http://unitsofmeasure.org"
            }
          }
        ],
        "text": {
          "status": "generated",
          "div": "<div xmlns=\"http://www.w3.org/1999/xhtml\"><table class=\"hl7__eu__lab__report\"><tr><th>Test</th><th>06-Oct-2020</th><th>Reference&#xA0;Range</th><th>Unit</th></tr><tr><td>Sodium [Moles/volume] in Blood</td><td>142.9</td><td>135 - 145</td><td></td><td>mmol/L</td></tr></table></div>"
        },
        "status": "final",
        "subject": {
          "reference": "urn:uuid:abb56509-2d90-4932-bef1-b1e8dcb8aa27",
          "display": "Meaghan Neary"
        },
        "effectiveDateTime": "2020-10-05T22:11:04Z",
        "specimen": {
          "reference": "urn:uuid:fd943c04-d391-477b-8ad3-af24abb28139"
        }
      }
    },
    {
      "fullUrl": "urn:uuid:a3dbe6ea-17ba-4b60-82e8-494c1bceae6f",
      "resource": {
        "resourceType": "Observation",
        "id": "a3dbe6ea-17ba-4b60-82e8-494c1bceae6f",
        "meta": {
          "profile": [
            "http://hl7.eu/fhir/laboratory/StructureDefinition/Observation-resultslab-eu-lab"
          ]
        },
        "performer": [
          {
            "display": "The Central European Lab"
          }
        ],
        "category": [
          {
            "coding": [
              {
                "system": "http://terminology.hl7.org/CodeSystem/observation-category",
                "code": "laboratory"
              }
            ]
          }
        ],
        "code": {
          "coding": [
            {
              "code": "6298-4",
              "system": "http://loinc.org",
              "display": "Potassium [Moles/volume] in Blood"
            }
          ],
          "text": "Potassium [Moles/volume] in Blood"
        },
        "valueQuantity": {
          "system": "http://unitsofmeasure.org",
          "value": 3.9,
          "unit": "mmol/L",
          "code": "mmol/L"
        },
        "referenceRange": [
          {
            "low": {
              "value": 3.5,
              "code": "mmol/L",
              "system": "http://unitsofmeasure.org"
            }
          },
          {
            "high": {
              "value": 5.1,
              "code": "mmol/L",
              "system": "http://unitsofmeasure.org"
            }
          }
        ],
        "text": {
          "status": "generated",
          "div": "<div xmlns=\"http://www.w3.org/1999/xhtml\"><table class=\"hl7__eu__lab__report\"><tr><th>Test</th><th>06-Oct-2020</th><th>Reference&#xA0;Range</th><th>Unit</th></tr><tr><td>Potassium [Moles/volume] in Blood</td><td>3.9</td><td>3.5 - 5.1</td><td></td><td>mmol/L</td></tr></table></div>"
        },
        "status": "final",
        "subject": {
          "reference": "urn:uuid:abb56509-2d90-4932-bef1-b1e8dcb8aa27",
          "display": "Meaghan Neary"
        },
        "effectiveDateTime": "2020-10-05T22:11:04Z",
        "specimen": {
          "reference": "urn:uuid:fd943c04-d391-477b-8ad3-af24abb28139"
        }
      }
    },
    {
      "fullUrl": "urn:uuid:5afaff45-512b-4eb0-a6be-1302c98bf1bf",
      "resource": {
        "resourceType": "Observation",
        "id": "5afaff45-512b-4eb0-a6be-1302c98bf1bf",
        "meta": {
          "profile": [
            "http://hl7.eu/fhir/laboratory/StructureDefinition/Observation-resultslab-eu-lab"
          ]
        },
        "performer": [
          {
            "display": "The Central European Lab"
          }
        ],
        "category": [
          {
            "coding": [
              {
                "system": "http://terminology.hl7.org/CodeSystem/observation-category",
                "code": "laboratory"
              }
            ]
          }
        ],
        "code": {
          "coding": [
            {
              "code": "2069-3",
              "system": "http://loinc.org",
              "display": "Chloride [Moles/volume] in Blood"
            }
          ],
          "text": "Chloride [Moles/volume] in Blood"
        },
        "valueQuantity": {
          "system": "http://unitsofmeasure.org",
          "value": 103.6,
          "unit": "mmol/L",
          "code": "mmol/L"
        },
        "referenceRange": [
          {
            "low": {
              "value": 98,
              "code": "mmol/L",
              "system": "http://unitsofmeasure.org"
            }
          },
          {
            "high": {
              "value": 108,
              "code": "mmol/L",
              "system": "http://unitsofmeasure.org"
            }
          }
        ],
        "text": {
          "status": "generated",
          "div": "<div xmlns=\"http://www.w3.org/1999/xhtml\"><table class=\"hl7__eu__lab__report\"><tr><th>Test</th><th>06-Oct-2020</th><th>Reference&#xA0;Range</th><th>Unit</th></tr><tr><td>Chloride [Moles/volume] in Blood</td><td>103.6</td><td>98 - 108</td><td></td><td>mmol/L</td></tr></table></div>"
        },
        "status": "final",
        "subject": {
          "reference": "urn:uuid:abb56509-2d90-4932-bef1-b1e8dcb8aa27",
          "display": "Meaghan Neary"
        },
        "effectiveDateTime": "2020-10-05T22:11:04Z",
        "specimen": {
          "reference": "urn:uuid:fd943c04-d391-477b-8ad3-af24abb28139"
        }
      }
    },
    {
      "fullUrl": "urn:uuid:040b3399-e7b4-4b55-8574-9532282e3288",
      "resource": {
        "resourceType": "Observation",
        "id": "040b3399-e7b4-4b55-8574-9532282e3288",
        "meta": {
          "profile": [
            "http://hl7.eu/fhir/laboratory/StructureDefinition/Observation-resultslab-eu-lab"
          ]
        },
        "performer": [
          {
            "display": "The Central European Lab"
          }
        ],
        "category": [
          {
            "coding": [
              {
                "system": "http://terminology.hl7.org/CodeSystem/observation-category",
                "code": "laboratory"
              }
            ]
          }
        ],
        "code": {
          "coding": [
            {
              "code": "20565-8",
              "system": "http://loinc.org",
              "display": "Carbon dioxide, total [Moles/volume] in Blood"
            }
          ],
          "text": "Carbon dioxide, total [Moles/volume] in Blood"
        },
        "valueQuantity": {
          "system": "http://unitsofmeasure.org",
          "value": 25.8,
          "unit": "mmol/L",
          "code": "mmol/L"
        },
        "referenceRange": [
          {
            "low": {
              "value": 22,
              "code": "mmol/L",
              "system": "http://unitsofmeasure.org"
            }
          },
          {
            "high": {
              "value": 29,
              "code": "mmol/L",
              "system": "http://unitsofmeasure.org"
            }
          }
        ],
        "text": {
          "status": "generated",
          "div": "<div xmlns=\"http://www.w3.org/1999/xhtml\"><table class=\"hl7__eu__lab__report\"><tr><th>Test</th><th>06-Oct-2020</th><th>Reference&#xA0;Range</th><th>Unit</th></tr><tr><td>Carbon dioxide, total [Moles/volume] in Blood</td><td>25.8</td><td>22 - 29</td><td></td><td>mmol/L</td></tr></table></div>"
        },
        "status": "final",
        "subject": {
          "reference": "urn:uuid:abb56509-2d90-4932-bef1-b1e8dcb8aa27",
          "display": "Meaghan Neary"
        },
        "effectiveDateTime": "2020-10-05T22:11:04Z",
        "specimen": {
          "reference": "urn:uuid:fd943c04-d391-477b-8ad3-af24abb28139"
        }
      }
    },
    {
      "fullUrl": "urn:uuid:98b1d25d-d9fc-4b2a-b656-48583cc25c0a",
      "resource": {
        "resourceType": "Device",
        "id": "98b1d25d-d9fc-4b2a-b656-48583cc25c0a",
        "deviceName": [
          {
            "name": "SYNDERAI Synthetic Generator",
            "type": "manufacturer-name"
          }
        ],
        "version": [
          {
            "value": "5.0"
          }
        ],
        "text": {
          "status": "generated",
          "div": "<div xmlns=\"http://www.w3.org/1999/xhtml\">SYNDERAI Synthetic Generator v5.0</div>"
        },
        "status": "active\"",
        "distinctIdentifier": "synderai-generator-50",
        "manufacturer": "SYNDERAI Project"
      }
    },
    {
      "fullUrl": "urn:uuid:81087c7b-dabf-428d-80f4-87267db18533",
      "resource": {
        "resourceType": "Provenance",
        "id": "81087c7b-dabf-428d-80f4-87267db18533",
        "target": [
          {
            "reference": "Patient/abb56509-2d90-4932-bef1-b1e8dcb8aa27"
          },
          {
            "reference": "Bundle/38a2b3c7-8827-46de-a9fb-f267f9177e0a"
          },
          {
            "reference": "Composition/6c8b1203-0e86-4939-96d2-1c2e80aa78d9"
          },
          {
            "reference": "PractitionerRole/bb9837cd-734e-4d04-ad91-2e5e1b0d079d"
          },
          {
            "reference": "Practitioner/2a15e91b-3f96-48e8-ad67-1bab5114b3e1"
          },
          {
            "reference": "PractitionerRole/82c1d600-e115-452a-822a-d1d72df3a3b3"
          },
          {
            "reference": "Organization/514281b0-6dac-4c63-8bb8-2eced930fe7b"
          }
        ],
        "activity": {
          "text": "Synthetic Example Data Generation"
        },
        "policy": [
          "https://synderai.net/synderai-synthetic-data-policy"
        ],
        "agent": [
          {
            "type": {
              "text": "author"
            },
            "who": {
              "reference": "Device/98b1d25d-d9fc-4b2a-b656-48583cc25c0a"
            }
          }
        ],
        "reason": [
          {
            "text": "Interoperability Testing and Training (non-clinical use)"
          }
        ],
        "text": {
          "status": "generated",
          "div": "<div xmlns=\"http://www.w3.org/1999/xhtml\">Provenance for SYNDERAI Synthetic Example Data Resource</div>"
        },
        "recorded": "2020-10-06T00:11:04Z"
      }
    },
    {
      "fullUrl": "urn:uuid:bb9837cd-734e-4d04-ad91-2e5e1b0d079d",
      "resource": {
        "resourceType": "PractitionerRole",
        "id": "bb9837cd-734e-4d04-ad91-2e5e1b0d079d",
        "meta": {
          "profile": [
            "http://hl7.eu/fhir/base/StructureDefinition/practitionerRole-eu"
          ]
        },
        "text": {
          "status": "generated",
          "div": "<div xmlns=\"http://www.w3.org/1999/xhtml\">Laboratory Role Id: bb9837cd-734e-4d04-ad91-2e5e1b0d079d</div>"
        },
        "practitioner": {
          "reference": "urn:uuid:2a15e91b-3f96-48e8-ad67-1bab5114b3e1"
        }
      }
    },
    {
      "fullUrl": "urn:uuid:2a15e91b-3f96-48e8-ad67-1bab5114b3e1",
      "resource": {
        "resourceType": "Practitioner",
        "id": "2a15e91b-3f96-48e8-ad67-1bab5114b3e1",
        "meta": {
          "profile": [
            "http://hl7.eu/fhir/base/StructureDefinition/practitioner-eu"
          ]
        },
        "identifier": [
          {
            "assigner": {
              "display": "HL7 Europe"
            },
            "system": "urn:oid:2.16.840.1.113883.2.51.999",
            "value": "a2a45f46-7fba-48a0-9a28-6ddeef06491e"
          }
        ],
        "name": [
          {
            "prefix": [
              "dr"
            ],
            "given": [
              "Ex"
            ],
            "family": "Ample"
          }
        ],
        "address": [
          {
            "line": [
              "Laboratoire Central Europenne",
              "Boulevard du Jardin Botanique 32"
            ],
            "postalCode": "1000",
            "city": "Brussels",
            "country": "Belgium"
          }
        ],
        "text": {
          "status": "generated",
          "div": "<div xmlns=\"http://www.w3.org/1999/xhtml\">Laboratory: Laboratoire Central Europenne, 1000 Brussels, Belgium</div>"
        }
      }
    }
  ],
  "type": "document",
  "timestamp": "2020-10-06T00:11:04Z"
}
