{
  "resourceType": "Bundle",
  "id": "462af444-6098-412d-b11a-836130389c04",
  "meta": {
    "profile": [
      "http://hl7.eu/fhir/laboratory/StructureDefinition/Bundle-eu-lab"
    ]
  },
  "identifier": {
    "assigner": {
      "display": "HL7 Europe"
    },
    "system": "urn:oid:2.16.840.1.113883.2.51.999",
    "value": "b7a69263-14d4-4d67-a8a2-03013eb781d1"
  },
  "entry": [
    {
      "fullUrl": "urn:uuid:787b91d5-3786-4fc5-81cf-57f454aac83b",
      "resource": {
        "resourceType": "Composition",
        "id": "787b91d5-3786-4fc5-81cf-57f454aac83b",
        "meta": {
          "profile": [
            "http://hl7.eu/fhir/laboratory/StructureDefinition/Composition-eu-lab"
          ]
        },
        "identifier": {
          "assigner": {
            "display": "HL7 Europe"
          },
          "system": "urn:oid:2.16.840.1.113883.2.51.999",
          "value": "8022b37c-580e-413a-b230-6e1acd9bd295"
        },
        "author": [
          {
            "reference": "urn:uuid:26c704db-5aa4-42af-a0fb-eb12b77aa707"
          }
        ],
        "category": [
          {
            "coding": [
              {
                "code": "26436-6",
                "system": "http://loinc.org",
                "display": "Laboratory studies (set)"
              }
            ]
          }
        ],
        "type": {
          "coding": [
            {
              "code": "11502-2",
              "system": "http://loinc.org",
              "display": "Laboratory report"
            }
          ],
          "text": "Laboratory Report"
        },
        "section": [
          {
            "code": {
              "coding": [
                {
                  "code": "26436-6",
                  "system": "http://loinc.org",
                  "display": "Laboratory studies (set)"
                }
              ],
              "text": "Laboratory studies"
            },
            "section": [
              {
                "code": {
                  "coding": [
                    {
                      "code": "$18719-5",
                      "system": "http://loinc.org",
                      "display": "Chemistry studies (set)"
                    }
                  ],
                  "text": "Chemistry"
                },
                "entry": [
                  {
                    "reference": "urn:uuid:5bb4ab64-f87e-4399-9671-851ab5e32d90"
                  },
                  {
                    "reference": "urn:uuid:365c7c80-053e-429e-8950-cb476e337c0b"
                  },
                  {
                    "reference": "urn:uuid:11497730-e041-4be2-83a1-948c4ea55cf9"
                  },
                  {
                    "reference": "urn:uuid:76199e34-2031-4768-aa71-9aedfcce3b38"
                  },
                  {
                    "reference": "urn:uuid:430019ee-4344-4f19-8e3b-811c6f0abe56"
                  },
                  {
                    "reference": "urn:uuid:bbd6c25f-2f4b-44bc-bde9-2ede135b0d34"
                  },
                  {
                    "reference": "urn:uuid:73090f45-fbec-462b-8a59-3886b0184630"
                  },
                  {
                    "reference": "urn:uuid:4962ad60-a8d1-4976-82d9-84bef1a3f683"
                  },
                  {
                    "reference": "urn:uuid:635afa0d-4a01-4338-b357-1a62824843ec"
                  }
                ],
                "text": {
                  "status": "generated",
                  "div": "<div xmlns=\"http://www.w3.org/1999/xhtml\"><h3>Chemistry</h3><table class=\"hl7__eu__lab__report\"><thead><tr><th>Test</th><th>10-DEC-2024</th><th>Reference&#xA0;Range</th><th>Unit</th></tr></thead><tbody><tr><td>Hemoglobin A1c/Hemoglobin.total in Blood</td><td>5.9</td><td>4.5 - 6.4</td><td>%</td></tr><tr><td>Glucose [Mass/volume] in Blood</td><td>72.1</td><td>70 - 140</td><td>mg/dL</td></tr><tr><td>Urea nitrogen [Mass/volume] in Blood</td><td>19.7</td><td>7 - 43</td><td>mg/dL</td></tr><tr><td>Creatinine [Mass/volume] in Blood</td><td>0.7</td><td>0.7 - 1.1</td><td>mg/dL</td></tr><tr><td>Calcium [Mass/volume] in Blood</td><td>9.4</td><td>8.5 - 10.4</td><td>mg/dL</td></tr><tr><td>Sodium [Moles/volume] in Blood</td><td>137.6</td><td>135 - 145</td><td>mmol/L</td></tr><tr><td>Potassium [Moles/volume] in Blood</td><td>4.3</td><td>3.5 - 5.1</td><td>mmol/L</td></tr><tr><td>Chloride [Moles/volume] in Blood</td><td>102.2</td><td>98 - 107</td><td>mmol/L</td></tr><tr><td>Carbon dioxide, total [Moles/volume] in Blood</td><td>28.4</td><td>22 - 32</td><td>mmol/L</td></tr></tbody></table></div>"
                },
                "title": "Chemistry"
              }
            ],
            "title": "Laboratory Report"
          },
          {
            "text": {
              "status": "generated",
              "div": "<div xmlns=\"http://www.w3.org/1999/xhtml\"><h3>Annotation</h3><table class=\"hl7__eu__lab__report\"><tr><th>Conclusion and Recommendations based on this report and previous findings known to us</th></tr><tr><td>All measured parameters are within normal limits for this patient, including glucose metabolism, renal function, and electrolyte balance. No laboratory evidence of acute or chronic metabolic, renal, or electrolyte disturbances is present. Continued routine monitoring is recommended.</td></tr></table></div>"
            },
            "code": {
              "coding": [
                {
                  "system": "http://loinc.org",
                  "code": "48767-8",
                  "display": "Annotation comment"
                }
              ]
            },
            "title": "Annotation comment"
          }
        ],
        "status": "final",
        "subject": {
          "reference": "urn:uuid:a09e0bc7-04ee-4479-9300-64a9e4170412",
          "display": "Louise Köster"
        },
        "date": "2024-12-10T05:02:53Z",
        "title": "Laboratory Report",
        "confidentiality": "N"
      }
    },
    {
      "fullUrl": "urn:uuid:0a78bd5f-7a05-43fa-b3a0-2d2027688e2e",
      "resource": {
        "resourceType": "DiagnosticReport",
        "id": "0a78bd5f-7a05-43fa-b3a0-2d2027688e2e",
        "meta": {
          "profile": [
            "http://hl7.eu/fhir/laboratory/StructureDefinition/DiagnosticReport-eu-lab"
          ]
        },
        "identifier": [
          {
            "assigner": {
              "display": "HL7 Europe"
            },
            "system": "urn:oid:2.16.840.1.113883.2.51.999",
            "value": "154fcbe6-1d56-4579-98cf-cd3fee5cde15"
          }
        ],
        "extension": [
          {
            "url": "http://hl7.org/fhir/5.0/StructureDefinition/extension-DiagnosticReport.composition",
            "valueReference": {
              "reference": "urn:uuid:8022b37c-580e-413a-b230-6e1acd9bd295"
            }
          }
        ],
        "category": [
          {
            "coding": [
              {
                "code": "26436-6",
                "system": "http://loinc.org",
                "display": "Laboratory studies (set)"
              }
            ]
          }
        ],
        "specimen": [
          {
            "reference": "urn:uuid:fb7786b4-41dd-4b55-b203-680889ece036"
          }
        ],
        "result": [
          {
            "reference": "urn:uuid:5bb4ab64-f87e-4399-9671-851ab5e32d90"
          },
          {
            "reference": "urn:uuid:365c7c80-053e-429e-8950-cb476e337c0b"
          },
          {
            "reference": "urn:uuid:11497730-e041-4be2-83a1-948c4ea55cf9"
          },
          {
            "reference": "urn:uuid:76199e34-2031-4768-aa71-9aedfcce3b38"
          },
          {
            "reference": "urn:uuid:430019ee-4344-4f19-8e3b-811c6f0abe56"
          },
          {
            "reference": "urn:uuid:bbd6c25f-2f4b-44bc-bde9-2ede135b0d34"
          },
          {
            "reference": "urn:uuid:73090f45-fbec-462b-8a59-3886b0184630"
          },
          {
            "reference": "urn:uuid:4962ad60-a8d1-4976-82d9-84bef1a3f683"
          },
          {
            "reference": "urn:uuid:635afa0d-4a01-4338-b357-1a62824843ec"
          }
        ],
        "status": "registered",
        "code": {
          "coding": [
            {
              "code": "11502-2",
              "system": "http://loinc.org",
              "display": "Laboratory report"
            }
          ]
        },
        "subject": {
          "reference": "urn:uuid:a09e0bc7-04ee-4479-9300-64a9e4170412",
          "display": "Louise Köster"
        }
      }
    },
    {
      "fullUrl": "urn:uuid:a09e0bc7-04ee-4479-9300-64a9e4170412",
      "resource": {
        "resourceType": "Patient",
        "id": "a09e0bc7-04ee-4479-9300-64a9e4170412",
        "meta": {
          "security": [
            {
              "system": "http://terminology.hl7.org/CodeSystem/v3-ActReason",
              "code": "HTEST"
            },
            {
              "system": "http://terminology.hl7.org/CodeSystem/v3-ActReason",
              "code": "TRAIN"
            }
          ],
          "tag": [
            {
              "system": "https://synderai.net/fhir/CodeSystem/tags",
              "code": "synthetic",
              "display": "SYNDERAI Synthetic data"
            }
          ],
          "profile": [
            "http://hl7.eu/fhir/base/StructureDefinition/patient-eu-core"
          ]
        },
        "identifier": [
          {
            "type": {
              "coding": [
                {
                  "code": "PT",
                  "system": "http://terminology.hl7.org/CodeSystem/v2-0203"
                }
              ]
            },
            "system": "http://ec.europa.eu/identifier/eci",
            "value": "1053-167357-1"
          },
          {
            "type": {
              "coding": [
                {
                  "code": "MR",
                  "system": "http://terminology.hl7.org/CodeSystem/v2-0203"
                }
              ]
            },
            "system": "http://local.setting.eu/identifier",
            "value": "706b1a23-528f-0ed7-639f-1dc54e8ecc5d"
          }
        ],
        "name": [
          {
            "family": "Köster"
          },
          {
            "given": [
              "Louise"
            ]
          },
          {
            "text": "Louise Köster"
          }
        ],
        "address": [
          {
            "line": [
              "Regina-Butte-Ring 737"
            ],
            "use": "home",
            "type": "physical",
            "postalCode": "88348",
            "city": "Saulgau",
            "country": "Germany"
          }
        ],
        "telecom": [
          {
            "system": "phone",
            "value": "+49(0)2075293938"
          }
        ],
        "extension": [
          {
            "url": "http://hl7.org/fhir/StructureDefinition/patient-nationality",
            "valueCodeableConcept": {
              "coding": [
                {
                  "code": "DE",
                  "system": "http://hl7.org/fhir/ValueSet/country"
                }
              ]
            }
          }
        ],
        "text": {
          "status": "generated",
          "div": "<div xmlns=\"http://www.w3.org/1999/xhtml\"><table class=\"hl7__ips\"><tr><td>Louise Köster</td><td>female</td><td>01-Jul-1957</td></tr></table></div>"
        },
        "gender": "female",
        "birthDate": "1957-07-01"
      }
    },
    {
      "fullUrl": "urn:uuid:efc4cfba-9d4a-4675-afd7-ba9511fdd935",
      "resource": {
        "resourceType": "ServiceRequest",
        "id": "efc4cfba-9d4a-4675-afd7-ba9511fdd935",
        "meta": {
          "profile": [
            "http://hl7.eu/fhir/laboratory/StructureDefinition/ServiceRequest-eu-lab"
          ]
        },
        "identifier": [
          {
            "system": "http://example.org",
            "value": "0fccec3a-241c-4ad0-ab4c-a0b331682b85"
          }
        ],
        "specimen": [
          {
            "reference": "urn:uuid:fb7786b4-41dd-4b55-b203-680889ece036"
          }
        ],
        "reasonCode": [
          {
            "coding": [
              {
                "code": "15777000",
                "system": "http://snomed.info/sct",
                "display": "Prediabetes"
              }
            ]
          },
          {
            "coding": [
              {
                "code": "237602007",
                "system": "http://snomed.info/sct",
                "display": "Metabolic syndrome X"
              }
            ]
          },
          {
            "coding": [
              {
                "code": "414545008",
                "system": "http://snomed.info/sct",
                "display": "Ischemic heart disease"
              }
            ]
          },
          {
            "coding": [
              {
                "code": "59621000",
                "system": "http://snomed.info/sct",
                "display": "Essential hypertension"
              }
            ]
          }
        ],
        "status": "active",
        "intent": "order",
        "code": {
          "coding": [
            {
              "code": "108252007",
              "system": "http://snomed.info/sct",
              "display": "Laboratory procedure"
            }
          ]
        },
        "subject": {
          "reference": "urn:uuid:a09e0bc7-04ee-4479-9300-64a9e4170412",
          "display": "Louise Köster"
        },
        "requester": {
          "reference": "urn:uuid:1b746575-6370-449d-a2f8-9dc02b2e8076"
        }
      }
    },
    {
      "fullUrl": "urn:uuid:1b746575-6370-449d-a2f8-9dc02b2e8076",
      "resource": {
        "resourceType": "PractitionerRole",
        "id": "1b746575-6370-449d-a2f8-9dc02b2e8076",
        "meta": {
          "profile": [
            "http://hl7.eu/fhir/base/StructureDefinition/practitionerRole-eu"
          ]
        },
        "text": {
          "status": "generated",
          "div": "<div xmlns=\"http://www.w3.org/1999/xhtml\">Provider Role Id: 1b746575-6370-449d-a2f8-9dc02b2e8076</div>"
        },
        "organization": {
          "reference": "urn:uuid:91ae1b10-63dc-47af-ab7e-748051dd08a8"
        }
      }
    },
    {
      "fullUrl": "urn:uuid:91ae1b10-63dc-47af-ab7e-748051dd08a8",
      "resource": {
        "resourceType": "Organization",
        "id": "91ae1b10-63dc-47af-ab7e-748051dd08a8",
        "meta": {
          "profile": [
            "http://hl7.eu/fhir/base/StructureDefinition/organization-eu"
          ]
        },
        "identifier": [
          {
            "assigner": {
              "display": "HL7 Europe"
            },
            "system": "urn:oid:2.16.840.1.113883.2.51.999",
            "value": "526c6f39-4f49-4f15-a64b-075717d5e59d"
          }
        ],
        "address": [
          {
            "line": [
              "Am Schönen Moos 7"
            ],
            "city": "Bad Saulgau",
            "postalCode": "88348",
            "country": "Germany"
          }
        ],
        "text": {
          "status": "generated",
          "div": "<div xmlns=\"http://www.w3.org/1999/xhtml\">Provider Organization: Klinik am schönen Moos</div>"
        },
        "name": "Klinik am schönen Moos"
      }
    },
    {
      "fullUrl": "urn:uuid:fb7786b4-41dd-4b55-b203-680889ece036",
      "resource": {
        "resourceType": "Specimen",
        "id": "fb7786b4-41dd-4b55-b203-680889ece036",
        "meta": {
          "profile": [
            "http://hl7.eu/fhir/laboratory/StructureDefinition/Specimen-eu-lab"
          ]
        },
        "collection": {
          "collectedDateTime": "2024-12-10"
        },
        "text": {
          "status": "generated",
          "div": "<div xmlns=\"http://www.w3.org/1999/xhtml\"><table class=\"hl7__eu__lab__report\"><tr><th>Specimen</th><th>Collection Date</th></tr><tr><td>Whole blood specimen (specimen)</td><td><span class=\"nb\">10-Dec-2024</span></td></tr></table></div>"
        },
        "type": {
          "coding": [
            {
              "code": "258580003",
              "system": "http://snomed.info/sct",
              "display": "Whole blood specimen (specimen)"
            }
          ]
        }
      }
    },
    {
      "fullUrl": "urn:uuid:5bb4ab64-f87e-4399-9671-851ab5e32d90",
      "resource": {
        "resourceType": "Observation",
        "id": "5bb4ab64-f87e-4399-9671-851ab5e32d90",
        "meta": {
          "profile": [
            "http://hl7.eu/fhir/laboratory/StructureDefinition/Observation-resultslab-eu-lab"
          ]
        },
        "performer": [
          {
            "display": "The Central European Lab"
          }
        ],
        "category": [
          {
            "coding": [
              {
                "system": "http://terminology.hl7.org/CodeSystem/observation-category",
                "code": "laboratory"
              }
            ]
          }
        ],
        "code": {
          "coding": [
            {
              "code": "4548-4",
              "system": "http://loinc.org",
              "display": "Hemoglobin A1c/Hemoglobin.total in Blood"
            }
          ],
          "text": "Hemoglobin A1c/Hemoglobin.total in Blood"
        },
        "valueQuantity": {
          "system": "http://unitsofmeasure.org",
          "value": 5.9,
          "unit": "%",
          "code": "%"
        },
        "referenceRange": [
          {
            "low": {
              "value": 4.5,
              "code": "%",
              "system": "http://unitsofmeasure.org"
            }
          },
          {
            "high": {
              "value": 6.4,
              "code": "%",
              "system": "http://unitsofmeasure.org"
            }
          }
        ],
        "text": {
          "status": "generated",
          "div": "<div xmlns=\"http://www.w3.org/1999/xhtml\"><table class=\"hl7__eu__lab__report\"><tr><th>Test</th><th>10-Dec-2024</th><th>Reference&#xA0;Range</th><th>Unit</th></tr><tr><td>Hemoglobin A1c/Hemoglobin.total in Blood</td><td>5.9</td><td>4.5 - 6.4</td><td></td><td>%</td></tr></table></div>"
        },
        "status": "final",
        "subject": {
          "reference": "urn:uuid:a09e0bc7-04ee-4479-9300-64a9e4170412",
          "display": "Louise Köster"
        },
        "effectiveDateTime": "2024-12-10T04:02:53Z",
        "specimen": {
          "reference": "urn:uuid:fb7786b4-41dd-4b55-b203-680889ece036"
        }
      }
    },
    {
      "fullUrl": "urn:uuid:365c7c80-053e-429e-8950-cb476e337c0b",
      "resource": {
        "resourceType": "Observation",
        "id": "365c7c80-053e-429e-8950-cb476e337c0b",
        "meta": {
          "profile": [
            "http://hl7.eu/fhir/laboratory/StructureDefinition/Observation-resultslab-eu-lab"
          ]
        },
        "performer": [
          {
            "display": "The Central European Lab"
          }
        ],
        "category": [
          {
            "coding": [
              {
                "system": "http://terminology.hl7.org/CodeSystem/observation-category",
                "code": "laboratory"
              }
            ]
          }
        ],
        "code": {
          "coding": [
            {
              "code": "2339-0",
              "system": "http://loinc.org",
              "display": "Glucose [Mass/volume] in Blood"
            }
          ],
          "text": "Glucose [Mass/volume] in Blood"
        },
        "valueQuantity": {
          "system": "http://unitsofmeasure.org",
          "value": 72.1,
          "unit": "mg/dL",
          "code": "mg/dL"
        },
        "referenceRange": [
          {
            "low": {
              "value": 70,
              "code": "mg/dL",
              "system": "http://unitsofmeasure.org"
            }
          },
          {
            "high": {
              "value": 140,
              "code": "mg/dL",
              "system": "http://unitsofmeasure.org"
            }
          }
        ],
        "text": {
          "status": "generated",
          "div": "<div xmlns=\"http://www.w3.org/1999/xhtml\"><table class=\"hl7__eu__lab__report\"><tr><th>Test</th><th>10-Dec-2024</th><th>Reference&#xA0;Range</th><th>Unit</th></tr><tr><td>Glucose [Mass/volume] in Blood</td><td>72.1</td><td>70 - 140</td><td></td><td>mg/dL</td></tr></table></div>"
        },
        "status": "final",
        "subject": {
          "reference": "urn:uuid:a09e0bc7-04ee-4479-9300-64a9e4170412",
          "display": "Louise Köster"
        },
        "effectiveDateTime": "2024-12-10T04:02:53Z",
        "specimen": {
          "reference": "urn:uuid:fb7786b4-41dd-4b55-b203-680889ece036"
        }
      }
    },
    {
      "fullUrl": "urn:uuid:11497730-e041-4be2-83a1-948c4ea55cf9",
      "resource": {
        "resourceType": "Observation",
        "id": "11497730-e041-4be2-83a1-948c4ea55cf9",
        "meta": {
          "profile": [
            "http://hl7.eu/fhir/laboratory/StructureDefinition/Observation-resultslab-eu-lab"
          ]
        },
        "performer": [
          {
            "display": "The Central European Lab"
          }
        ],
        "category": [
          {
            "coding": [
              {
                "system": "http://terminology.hl7.org/CodeSystem/observation-category",
                "code": "laboratory"
              }
            ]
          }
        ],
        "code": {
          "coding": [
            {
              "code": "6299-2",
              "system": "http://loinc.org",
              "display": "Urea nitrogen [Mass/volume] in Blood"
            }
          ],
          "text": "Urea nitrogen [Mass/volume] in Blood"
        },
        "valueQuantity": {
          "system": "http://unitsofmeasure.org",
          "value": 19.7,
          "unit": "mg/dL",
          "code": "mg/dL"
        },
        "referenceRange": [
          {
            "low": {
              "value": 7,
              "code": "mg/dL",
              "system": "http://unitsofmeasure.org"
            }
          },
          {
            "high": {
              "value": 43,
              "code": "mg/dL",
              "system": "http://unitsofmeasure.org"
            }
          }
        ],
        "text": {
          "status": "generated",
          "div": "<div xmlns=\"http://www.w3.org/1999/xhtml\"><table class=\"hl7__eu__lab__report\"><tr><th>Test</th><th>10-Dec-2024</th><th>Reference&#xA0;Range</th><th>Unit</th></tr><tr><td>Urea nitrogen [Mass/volume] in Blood</td><td>19.7</td><td>7 - 43</td><td></td><td>mg/dL</td></tr></table></div>"
        },
        "status": "final",
        "subject": {
          "reference": "urn:uuid:a09e0bc7-04ee-4479-9300-64a9e4170412",
          "display": "Louise Köster"
        },
        "effectiveDateTime": "2024-12-10T04:02:53Z",
        "specimen": {
          "reference": "urn:uuid:fb7786b4-41dd-4b55-b203-680889ece036"
        }
      }
    },
    {
      "fullUrl": "urn:uuid:76199e34-2031-4768-aa71-9aedfcce3b38",
      "resource": {
        "resourceType": "Observation",
        "id": "76199e34-2031-4768-aa71-9aedfcce3b38",
        "meta": {
          "profile": [
            "http://hl7.eu/fhir/laboratory/StructureDefinition/Observation-resultslab-eu-lab"
          ]
        },
        "performer": [
          {
            "display": "The Central European Lab"
          }
        ],
        "category": [
          {
            "coding": [
              {
                "system": "http://terminology.hl7.org/CodeSystem/observation-category",
                "code": "laboratory"
              }
            ]
          }
        ],
        "code": {
          "coding": [
            {
              "code": "38483-4",
              "system": "http://loinc.org",
              "display": "Creatinine [Mass/volume] in Blood"
            }
          ],
          "text": "Creatinine [Mass/volume] in Blood"
        },
        "valueQuantity": {
          "system": "http://unitsofmeasure.org",
          "value": 0.7,
          "unit": "mg/dL",
          "code": "mg/dL"
        },
        "referenceRange": [
          {
            "low": {
              "value": 0.7,
              "code": "mg/dL",
              "system": "http://unitsofmeasure.org"
            }
          },
          {
            "high": {
              "value": 1.1,
              "code": "mg/dL",
              "system": "http://unitsofmeasure.org"
            }
          }
        ],
        "text": {
          "status": "generated",
          "div": "<div xmlns=\"http://www.w3.org/1999/xhtml\"><table class=\"hl7__eu__lab__report\"><tr><th>Test</th><th>10-Dec-2024</th><th>Reference&#xA0;Range</th><th>Unit</th></tr><tr><td>Creatinine [Mass/volume] in Blood</td><td>0.7</td><td>0.7 - 1.1</td><td></td><td>mg/dL</td></tr></table></div>"
        },
        "status": "final",
        "subject": {
          "reference": "urn:uuid:a09e0bc7-04ee-4479-9300-64a9e4170412",
          "display": "Louise Köster"
        },
        "effectiveDateTime": "2024-12-10T04:02:53Z",
        "specimen": {
          "reference": "urn:uuid:fb7786b4-41dd-4b55-b203-680889ece036"
        }
      }
    },
    {
      "fullUrl": "urn:uuid:430019ee-4344-4f19-8e3b-811c6f0abe56",
      "resource": {
        "resourceType": "Observation",
        "id": "430019ee-4344-4f19-8e3b-811c6f0abe56",
        "meta": {
          "profile": [
            "http://hl7.eu/fhir/laboratory/StructureDefinition/Observation-resultslab-eu-lab"
          ]
        },
        "performer": [
          {
            "display": "The Central European Lab"
          }
        ],
        "category": [
          {
            "coding": [
              {
                "system": "http://terminology.hl7.org/CodeSystem/observation-category",
                "code": "laboratory"
              }
            ]
          }
        ],
        "code": {
          "coding": [
            {
              "code": "49765-1",
              "system": "http://loinc.org",
              "display": "Calcium [Mass/volume] in Blood"
            }
          ],
          "text": "Calcium [Mass/volume] in Blood"
        },
        "valueQuantity": {
          "system": "http://unitsofmeasure.org",
          "value": 9.4,
          "unit": "mg/dL",
          "code": "mg/dL"
        },
        "referenceRange": [
          {
            "low": {
              "value": 8.5,
              "code": "mg/dL",
              "system": "http://unitsofmeasure.org"
            }
          },
          {
            "high": {
              "value": 10.4,
              "code": "mg/dL",
              "system": "http://unitsofmeasure.org"
            }
          }
        ],
        "text": {
          "status": "generated",
          "div": "<div xmlns=\"http://www.w3.org/1999/xhtml\"><table class=\"hl7__eu__lab__report\"><tr><th>Test</th><th>10-Dec-2024</th><th>Reference&#xA0;Range</th><th>Unit</th></tr><tr><td>Calcium [Mass/volume] in Blood</td><td>9.4</td><td>8.5 - 10.4</td><td></td><td>mg/dL</td></tr></table></div>"
        },
        "status": "final",
        "subject": {
          "reference": "urn:uuid:a09e0bc7-04ee-4479-9300-64a9e4170412",
          "display": "Louise Köster"
        },
        "effectiveDateTime": "2024-12-10T04:02:53Z",
        "specimen": {
          "reference": "urn:uuid:fb7786b4-41dd-4b55-b203-680889ece036"
        }
      }
    },
    {
      "fullUrl": "urn:uuid:bbd6c25f-2f4b-44bc-bde9-2ede135b0d34",
      "resource": {
        "resourceType": "Observation",
        "id": "bbd6c25f-2f4b-44bc-bde9-2ede135b0d34",
        "meta": {
          "profile": [
            "http://hl7.eu/fhir/laboratory/StructureDefinition/Observation-resultslab-eu-lab"
          ]
        },
        "performer": [
          {
            "display": "The Central European Lab"
          }
        ],
        "category": [
          {
            "coding": [
              {
                "system": "http://terminology.hl7.org/CodeSystem/observation-category",
                "code": "laboratory"
              }
            ]
          }
        ],
        "code": {
          "coding": [
            {
              "code": "2947-0",
              "system": "http://loinc.org",
              "display": "Sodium [Moles/volume] in Blood"
            }
          ],
          "text": "Sodium [Moles/volume] in Blood"
        },
        "valueQuantity": {
          "system": "http://unitsofmeasure.org",
          "value": 137.6,
          "unit": "mmol/L",
          "code": "mmol/L"
        },
        "referenceRange": [
          {
            "low": {
              "value": 135,
              "code": "mmol/L",
              "system": "http://unitsofmeasure.org"
            }
          },
          {
            "high": {
              "value": 145,
              "code": "mmol/L",
              "system": "http://unitsofmeasure.org"
            }
          }
        ],
        "text": {
          "status": "generated",
          "div": "<div xmlns=\"http://www.w3.org/1999/xhtml\"><table class=\"hl7__eu__lab__report\"><tr><th>Test</th><th>10-Dec-2024</th><th>Reference&#xA0;Range</th><th>Unit</th></tr><tr><td>Sodium [Moles/volume] in Blood</td><td>137.6</td><td>135 - 145</td><td></td><td>mmol/L</td></tr></table></div>"
        },
        "status": "final",
        "subject": {
          "reference": "urn:uuid:a09e0bc7-04ee-4479-9300-64a9e4170412",
          "display": "Louise Köster"
        },
        "effectiveDateTime": "2024-12-10T04:02:53Z",
        "specimen": {
          "reference": "urn:uuid:fb7786b4-41dd-4b55-b203-680889ece036"
        }
      }
    },
    {
      "fullUrl": "urn:uuid:73090f45-fbec-462b-8a59-3886b0184630",
      "resource": {
        "resourceType": "Observation",
        "id": "73090f45-fbec-462b-8a59-3886b0184630",
        "meta": {
          "profile": [
            "http://hl7.eu/fhir/laboratory/StructureDefinition/Observation-resultslab-eu-lab"
          ]
        },
        "performer": [
          {
            "display": "The Central European Lab"
          }
        ],
        "category": [
          {
            "coding": [
              {
                "system": "http://terminology.hl7.org/CodeSystem/observation-category",
                "code": "laboratory"
              }
            ]
          }
        ],
        "code": {
          "coding": [
            {
              "code": "6298-4",
              "system": "http://loinc.org",
              "display": "Potassium [Moles/volume] in Blood"
            }
          ],
          "text": "Potassium [Moles/volume] in Blood"
        },
        "valueQuantity": {
          "system": "http://unitsofmeasure.org",
          "value": 4.3,
          "unit": "mmol/L",
          "code": "mmol/L"
        },
        "referenceRange": [
          {
            "low": {
              "value": 3.5,
              "code": "mmol/L",
              "system": "http://unitsofmeasure.org"
            }
          },
          {
            "high": {
              "value": 5.1,
              "code": "mmol/L",
              "system": "http://unitsofmeasure.org"
            }
          }
        ],
        "text": {
          "status": "generated",
          "div": "<div xmlns=\"http://www.w3.org/1999/xhtml\"><table class=\"hl7__eu__lab__report\"><tr><th>Test</th><th>10-Dec-2024</th><th>Reference&#xA0;Range</th><th>Unit</th></tr><tr><td>Potassium [Moles/volume] in Blood</td><td>4.3</td><td>3.5 - 5.1</td><td></td><td>mmol/L</td></tr></table></div>"
        },
        "status": "final",
        "subject": {
          "reference": "urn:uuid:a09e0bc7-04ee-4479-9300-64a9e4170412",
          "display": "Louise Köster"
        },
        "effectiveDateTime": "2024-12-10T04:02:53Z",
        "specimen": {
          "reference": "urn:uuid:fb7786b4-41dd-4b55-b203-680889ece036"
        }
      }
    },
    {
      "fullUrl": "urn:uuid:4962ad60-a8d1-4976-82d9-84bef1a3f683",
      "resource": {
        "resourceType": "Observation",
        "id": "4962ad60-a8d1-4976-82d9-84bef1a3f683",
        "meta": {
          "profile": [
            "http://hl7.eu/fhir/laboratory/StructureDefinition/Observation-resultslab-eu-lab"
          ]
        },
        "performer": [
          {
            "display": "The Central European Lab"
          }
        ],
        "category": [
          {
            "coding": [
              {
                "system": "http://terminology.hl7.org/CodeSystem/observation-category",
                "code": "laboratory"
              }
            ]
          }
        ],
        "code": {
          "coding": [
            {
              "code": "2069-3",
              "system": "http://loinc.org",
              "display": "Chloride [Moles/volume] in Blood"
            }
          ],
          "text": "Chloride [Moles/volume] in Blood"
        },
        "valueQuantity": {
          "system": "http://unitsofmeasure.org",
          "value": 102.2,
          "unit": "mmol/L",
          "code": "mmol/L"
        },
        "referenceRange": [
          {
            "low": {
              "value": 98,
              "code": "mmol/L",
              "system": "http://unitsofmeasure.org"
            }
          },
          {
            "high": {
              "value": 107,
              "code": "mmol/L",
              "system": "http://unitsofmeasure.org"
            }
          }
        ],
        "text": {
          "status": "generated",
          "div": "<div xmlns=\"http://www.w3.org/1999/xhtml\"><table class=\"hl7__eu__lab__report\"><tr><th>Test</th><th>10-Dec-2024</th><th>Reference&#xA0;Range</th><th>Unit</th></tr><tr><td>Chloride [Moles/volume] in Blood</td><td>102.2</td><td>98 - 107</td><td></td><td>mmol/L</td></tr></table></div>"
        },
        "status": "final",
        "subject": {
          "reference": "urn:uuid:a09e0bc7-04ee-4479-9300-64a9e4170412",
          "display": "Louise Köster"
        },
        "effectiveDateTime": "2024-12-10T04:02:53Z",
        "specimen": {
          "reference": "urn:uuid:fb7786b4-41dd-4b55-b203-680889ece036"
        }
      }
    },
    {
      "fullUrl": "urn:uuid:635afa0d-4a01-4338-b357-1a62824843ec",
      "resource": {
        "resourceType": "Observation",
        "id": "635afa0d-4a01-4338-b357-1a62824843ec",
        "meta": {
          "profile": [
            "http://hl7.eu/fhir/laboratory/StructureDefinition/Observation-resultslab-eu-lab"
          ]
        },
        "performer": [
          {
            "display": "The Central European Lab"
          }
        ],
        "category": [
          {
            "coding": [
              {
                "system": "http://terminology.hl7.org/CodeSystem/observation-category",
                "code": "laboratory"
              }
            ]
          }
        ],
        "code": {
          "coding": [
            {
              "code": "20565-8",
              "system": "http://loinc.org",
              "display": "Carbon dioxide, total [Moles/volume] in Blood"
            }
          ],
          "text": "Carbon dioxide, total [Moles/volume] in Blood"
        },
        "valueQuantity": {
          "system": "http://unitsofmeasure.org",
          "value": 28.4,
          "unit": "mmol/L",
          "code": "mmol/L"
        },
        "referenceRange": [
          {
            "low": {
              "value": 22,
              "code": "mmol/L",
              "system": "http://unitsofmeasure.org"
            }
          },
          {
            "high": {
              "value": 32,
              "code": "mmol/L",
              "system": "http://unitsofmeasure.org"
            }
          }
        ],
        "text": {
          "status": "generated",
          "div": "<div xmlns=\"http://www.w3.org/1999/xhtml\"><table class=\"hl7__eu__lab__report\"><tr><th>Test</th><th>10-Dec-2024</th><th>Reference&#xA0;Range</th><th>Unit</th></tr><tr><td>Carbon dioxide, total [Moles/volume] in Blood</td><td>28.4</td><td>22 - 32</td><td></td><td>mmol/L</td></tr></table></div>"
        },
        "status": "final",
        "subject": {
          "reference": "urn:uuid:a09e0bc7-04ee-4479-9300-64a9e4170412",
          "display": "Louise Köster"
        },
        "effectiveDateTime": "2024-12-10T04:02:53Z",
        "specimen": {
          "reference": "urn:uuid:fb7786b4-41dd-4b55-b203-680889ece036"
        }
      }
    },
    {
      "fullUrl": "urn:uuid:e62c7257-a2a2-401a-9ac9-ef7508ba4076",
      "resource": {
        "resourceType": "Device",
        "id": "e62c7257-a2a2-401a-9ac9-ef7508ba4076",
        "deviceName": [
          {
            "name": "SYNDERAI Synthetic Generator",
            "type": "manufacturer-name"
          }
        ],
        "version": [
          {
            "value": "5.0"
          }
        ],
        "text": {
          "status": "generated",
          "div": "<div xmlns=\"http://www.w3.org/1999/xhtml\">SYNDERAI Synthetic Generator v5.0</div>"
        },
        "status": "active\"",
        "distinctIdentifier": "synderai-generator-50",
        "manufacturer": "SYNDERAI Project"
      }
    },
    {
      "fullUrl": "urn:uuid:15941256-f10f-447e-aaef-682e8ae84312",
      "resource": {
        "resourceType": "Provenance",
        "id": "15941256-f10f-447e-aaef-682e8ae84312",
        "target": [
          {
            "reference": "Patient/a09e0bc7-04ee-4479-9300-64a9e4170412"
          },
          {
            "reference": "Bundle/462af444-6098-412d-b11a-836130389c04"
          },
          {
            "reference": "Composition/787b91d5-3786-4fc5-81cf-57f454aac83b"
          },
          {
            "reference": "PractitionerRole/26c704db-5aa4-42af-a0fb-eb12b77aa707"
          },
          {
            "reference": "Practitioner/4a26b336-f656-48cc-a263-9e659e816561"
          },
          {
            "reference": "PractitionerRole/1b746575-6370-449d-a2f8-9dc02b2e8076"
          },
          {
            "reference": "Organization/91ae1b10-63dc-47af-ab7e-748051dd08a8"
          }
        ],
        "activity": {
          "text": "Synthetic Example Data Generation"
        },
        "policy": [
          "https://synderai.net/synderai-synthetic-data-policy"
        ],
        "agent": [
          {
            "type": {
              "text": "author"
            },
            "who": {
              "reference": "Device/e62c7257-a2a2-401a-9ac9-ef7508ba4076"
            }
          }
        ],
        "reason": [
          {
            "text": "Interoperability Testing and Training (non-clinical use)"
          }
        ],
        "text": {
          "status": "generated",
          "div": "<div xmlns=\"http://www.w3.org/1999/xhtml\">Provenance for SYNDERAI Synthetic Example Data Resource</div>"
        },
        "recorded": "2024-12-10T05:02:53Z"
      }
    },
    {
      "fullUrl": "urn:uuid:26c704db-5aa4-42af-a0fb-eb12b77aa707",
      "resource": {
        "resourceType": "PractitionerRole",
        "id": "26c704db-5aa4-42af-a0fb-eb12b77aa707",
        "meta": {
          "profile": [
            "http://hl7.eu/fhir/base/StructureDefinition/practitionerRole-eu"
          ]
        },
        "text": {
          "status": "generated",
          "div": "<div xmlns=\"http://www.w3.org/1999/xhtml\">Laboratory Role Id: 26c704db-5aa4-42af-a0fb-eb12b77aa707</div>"
        },
        "practitioner": {
          "reference": "urn:uuid:4a26b336-f656-48cc-a263-9e659e816561"
        }
      }
    },
    {
      "fullUrl": "urn:uuid:4a26b336-f656-48cc-a263-9e659e816561",
      "resource": {
        "resourceType": "Practitioner",
        "id": "4a26b336-f656-48cc-a263-9e659e816561",
        "meta": {
          "profile": [
            "http://hl7.eu/fhir/base/StructureDefinition/practitioner-eu"
          ]
        },
        "identifier": [
          {
            "assigner": {
              "display": "HL7 Europe"
            },
            "system": "urn:oid:2.16.840.1.113883.2.51.999",
            "value": "d1a82717-cca9-4a63-ae4f-09931502221b"
          }
        ],
        "name": [
          {
            "prefix": [
              "dr"
            ],
            "given": [
              "Ex"
            ],
            "family": "Ample"
          }
        ],
        "address": [
          {
            "line": [
              "Laboratoire Central Européenne",
              "Boulevard du Jardin Botanique 32"
            ],
            "postalCode": "1000",
            "city": "Brussels",
            "country": "Belgium"
          }
        ],
        "text": {
          "status": "generated",
          "div": "<div xmlns=\"http://www.w3.org/1999/xhtml\">Laboratory: Laboratoire Central Européenne, 1000 Brussels, Belgium</div>"
        }
      }
    }
  ],
  "type": "document",
  "timestamp": "2024-12-10T05:02:53Z"
}
