{
  "resourceType": "Bundle",
  "id": "885a0511-7bb7-44f4-83ab-7fd084b788b4",
  "meta": {
    "profile": [
      "http://hl7.eu/fhir/laboratory/StructureDefinition/Bundle-eu-lab"
    ]
  },
  "identifier": {
    "assigner": {
      "display": "HL7 Europe"
    },
    "system": "urn:oid:2.16.840.1.113883.2.51.999",
    "value": "09058ff3-3858-4763-b70b-dd8819c85990"
  },
  "entry": [
    {
      "fullUrl": "urn:uuid:f13ea1f0-1b47-44cb-8944-2dbf326d041e",
      "resource": {
        "resourceType": "Composition",
        "id": "f13ea1f0-1b47-44cb-8944-2dbf326d041e",
        "meta": {
          "profile": [
            "http://hl7.eu/fhir/laboratory/StructureDefinition/Composition-eu-lab"
          ]
        },
        "identifier": {
          "assigner": {
            "display": "HL7 Europe"
          },
          "system": "urn:oid:2.16.840.1.113883.2.51.999",
          "value": "c9e9f9ec-15b2-4559-9abd-3c99e54f831d"
        },
        "author": [
          {
            "reference": "urn:uuid:ae2e9b66-2fca-4376-ace6-bd4dcde37fef"
          }
        ],
        "category": [
          {
            "coding": [
              {
                "code": "26436-6",
                "system": "http://loinc.org",
                "display": "Laboratory studies (set)"
              }
            ]
          }
        ],
        "type": {
          "coding": [
            {
              "code": "11502-2",
              "system": "http://loinc.org",
              "display": "Laboratory report"
            }
          ],
          "text": "Laboratory Report"
        },
        "section": [
          {
            "code": {
              "coding": [
                {
                  "code": "26436-6",
                  "system": "http://loinc.org",
                  "display": "Laboratory studies (set)"
                }
              ],
              "text": "Laboratory studies"
            },
            "section": [
              {
                "code": {
                  "coding": [
                    {
                      "code": "$18723-7",
                      "system": "http://loinc.org",
                      "display": "Hematology studies (set)"
                    }
                  ],
                  "text": "Hematology"
                },
                "entry": [
                  {
                    "reference": "urn:uuid:dd93fabe-425b-407c-a384-b37a50a8d605"
                  },
                  {
                    "reference": "urn:uuid:481bdaaf-5901-432b-a357-263c47e03cc9"
                  },
                  {
                    "reference": "urn:uuid:1fb171eb-a598-4992-9a91-ab7758f6fa4c"
                  },
                  {
                    "reference": "urn:uuid:ee1207be-2359-4a39-a4e3-b35758bc915d"
                  },
                  {
                    "reference": "urn:uuid:6a6fbd6e-0823-4d11-b865-7980915020fc"
                  },
                  {
                    "reference": "urn:uuid:86c408ad-6208-4780-b2c5-7f0136856bd4"
                  },
                  {
                    "reference": "urn:uuid:1c477a13-55e4-4eb2-a0eb-bbf22fbac3c4"
                  },
                  {
                    "reference": "urn:uuid:f48c4464-db43-44a0-a82a-1e905cc15e10"
                  },
                  {
                    "reference": "urn:uuid:91279f11-eaf9-483b-b3a8-76cd7d3875a4"
                  },
                  {
                    "reference": "urn:uuid:e7392aef-9ef9-4054-bc51-dc1c2c159b11"
                  },
                  {
                    "reference": "urn:uuid:da05fc0e-8a30-4810-b961-adefcfaa3f0f"
                  }
                ],
                "text": {
                  "status": "generated",
                  "div": "<div xmlns=\"http://www.w3.org/1999/xhtml\"><h3>Hematology</h3><table class=\"hl7__eu__lab__report\"><thead><tr><th>Test</th><th>10-DEC-2019</th><th>Reference&#xA0;Range</th><th>Unit</th></tr></thead><tbody><tr><td>Leukocytes [#/volume] in Blood by Automated count</td><td>6.5</td><td>3.4 - 10.6</td><td>10*3/uL</td></tr><tr><td>Erythrocytes [#/volume] in Blood by Automated count</td><td><strong>4.1 L</strong></td><td>4.2 - 5.2</td><td>10*6/uL</td></tr><tr><td>Hemoglobin [Mass/volume] in Blood</td><td><strong>16.8 H</strong></td><td>12 - 16</td><td>g/dL</td></tr><tr><td>Hematocrit [Volume Fraction] of Blood by Automated count</td><td><strong>46.6 H</strong></td><td>37 - 46</td><td>%</td></tr><tr><td>MCV [Entitic volume] by Automated count</td><td>92.3</td><td>80 - 105</td><td>fL</td></tr><tr><td>MCH [Entitic mass] by Automated count</td><td>30.1</td><td>27 - 34</td><td>pg</td></tr><tr><td>MCHC [Mass/volume] by Automated count</td><td>34.1</td><td>31 - 35</td><td>g/dL</td></tr><tr><td>Erythrocyte distribution width [Entitic volume] by Automated count</td><td>40.2</td><td>36 - 46</td><td>fL</td></tr><tr><td>Platelets [#/volume] in Blood by Automated count</td><td>260.2</td><td>150 - 415</td><td>10*3/uL</td></tr><tr><td>Platelet distribution width [Entitic volume] in Blood by Automated count</td><td><strong>494.1 H</strong></td><td>11.6 - 17.4</td><td>fL</td></tr><tr><td>Platelet mean volume [Entitic volume] in Blood by Automated count</td><td>9.8</td><td>7.2 - 13.8</td><td>fL</td></tr></tbody></table></div>"
                },
                "title": "Hematology"
              },
              {
                "code": {
                  "coding": [
                    {
                      "code": "$18719-5",
                      "system": "http://loinc.org",
                      "display": "Chemistry studies (set)"
                    }
                  ],
                  "text": "Chemistry"
                },
                "entry": [
                  {
                    "reference": "urn:uuid:94380919-8831-45a4-b121-9d0822a57ac9"
                  },
                  {
                    "reference": "urn:uuid:b76d92d3-587f-47e2-a1d4-76afb3e4fb3a"
                  },
                  {
                    "reference": "urn:uuid:32413e65-5049-4167-9133-666c59742f47"
                  },
                  {
                    "reference": "urn:uuid:ce49a178-a675-4a1e-867d-e90867f9a6c5"
                  },
                  {
                    "reference": "urn:uuid:f7be8cd5-891b-4685-8fb1-8c93c9b212d4"
                  },
                  {
                    "reference": "urn:uuid:6222968b-9780-4483-8403-df870c0967be"
                  },
                  {
                    "reference": "urn:uuid:bd0846bb-ac39-4b57-b4ad-d49887acc76f"
                  },
                  {
                    "reference": "urn:uuid:1a52fda5-bb6a-45f0-bd19-5e8a067bbd8a"
                  },
                  {
                    "reference": "urn:uuid:29edcdd6-cd96-4265-a000-04cba74162ca"
                  },
                  {
                    "reference": "urn:uuid:e20d01bc-249b-4046-884e-76ce2f9f2b26"
                  },
                  {
                    "reference": "urn:uuid:d622ef96-e3d1-4733-aa63-7def4ccd1520"
                  },
                  {
                    "reference": "urn:uuid:a214a68d-fbbc-4dc7-8f23-afb8f7f3f9b7"
                  },
                  {
                    "reference": "urn:uuid:7152fd9f-c774-4ef2-ba1f-47b532d031ca"
                  }
                ],
                "text": {
                  "status": "generated",
                  "div": "<div xmlns=\"http://www.w3.org/1999/xhtml\"><h3>Chemistry</h3><table class=\"hl7__eu__lab__report\"><thead><tr><th>Test</th><th>10-DEC-2019</th><th>Reference&#xA0;Range</th><th>Unit</th></tr></thead><tbody><tr><td>Hemoglobin A1c/Hemoglobin.total in Blood</td><td><strong>6.0 H</strong></td><td>4.8 - 5.7</td><td>%</td></tr><tr><td>Glucose [Mass/volume] in Blood</td><td>72.1</td><td>70 - 99</td><td>mg/dL</td></tr><tr><td>Urea nitrogen [Mass/volume] in Blood</td><td>11.0</td><td>7 - 20</td><td>mg/dL</td></tr><tr><td>Creatinine [Mass/volume] in Blood</td><td>0.8</td><td>0.6 - 1.1</td><td>mg/dL</td></tr><tr><td>Calcium [Mass/volume] in Blood</td><td>9.4</td><td>8.5 - 10.5</td><td>mg/dL</td></tr><tr><td>Sodium [Moles/volume] in Blood</td><td>139.4</td><td>135 - 145</td><td>mmol/L</td></tr><tr><td>Potassium [Moles/volume] in Blood</td><td>3.7</td><td>3.5 - 5.3</td><td>mmol/L</td></tr><tr><td>Chloride [Moles/volume] in Blood</td><td>103.0</td><td>98 - 114</td><td>mmol/L</td></tr><tr><td>Carbon dioxide, total [Moles/volume] in Blood</td><td>23.8</td><td>22 - 29</td><td>mmol/L</td></tr><tr><td>Cholesterol [Mass/volume] in Serum or Plasma</td><td>190.1</td><td>125 - 200</td><td>mg/dL</td></tr><tr><td>Triglyceride [Mass/volume] in Serum or Plasma</td><td>124.0</td><td>35 - 150</td><td>mg/dL</td></tr><tr><td>Cholesterol in LDL [Mass/volume] in Serum or Plasma by Direct assay</td><td>115.4</td><td>0 - 130</td><td>mg/dL</td></tr><tr><td>Cholesterol in HDL [Mass/volume] in Serum or Plasma</td><td>49.9</td><td>40 - 60</td><td>mg/dL</td></tr></tbody></table></div>"
                },
                "title": "Chemistry"
              }
            ],
            "title": "Laboratory Report"
          },
          {
            "text": {
              "status": "generated",
              "div": "<div xmlns=\"http://www.w3.org/1999/xhtml\"><h3>Annotation</h3><table class=\"hl7__eu__lab__report\"><tr><th>Conclusion and Recommendations based on this report and previous findings known to us</th></tr><tr><td>The patient shows mildly elevated HbA1c, suggesting impaired glucose metabolism or prediabetes, despite normal fasting glucose. Hemoglobin and hematocrit are slightly elevated, while erythrocyte count is just below normal, possibly indicating hemoconcentration or early erythrocytosis. Platelet distribution width is markedly high, which may reflect platelet anisocytosis but with normal platelet count. Lipid profile and other parameters are within normal limits. Clinical correlation is recommended.</td></tr></table></div>"
            },
            "code": {
              "coding": [
                {
                  "system": "http://loinc.org",
                  "code": "48767-8",
                  "display": "Annotation comment"
                }
              ]
            },
            "title": "Annotation comment"
          }
        ],
        "status": "final",
        "subject": {
          "reference": "urn:uuid:595d0954-be5f-4939-a809-2d79a3e4de72",
          "display": "Aniela Sacharczuk"
        },
        "date": "2019-12-10T06:26:59Z",
        "title": "Laboratory Report",
        "confidentiality": "N"
      }
    },
    {
      "fullUrl": "urn:uuid:095eb758-e47b-4b4f-a21a-52cb554f4839",
      "resource": {
        "resourceType": "DiagnosticReport",
        "id": "095eb758-e47b-4b4f-a21a-52cb554f4839",
        "meta": {
          "profile": [
            "http://hl7.eu/fhir/laboratory/StructureDefinition/DiagnosticReport-eu-lab"
          ]
        },
        "identifier": [
          {
            "assigner": {
              "display": "HL7 Europe"
            },
            "system": "urn:oid:2.16.840.1.113883.2.51.999",
            "value": "ff06590f-69ce-4a96-9c17-14cd7ace5101"
          }
        ],
        "extension": [
          {
            "url": "http://hl7.org/fhir/5.0/StructureDefinition/extension-DiagnosticReport.composition",
            "valueReference": {
              "reference": "urn:uuid:c9e9f9ec-15b2-4559-9abd-3c99e54f831d"
            }
          }
        ],
        "category": [
          {
            "coding": [
              {
                "code": "26436-6",
                "system": "http://loinc.org",
                "display": "Laboratory studies (set)"
              }
            ]
          }
        ],
        "specimen": [
          {
            "reference": "urn:uuid:b158833f-437d-4516-808a-58b6ab56ea89"
          },
          {
            "reference": "urn:uuid:acabef12-fcd9-466e-8e1d-28b187b2833f"
          },
          {
            "reference": "urn:uuid:b158833f-437d-4516-808a-58b6ab56ea89"
          }
        ],
        "result": [
          {
            "reference": "urn:uuid:94380919-8831-45a4-b121-9d0822a57ac9"
          },
          {
            "reference": "urn:uuid:b76d92d3-587f-47e2-a1d4-76afb3e4fb3a"
          },
          {
            "reference": "urn:uuid:32413e65-5049-4167-9133-666c59742f47"
          },
          {
            "reference": "urn:uuid:ce49a178-a675-4a1e-867d-e90867f9a6c5"
          },
          {
            "reference": "urn:uuid:f7be8cd5-891b-4685-8fb1-8c93c9b212d4"
          },
          {
            "reference": "urn:uuid:6222968b-9780-4483-8403-df870c0967be"
          },
          {
            "reference": "urn:uuid:bd0846bb-ac39-4b57-b4ad-d49887acc76f"
          },
          {
            "reference": "urn:uuid:1a52fda5-bb6a-45f0-bd19-5e8a067bbd8a"
          },
          {
            "reference": "urn:uuid:29edcdd6-cd96-4265-a000-04cba74162ca"
          },
          {
            "reference": "urn:uuid:e20d01bc-249b-4046-884e-76ce2f9f2b26"
          },
          {
            "reference": "urn:uuid:d622ef96-e3d1-4733-aa63-7def4ccd1520"
          },
          {
            "reference": "urn:uuid:a214a68d-fbbc-4dc7-8f23-afb8f7f3f9b7"
          },
          {
            "reference": "urn:uuid:7152fd9f-c774-4ef2-ba1f-47b532d031ca"
          },
          {
            "reference": "urn:uuid:dd93fabe-425b-407c-a384-b37a50a8d605"
          },
          {
            "reference": "urn:uuid:481bdaaf-5901-432b-a357-263c47e03cc9"
          },
          {
            "reference": "urn:uuid:1fb171eb-a598-4992-9a91-ab7758f6fa4c"
          },
          {
            "reference": "urn:uuid:ee1207be-2359-4a39-a4e3-b35758bc915d"
          },
          {
            "reference": "urn:uuid:6a6fbd6e-0823-4d11-b865-7980915020fc"
          },
          {
            "reference": "urn:uuid:86c408ad-6208-4780-b2c5-7f0136856bd4"
          },
          {
            "reference": "urn:uuid:1c477a13-55e4-4eb2-a0eb-bbf22fbac3c4"
          },
          {
            "reference": "urn:uuid:f48c4464-db43-44a0-a82a-1e905cc15e10"
          },
          {
            "reference": "urn:uuid:91279f11-eaf9-483b-b3a8-76cd7d3875a4"
          },
          {
            "reference": "urn:uuid:e7392aef-9ef9-4054-bc51-dc1c2c159b11"
          },
          {
            "reference": "urn:uuid:da05fc0e-8a30-4810-b961-adefcfaa3f0f"
          }
        ],
        "status": "registered",
        "code": {
          "coding": [
            {
              "code": "11502-2",
              "system": "http://loinc.org",
              "display": "Laboratory report"
            }
          ]
        },
        "subject": {
          "reference": "urn:uuid:595d0954-be5f-4939-a809-2d79a3e4de72",
          "display": "Aniela Sacharczuk"
        }
      }
    },
    {
      "fullUrl": "urn:uuid:595d0954-be5f-4939-a809-2d79a3e4de72",
      "resource": {
        "resourceType": "Patient",
        "id": "595d0954-be5f-4939-a809-2d79a3e4de72",
        "meta": {
          "security": [
            {
              "system": "http://terminology.hl7.org/CodeSystem/v3-ActReason",
              "code": "HTEST"
            },
            {
              "system": "http://terminology.hl7.org/CodeSystem/v3-ActReason",
              "code": "TRAIN"
            }
          ],
          "tag": [
            {
              "system": "https://synderai.net/fhir/CodeSystem/tags",
              "code": "synthetic",
              "display": "SYNDERAI Synthetic data"
            }
          ],
          "profile": [
            "http://hl7.eu/fhir/base/StructureDefinition/patient-eu-core"
          ]
        },
        "identifier": [
          {
            "type": {
              "coding": [
                {
                  "code": "PT",
                  "system": "http://terminology.hl7.org/CodeSystem/v2-0203"
                }
              ]
            },
            "system": "http://ec.europa.eu/identifier/eci",
            "value": "3843-787162-7"
          },
          {
            "type": {
              "coding": [
                {
                  "code": "MR",
                  "system": "http://terminology.hl7.org/CodeSystem/v2-0203"
                }
              ]
            },
            "system": "http://local.setting.eu/identifier",
            "value": "cd2e7aac-e2c0-8306-b862-9ed4c443c8b5"
          }
        ],
        "name": [
          {
            "family": "Sacharczuk"
          },
          {
            "given": [
              "Aniela"
            ]
          },
          {
            "text": "Aniela Sacharczuk"
          }
        ],
        "address": [
          {
            "line": [
              "plac Szpitalna 13"
            ],
            "use": "home",
            "type": "physical",
            "postalCode": "27-600",
            "city": "Sandomierz",
            "country": "Poland"
          }
        ],
        "telecom": [
          {
            "system": "phone",
            "value": "+48 536 227 035"
          }
        ],
        "extension": [
          {
            "url": "http://hl7.org/fhir/StructureDefinition/patient-nationality",
            "valueCodeableConcept": {
              "coding": [
                {
                  "code": "PL",
                  "system": "http://hl7.org/fhir/ValueSet/country"
                }
              ]
            }
          }
        ],
        "text": {
          "status": "generated",
          "div": "<div xmlns=\"http://www.w3.org/1999/xhtml\"><table class=\"hl7__ips\"><tr><td>Aniela Sacharczuk</td><td>female</td><td>02-Nov-1970</td></tr></table></div>"
        },
        "gender": "female",
        "birthDate": "1970-11-02"
      }
    },
    {
      "fullUrl": "urn:uuid:f75b5c17-7f88-4109-a021-7ee533be3c0b",
      "resource": {
        "resourceType": "ServiceRequest",
        "id": "f75b5c17-7f88-4109-a021-7ee533be3c0b",
        "meta": {
          "profile": [
            "http://hl7.eu/fhir/laboratory/StructureDefinition/ServiceRequest-eu-lab"
          ]
        },
        "identifier": [
          {
            "system": "http://example.org",
            "value": "ab0fc44d-90b4-42d9-b828-613d5adb2c04"
          }
        ],
        "specimen": [
          {
            "reference": "urn:uuid:b158833f-437d-4516-808a-58b6ab56ea89"
          },
          {
            "reference": "urn:uuid:acabef12-fcd9-466e-8e1d-28b187b2833f"
          }
        ],
        "reasonCode": [
          {
            "coding": [
              {
                "code": "237602007",
                "system": "http://snomed.info/sct",
                "display": "Metabolic syndrome X"
              }
            ]
          },
          {
            "coding": [
              {
                "code": "15777000",
                "system": "http://snomed.info/sct",
                "display": "Prediabetes"
              }
            ]
          },
          {
            "coding": [
              {
                "code": "59621000",
                "system": "http://snomed.info/sct",
                "display": "Essential hypertension"
              }
            ]
          }
        ],
        "status": "active",
        "intent": "order",
        "code": {
          "coding": [
            {
              "code": "108252007",
              "system": "http://snomed.info/sct",
              "display": "Laboratory procedure"
            }
          ]
        },
        "subject": {
          "reference": "urn:uuid:595d0954-be5f-4939-a809-2d79a3e4de72",
          "display": "Aniela Sacharczuk"
        },
        "requester": {
          "reference": "urn:uuid:ef6b8b56-319c-477f-b84c-321168cc2573"
        }
      }
    },
    {
      "fullUrl": "urn:uuid:ef6b8b56-319c-477f-b84c-321168cc2573",
      "resource": {
        "resourceType": "PractitionerRole",
        "id": "ef6b8b56-319c-477f-b84c-321168cc2573",
        "meta": {
          "profile": [
            "http://hl7.eu/fhir/base/StructureDefinition/practitionerRole-eu"
          ]
        },
        "text": {
          "status": "generated",
          "div": "<div xmlns=\"http://www.w3.org/1999/xhtml\">Provider Role Id: ef6b8b56-319c-477f-b84c-321168cc2573</div>"
        },
        "organization": {
          "reference": "urn:uuid:3b0df38a-2402-46d7-b938-e62945e424f1"
        }
      }
    },
    {
      "fullUrl": "urn:uuid:3b0df38a-2402-46d7-b938-e62945e424f1",
      "resource": {
        "resourceType": "Organization",
        "id": "3b0df38a-2402-46d7-b938-e62945e424f1",
        "meta": {
          "profile": [
            "http://hl7.eu/fhir/base/StructureDefinition/organization-eu"
          ]
        },
        "identifier": [
          {
            "assigner": {
              "display": "HL7 Europe"
            },
            "system": "urn:oid:2.16.840.1.113883.2.51.999",
            "value": "4a047350-0f6e-40bd-984d-72da0ae6a4d6"
          }
        ],
        "address": [
          {
            "line": [
              "Józefa Piłsudskiego 17"
            ],
            "city": "Gorzyce",
            "postalCode": "39-432",
            "country": "Poland"
          }
        ],
        "text": {
          "status": "generated",
          "div": "<div xmlns=\"http://www.w3.org/1999/xhtml\">Provider Organization: Ośrodek Zdrowia</div>"
        },
        "name": "Ośrodek Zdrowia"
      }
    },
    {
      "fullUrl": "urn:uuid:b158833f-437d-4516-808a-58b6ab56ea89",
      "resource": {
        "resourceType": "Specimen",
        "id": "b158833f-437d-4516-808a-58b6ab56ea89",
        "meta": {
          "profile": [
            "http://hl7.eu/fhir/laboratory/StructureDefinition/Specimen-eu-lab"
          ]
        },
        "collection": {
          "collectedDateTime": "2019-12-10"
        },
        "text": {
          "status": "generated",
          "div": "<div xmlns=\"http://www.w3.org/1999/xhtml\"><table class=\"hl7__eu__lab__report\"><tr><th>Specimen</th><th>Collection Date</th></tr><tr><td>Whole blood specimen (specimen)</td><td><span class=\"nb\">10-Dec-2019</span></td></tr></table></div>"
        },
        "type": {
          "coding": [
            {
              "code": "258580003",
              "system": "http://snomed.info/sct",
              "display": "Whole blood specimen (specimen)"
            }
          ]
        }
      }
    },
    {
      "fullUrl": "urn:uuid:acabef12-fcd9-466e-8e1d-28b187b2833f",
      "resource": {
        "resourceType": "Specimen",
        "id": "acabef12-fcd9-466e-8e1d-28b187b2833f",
        "meta": {
          "profile": [
            "http://hl7.eu/fhir/laboratory/StructureDefinition/Specimen-eu-lab"
          ]
        },
        "collection": {
          "collectedDateTime": "2019-12-10"
        },
        "text": {
          "status": "generated",
          "div": "<div xmlns=\"http://www.w3.org/1999/xhtml\"><table class=\"hl7__eu__lab__report\"><tr><th>Specimen</th><th>Collection Date</th></tr><tr><td>Acellular blood (serum or plasma) specimen</td><td><span class=\"nb\">10-Dec-2019</span></td></tr></table></div>"
        },
        "type": {
          "coding": [
            {
              "code": "122592007",
              "system": "http://snomed.info/sct",
              "display": "Acellular blood (serum or plasma) specimen"
            }
          ]
        }
      }
    },
    {
      "fullUrl": "urn:uuid:b158833f-437d-4516-808a-58b6ab56ea89",
      "resource": {
        "resourceType": "Specimen",
        "id": "b158833f-437d-4516-808a-58b6ab56ea89",
        "meta": {
          "profile": [
            "http://hl7.eu/fhir/laboratory/StructureDefinition/Specimen-eu-lab"
          ]
        },
        "collection": {
          "collectedDateTime": "2019-12-10"
        },
        "text": {
          "status": "generated",
          "div": "<div xmlns=\"http://www.w3.org/1999/xhtml\"><table class=\"hl7__eu__lab__report\"><tr><th>Specimen</th><th>Collection Date</th></tr><tr><td>Whole blood specimen (specimen)</td><td><span class=\"nb\">10-Dec-2019</span></td></tr></table></div>"
        },
        "type": {
          "coding": [
            {
              "code": "258580003",
              "system": "http://snomed.info/sct",
              "display": "Whole blood specimen (specimen)"
            }
          ]
        }
      }
    },
    {
      "fullUrl": "urn:uuid:94380919-8831-45a4-b121-9d0822a57ac9",
      "resource": {
        "resourceType": "Observation",
        "id": "94380919-8831-45a4-b121-9d0822a57ac9",
        "meta": {
          "profile": [
            "http://hl7.eu/fhir/laboratory/StructureDefinition/Observation-resultslab-eu-lab"
          ]
        },
        "performer": [
          {
            "display": "The Central European Lab"
          }
        ],
        "category": [
          {
            "coding": [
              {
                "system": "http://terminology.hl7.org/CodeSystem/observation-category",
                "code": "laboratory"
              }
            ]
          }
        ],
        "code": {
          "coding": [
            {
              "code": "4548-4",
              "system": "http://loinc.org",
              "display": "Hemoglobin A1c/Hemoglobin.total in Blood"
            }
          ],
          "text": "Hemoglobin A1c/Hemoglobin.total in Blood"
        },
        "valueQuantity": {
          "system": "http://unitsofmeasure.org",
          "value": 6,
          "unit": "%",
          "code": "%"
        },
        "referenceRange": [
          {
            "low": {
              "value": 4.8,
              "code": "%",
              "system": "http://unitsofmeasure.org"
            }
          },
          {
            "high": {
              "value": 5.7,
              "code": "%",
              "system": "http://unitsofmeasure.org"
            }
          }
        ],
        "interpretation": [
          {
            "coding": [
              {
                "code": "H",
                "system": "http://terminology.hl7.org/CodeSystem/v3-ObservationInterpretation",
                "display": "High"
              }
            ]
          }
        ],
        "text": {
          "status": "generated",
          "div": "<div xmlns=\"http://www.w3.org/1999/xhtml\"><table class=\"hl7__eu__lab__report\"><tr><th>Test</th><th>10-Dec-2019</th><th>Reference&#xA0;Range</th><th>Unit</th></tr><tr><td>Hemoglobin A1c/Hemoglobin.total in Blood</td><td>6.0</td><td>4.8 - 5.7</td><td>H</td><td>%</td></tr></table></div>"
        },
        "status": "final",
        "subject": {
          "reference": "urn:uuid:595d0954-be5f-4939-a809-2d79a3e4de72",
          "display": "Aniela Sacharczuk"
        },
        "effectiveDateTime": "2019-12-10T05:26:59Z",
        "specimen": {
          "reference": "urn:uuid:b158833f-437d-4516-808a-58b6ab56ea89"
        }
      }
    },
    {
      "fullUrl": "urn:uuid:b76d92d3-587f-47e2-a1d4-76afb3e4fb3a",
      "resource": {
        "resourceType": "Observation",
        "id": "b76d92d3-587f-47e2-a1d4-76afb3e4fb3a",
        "meta": {
          "profile": [
            "http://hl7.eu/fhir/laboratory/StructureDefinition/Observation-resultslab-eu-lab"
          ]
        },
        "performer": [
          {
            "display": "The Central European Lab"
          }
        ],
        "category": [
          {
            "coding": [
              {
                "system": "http://terminology.hl7.org/CodeSystem/observation-category",
                "code": "laboratory"
              }
            ]
          }
        ],
        "code": {
          "coding": [
            {
              "code": "2339-0",
              "system": "http://loinc.org",
              "display": "Glucose [Mass/volume] in Blood"
            }
          ],
          "text": "Glucose [Mass/volume] in Blood"
        },
        "valueQuantity": {
          "system": "http://unitsofmeasure.org",
          "value": 72.1,
          "unit": "mg/dL",
          "code": "mg/dL"
        },
        "referenceRange": [
          {
            "low": {
              "value": 70,
              "code": "mg/dL",
              "system": "http://unitsofmeasure.org"
            }
          },
          {
            "high": {
              "value": 99,
              "code": "mg/dL",
              "system": "http://unitsofmeasure.org"
            }
          }
        ],
        "text": {
          "status": "generated",
          "div": "<div xmlns=\"http://www.w3.org/1999/xhtml\"><table class=\"hl7__eu__lab__report\"><tr><th>Test</th><th>10-Dec-2019</th><th>Reference&#xA0;Range</th><th>Unit</th></tr><tr><td>Glucose [Mass/volume] in Blood</td><td>72.1</td><td>70 - 99</td><td></td><td>mg/dL</td></tr></table></div>"
        },
        "status": "final",
        "subject": {
          "reference": "urn:uuid:595d0954-be5f-4939-a809-2d79a3e4de72",
          "display": "Aniela Sacharczuk"
        },
        "effectiveDateTime": "2019-12-10T05:26:59Z",
        "specimen": {
          "reference": "urn:uuid:b158833f-437d-4516-808a-58b6ab56ea89"
        }
      }
    },
    {
      "fullUrl": "urn:uuid:32413e65-5049-4167-9133-666c59742f47",
      "resource": {
        "resourceType": "Observation",
        "id": "32413e65-5049-4167-9133-666c59742f47",
        "meta": {
          "profile": [
            "http://hl7.eu/fhir/laboratory/StructureDefinition/Observation-resultslab-eu-lab"
          ]
        },
        "performer": [
          {
            "display": "The Central European Lab"
          }
        ],
        "category": [
          {
            "coding": [
              {
                "system": "http://terminology.hl7.org/CodeSystem/observation-category",
                "code": "laboratory"
              }
            ]
          }
        ],
        "code": {
          "coding": [
            {
              "code": "6299-2",
              "system": "http://loinc.org",
              "display": "Urea nitrogen [Mass/volume] in Blood"
            }
          ],
          "text": "Urea nitrogen [Mass/volume] in Blood"
        },
        "valueQuantity": {
          "system": "http://unitsofmeasure.org",
          "value": 11,
          "unit": "mg/dL",
          "code": "mg/dL"
        },
        "referenceRange": [
          {
            "low": {
              "value": 7,
              "code": "mg/dL",
              "system": "http://unitsofmeasure.org"
            }
          },
          {
            "high": {
              "value": 20,
              "code": "mg/dL",
              "system": "http://unitsofmeasure.org"
            }
          }
        ],
        "text": {
          "status": "generated",
          "div": "<div xmlns=\"http://www.w3.org/1999/xhtml\"><table class=\"hl7__eu__lab__report\"><tr><th>Test</th><th>10-Dec-2019</th><th>Reference&#xA0;Range</th><th>Unit</th></tr><tr><td>Urea nitrogen [Mass/volume] in Blood</td><td>11.0</td><td>7 - 20</td><td></td><td>mg/dL</td></tr></table></div>"
        },
        "status": "final",
        "subject": {
          "reference": "urn:uuid:595d0954-be5f-4939-a809-2d79a3e4de72",
          "display": "Aniela Sacharczuk"
        },
        "effectiveDateTime": "2019-12-10T05:26:59Z",
        "specimen": {
          "reference": "urn:uuid:b158833f-437d-4516-808a-58b6ab56ea89"
        }
      }
    },
    {
      "fullUrl": "urn:uuid:ce49a178-a675-4a1e-867d-e90867f9a6c5",
      "resource": {
        "resourceType": "Observation",
        "id": "ce49a178-a675-4a1e-867d-e90867f9a6c5",
        "meta": {
          "profile": [
            "http://hl7.eu/fhir/laboratory/StructureDefinition/Observation-resultslab-eu-lab"
          ]
        },
        "performer": [
          {
            "display": "The Central European Lab"
          }
        ],
        "category": [
          {
            "coding": [
              {
                "system": "http://terminology.hl7.org/CodeSystem/observation-category",
                "code": "laboratory"
              }
            ]
          }
        ],
        "code": {
          "coding": [
            {
              "code": "38483-4",
              "system": "http://loinc.org",
              "display": "Creatinine [Mass/volume] in Blood"
            }
          ],
          "text": "Creatinine [Mass/volume] in Blood"
        },
        "valueQuantity": {
          "system": "http://unitsofmeasure.org",
          "value": 0.8,
          "unit": "mg/dL",
          "code": "mg/dL"
        },
        "referenceRange": [
          {
            "low": {
              "value": 0.6,
              "code": "mg/dL",
              "system": "http://unitsofmeasure.org"
            }
          },
          {
            "high": {
              "value": 1.1,
              "code": "mg/dL",
              "system": "http://unitsofmeasure.org"
            }
          }
        ],
        "text": {
          "status": "generated",
          "div": "<div xmlns=\"http://www.w3.org/1999/xhtml\"><table class=\"hl7__eu__lab__report\"><tr><th>Test</th><th>10-Dec-2019</th><th>Reference&#xA0;Range</th><th>Unit</th></tr><tr><td>Creatinine [Mass/volume] in Blood</td><td>0.8</td><td>0.6 - 1.1</td><td></td><td>mg/dL</td></tr></table></div>"
        },
        "status": "final",
        "subject": {
          "reference": "urn:uuid:595d0954-be5f-4939-a809-2d79a3e4de72",
          "display": "Aniela Sacharczuk"
        },
        "effectiveDateTime": "2019-12-10T05:26:59Z",
        "specimen": {
          "reference": "urn:uuid:b158833f-437d-4516-808a-58b6ab56ea89"
        }
      }
    },
    {
      "fullUrl": "urn:uuid:f7be8cd5-891b-4685-8fb1-8c93c9b212d4",
      "resource": {
        "resourceType": "Observation",
        "id": "f7be8cd5-891b-4685-8fb1-8c93c9b212d4",
        "meta": {
          "profile": [
            "http://hl7.eu/fhir/laboratory/StructureDefinition/Observation-resultslab-eu-lab"
          ]
        },
        "performer": [
          {
            "display": "The Central European Lab"
          }
        ],
        "category": [
          {
            "coding": [
              {
                "system": "http://terminology.hl7.org/CodeSystem/observation-category",
                "code": "laboratory"
              }
            ]
          }
        ],
        "code": {
          "coding": [
            {
              "code": "49765-1",
              "system": "http://loinc.org",
              "display": "Calcium [Mass/volume] in Blood"
            }
          ],
          "text": "Calcium [Mass/volume] in Blood"
        },
        "valueQuantity": {
          "system": "http://unitsofmeasure.org",
          "value": 9.4,
          "unit": "mg/dL",
          "code": "mg/dL"
        },
        "referenceRange": [
          {
            "low": {
              "value": 8.5,
              "code": "mg/dL",
              "system": "http://unitsofmeasure.org"
            }
          },
          {
            "high": {
              "value": 10.5,
              "code": "mg/dL",
              "system": "http://unitsofmeasure.org"
            }
          }
        ],
        "text": {
          "status": "generated",
          "div": "<div xmlns=\"http://www.w3.org/1999/xhtml\"><table class=\"hl7__eu__lab__report\"><tr><th>Test</th><th>10-Dec-2019</th><th>Reference&#xA0;Range</th><th>Unit</th></tr><tr><td>Calcium [Mass/volume] in Blood</td><td>9.4</td><td>8.5 - 10.5</td><td></td><td>mg/dL</td></tr></table></div>"
        },
        "status": "final",
        "subject": {
          "reference": "urn:uuid:595d0954-be5f-4939-a809-2d79a3e4de72",
          "display": "Aniela Sacharczuk"
        },
        "effectiveDateTime": "2019-12-10T05:26:59Z",
        "specimen": {
          "reference": "urn:uuid:b158833f-437d-4516-808a-58b6ab56ea89"
        }
      }
    },
    {
      "fullUrl": "urn:uuid:6222968b-9780-4483-8403-df870c0967be",
      "resource": {
        "resourceType": "Observation",
        "id": "6222968b-9780-4483-8403-df870c0967be",
        "meta": {
          "profile": [
            "http://hl7.eu/fhir/laboratory/StructureDefinition/Observation-resultslab-eu-lab"
          ]
        },
        "performer": [
          {
            "display": "The Central European Lab"
          }
        ],
        "category": [
          {
            "coding": [
              {
                "system": "http://terminology.hl7.org/CodeSystem/observation-category",
                "code": "laboratory"
              }
            ]
          }
        ],
        "code": {
          "coding": [
            {
              "code": "2947-0",
              "system": "http://loinc.org",
              "display": "Sodium [Moles/volume] in Blood"
            }
          ],
          "text": "Sodium [Moles/volume] in Blood"
        },
        "valueQuantity": {
          "system": "http://unitsofmeasure.org",
          "value": 139.4,
          "unit": "mmol/L",
          "code": "mmol/L"
        },
        "referenceRange": [
          {
            "low": {
              "value": 135,
              "code": "mmol/L",
              "system": "http://unitsofmeasure.org"
            }
          },
          {
            "high": {
              "value": 145,
              "code": "mmol/L",
              "system": "http://unitsofmeasure.org"
            }
          }
        ],
        "text": {
          "status": "generated",
          "div": "<div xmlns=\"http://www.w3.org/1999/xhtml\"><table class=\"hl7__eu__lab__report\"><tr><th>Test</th><th>10-Dec-2019</th><th>Reference&#xA0;Range</th><th>Unit</th></tr><tr><td>Sodium [Moles/volume] in Blood</td><td>139.4</td><td>135 - 145</td><td></td><td>mmol/L</td></tr></table></div>"
        },
        "status": "final",
        "subject": {
          "reference": "urn:uuid:595d0954-be5f-4939-a809-2d79a3e4de72",
          "display": "Aniela Sacharczuk"
        },
        "effectiveDateTime": "2019-12-10T05:26:59Z",
        "specimen": {
          "reference": "urn:uuid:b158833f-437d-4516-808a-58b6ab56ea89"
        }
      }
    },
    {
      "fullUrl": "urn:uuid:bd0846bb-ac39-4b57-b4ad-d49887acc76f",
      "resource": {
        "resourceType": "Observation",
        "id": "bd0846bb-ac39-4b57-b4ad-d49887acc76f",
        "meta": {
          "profile": [
            "http://hl7.eu/fhir/laboratory/StructureDefinition/Observation-resultslab-eu-lab"
          ]
        },
        "performer": [
          {
            "display": "The Central European Lab"
          }
        ],
        "category": [
          {
            "coding": [
              {
                "system": "http://terminology.hl7.org/CodeSystem/observation-category",
                "code": "laboratory"
              }
            ]
          }
        ],
        "code": {
          "coding": [
            {
              "code": "6298-4",
              "system": "http://loinc.org",
              "display": "Potassium [Moles/volume] in Blood"
            }
          ],
          "text": "Potassium [Moles/volume] in Blood"
        },
        "valueQuantity": {
          "system": "http://unitsofmeasure.org",
          "value": 3.7,
          "unit": "mmol/L",
          "code": "mmol/L"
        },
        "referenceRange": [
          {
            "low": {
              "value": 3.5,
              "code": "mmol/L",
              "system": "http://unitsofmeasure.org"
            }
          },
          {
            "high": {
              "value": 5.3,
              "code": "mmol/L",
              "system": "http://unitsofmeasure.org"
            }
          }
        ],
        "text": {
          "status": "generated",
          "div": "<div xmlns=\"http://www.w3.org/1999/xhtml\"><table class=\"hl7__eu__lab__report\"><tr><th>Test</th><th>10-Dec-2019</th><th>Reference&#xA0;Range</th><th>Unit</th></tr><tr><td>Potassium [Moles/volume] in Blood</td><td>3.7</td><td>3.5 - 5.3</td><td></td><td>mmol/L</td></tr></table></div>"
        },
        "status": "final",
        "subject": {
          "reference": "urn:uuid:595d0954-be5f-4939-a809-2d79a3e4de72",
          "display": "Aniela Sacharczuk"
        },
        "effectiveDateTime": "2019-12-10T05:26:59Z",
        "specimen": {
          "reference": "urn:uuid:b158833f-437d-4516-808a-58b6ab56ea89"
        }
      }
    },
    {
      "fullUrl": "urn:uuid:1a52fda5-bb6a-45f0-bd19-5e8a067bbd8a",
      "resource": {
        "resourceType": "Observation",
        "id": "1a52fda5-bb6a-45f0-bd19-5e8a067bbd8a",
        "meta": {
          "profile": [
            "http://hl7.eu/fhir/laboratory/StructureDefinition/Observation-resultslab-eu-lab"
          ]
        },
        "performer": [
          {
            "display": "The Central European Lab"
          }
        ],
        "category": [
          {
            "coding": [
              {
                "system": "http://terminology.hl7.org/CodeSystem/observation-category",
                "code": "laboratory"
              }
            ]
          }
        ],
        "code": {
          "coding": [
            {
              "code": "2069-3",
              "system": "http://loinc.org",
              "display": "Chloride [Moles/volume] in Blood"
            }
          ],
          "text": "Chloride [Moles/volume] in Blood"
        },
        "valueQuantity": {
          "system": "http://unitsofmeasure.org",
          "value": 103,
          "unit": "mmol/L",
          "code": "mmol/L"
        },
        "referenceRange": [
          {
            "low": {
              "value": 98,
              "code": "mmol/L",
              "system": "http://unitsofmeasure.org"
            }
          },
          {
            "high": {
              "value": 114,
              "code": "mmol/L",
              "system": "http://unitsofmeasure.org"
            }
          }
        ],
        "text": {
          "status": "generated",
          "div": "<div xmlns=\"http://www.w3.org/1999/xhtml\"><table class=\"hl7__eu__lab__report\"><tr><th>Test</th><th>10-Dec-2019</th><th>Reference&#xA0;Range</th><th>Unit</th></tr><tr><td>Chloride [Moles/volume] in Blood</td><td>103.0</td><td>98 - 114</td><td></td><td>mmol/L</td></tr></table></div>"
        },
        "status": "final",
        "subject": {
          "reference": "urn:uuid:595d0954-be5f-4939-a809-2d79a3e4de72",
          "display": "Aniela Sacharczuk"
        },
        "effectiveDateTime": "2019-12-10T05:26:59Z",
        "specimen": {
          "reference": "urn:uuid:b158833f-437d-4516-808a-58b6ab56ea89"
        }
      }
    },
    {
      "fullUrl": "urn:uuid:29edcdd6-cd96-4265-a000-04cba74162ca",
      "resource": {
        "resourceType": "Observation",
        "id": "29edcdd6-cd96-4265-a000-04cba74162ca",
        "meta": {
          "profile": [
            "http://hl7.eu/fhir/laboratory/StructureDefinition/Observation-resultslab-eu-lab"
          ]
        },
        "performer": [
          {
            "display": "The Central European Lab"
          }
        ],
        "category": [
          {
            "coding": [
              {
                "system": "http://terminology.hl7.org/CodeSystem/observation-category",
                "code": "laboratory"
              }
            ]
          }
        ],
        "code": {
          "coding": [
            {
              "code": "20565-8",
              "system": "http://loinc.org",
              "display": "Carbon dioxide, total [Moles/volume] in Blood"
            }
          ],
          "text": "Carbon dioxide, total [Moles/volume] in Blood"
        },
        "valueQuantity": {
          "system": "http://unitsofmeasure.org",
          "value": 23.8,
          "unit": "mmol/L",
          "code": "mmol/L"
        },
        "referenceRange": [
          {
            "low": {
              "value": 22,
              "code": "mmol/L",
              "system": "http://unitsofmeasure.org"
            }
          },
          {
            "high": {
              "value": 29,
              "code": "mmol/L",
              "system": "http://unitsofmeasure.org"
            }
          }
        ],
        "text": {
          "status": "generated",
          "div": "<div xmlns=\"http://www.w3.org/1999/xhtml\"><table class=\"hl7__eu__lab__report\"><tr><th>Test</th><th>10-Dec-2019</th><th>Reference&#xA0;Range</th><th>Unit</th></tr><tr><td>Carbon dioxide, total [Moles/volume] in Blood</td><td>23.8</td><td>22 - 29</td><td></td><td>mmol/L</td></tr></table></div>"
        },
        "status": "final",
        "subject": {
          "reference": "urn:uuid:595d0954-be5f-4939-a809-2d79a3e4de72",
          "display": "Aniela Sacharczuk"
        },
        "effectiveDateTime": "2019-12-10T05:26:59Z",
        "specimen": {
          "reference": "urn:uuid:b158833f-437d-4516-808a-58b6ab56ea89"
        }
      }
    },
    {
      "fullUrl": "urn:uuid:e20d01bc-249b-4046-884e-76ce2f9f2b26",
      "resource": {
        "resourceType": "Observation",
        "id": "e20d01bc-249b-4046-884e-76ce2f9f2b26",
        "meta": {
          "profile": [
            "http://hl7.eu/fhir/laboratory/StructureDefinition/Observation-resultslab-eu-lab"
          ]
        },
        "performer": [
          {
            "display": "The Central European Lab"
          }
        ],
        "category": [
          {
            "coding": [
              {
                "system": "http://terminology.hl7.org/CodeSystem/observation-category",
                "code": "laboratory"
              }
            ]
          }
        ],
        "code": {
          "coding": [
            {
              "code": "2093-3",
              "system": "http://loinc.org",
              "display": "Cholesterol [Mass/volume] in Serum or Plasma"
            }
          ],
          "text": "Cholesterol [Mass/volume] in Serum or Plasma"
        },
        "valueQuantity": {
          "system": "http://unitsofmeasure.org",
          "value": 190.1,
          "unit": "mg/dL",
          "code": "mg/dL"
        },
        "referenceRange": [
          {
            "low": {
              "value": 125,
              "code": "mg/dL",
              "system": "http://unitsofmeasure.org"
            }
          },
          {
            "high": {
              "value": 200,
              "code": "mg/dL",
              "system": "http://unitsofmeasure.org"
            }
          }
        ],
        "text": {
          "status": "generated",
          "div": "<div xmlns=\"http://www.w3.org/1999/xhtml\"><table class=\"hl7__eu__lab__report\"><tr><th>Test</th><th>10-Dec-2019</th><th>Reference&#xA0;Range</th><th>Unit</th></tr><tr><td>Cholesterol [Mass/volume] in Serum or Plasma</td><td>190.1</td><td>125 - 200</td><td></td><td>mg/dL</td></tr></table></div>"
        },
        "status": "final",
        "subject": {
          "reference": "urn:uuid:595d0954-be5f-4939-a809-2d79a3e4de72",
          "display": "Aniela Sacharczuk"
        },
        "effectiveDateTime": "2019-12-10T05:26:59Z",
        "specimen": {
          "reference": "urn:uuid:acabef12-fcd9-466e-8e1d-28b187b2833f"
        }
      }
    },
    {
      "fullUrl": "urn:uuid:d622ef96-e3d1-4733-aa63-7def4ccd1520",
      "resource": {
        "resourceType": "Observation",
        "id": "d622ef96-e3d1-4733-aa63-7def4ccd1520",
        "meta": {
          "profile": [
            "http://hl7.eu/fhir/laboratory/StructureDefinition/Observation-resultslab-eu-lab"
          ]
        },
        "performer": [
          {
            "display": "The Central European Lab"
          }
        ],
        "category": [
          {
            "coding": [
              {
                "system": "http://terminology.hl7.org/CodeSystem/observation-category",
                "code": "laboratory"
              }
            ]
          }
        ],
        "code": {
          "coding": [
            {
              "code": "2571-8",
              "system": "http://loinc.org",
              "display": "Triglyceride [Mass/volume] in Serum or Plasma"
            }
          ],
          "text": "Triglyceride [Mass/volume] in Serum or Plasma"
        },
        "valueQuantity": {
          "system": "http://unitsofmeasure.org",
          "value": 124,
          "unit": "mg/dL",
          "code": "mg/dL"
        },
        "referenceRange": [
          {
            "low": {
              "value": 35,
              "code": "mg/dL",
              "system": "http://unitsofmeasure.org"
            }
          },
          {
            "high": {
              "value": 150,
              "code": "mg/dL",
              "system": "http://unitsofmeasure.org"
            }
          }
        ],
        "text": {
          "status": "generated",
          "div": "<div xmlns=\"http://www.w3.org/1999/xhtml\"><table class=\"hl7__eu__lab__report\"><tr><th>Test</th><th>10-Dec-2019</th><th>Reference&#xA0;Range</th><th>Unit</th></tr><tr><td>Triglyceride [Mass/volume] in Serum or Plasma</td><td>124.0</td><td>35 - 150</td><td></td><td>mg/dL</td></tr></table></div>"
        },
        "status": "final",
        "subject": {
          "reference": "urn:uuid:595d0954-be5f-4939-a809-2d79a3e4de72",
          "display": "Aniela Sacharczuk"
        },
        "effectiveDateTime": "2019-12-10T05:26:59Z",
        "specimen": {
          "reference": "urn:uuid:acabef12-fcd9-466e-8e1d-28b187b2833f"
        }
      }
    },
    {
      "fullUrl": "urn:uuid:a214a68d-fbbc-4dc7-8f23-afb8f7f3f9b7",
      "resource": {
        "resourceType": "Observation",
        "id": "a214a68d-fbbc-4dc7-8f23-afb8f7f3f9b7",
        "meta": {
          "profile": [
            "http://hl7.eu/fhir/laboratory/StructureDefinition/Observation-resultslab-eu-lab"
          ]
        },
        "performer": [
          {
            "display": "The Central European Lab"
          }
        ],
        "category": [
          {
            "coding": [
              {
                "system": "http://terminology.hl7.org/CodeSystem/observation-category",
                "code": "laboratory"
              }
            ]
          }
        ],
        "code": {
          "coding": [
            {
              "code": "18262-6",
              "system": "http://loinc.org",
              "display": "Cholesterol in LDL [Mass/volume] in Serum or Plasma by Direct assay"
            }
          ],
          "text": "Cholesterol in LDL [Mass/volume] in Serum or Plasma by Direct assay"
        },
        "valueQuantity": {
          "system": "http://unitsofmeasure.org",
          "value": 115.4,
          "unit": "mg/dL",
          "code": "mg/dL"
        },
        "referenceRange": [
          {
            "low": {
              "value": 0,
              "code": "mg/dL",
              "system": "http://unitsofmeasure.org"
            }
          },
          {
            "high": {
              "value": 130,
              "code": "mg/dL",
              "system": "http://unitsofmeasure.org"
            }
          }
        ],
        "text": {
          "status": "generated",
          "div": "<div xmlns=\"http://www.w3.org/1999/xhtml\"><table class=\"hl7__eu__lab__report\"><tr><th>Test</th><th>10-Dec-2019</th><th>Reference&#xA0;Range</th><th>Unit</th></tr><tr><td>Cholesterol in LDL [Mass/volume] in Serum or Plasma by Direct assay</td><td>115.4</td><td>0 - 130</td><td></td><td>mg/dL</td></tr></table></div>"
        },
        "status": "final",
        "subject": {
          "reference": "urn:uuid:595d0954-be5f-4939-a809-2d79a3e4de72",
          "display": "Aniela Sacharczuk"
        },
        "effectiveDateTime": "2019-12-10T05:26:59Z",
        "specimen": {
          "reference": "urn:uuid:acabef12-fcd9-466e-8e1d-28b187b2833f"
        }
      }
    },
    {
      "fullUrl": "urn:uuid:7152fd9f-c774-4ef2-ba1f-47b532d031ca",
      "resource": {
        "resourceType": "Observation",
        "id": "7152fd9f-c774-4ef2-ba1f-47b532d031ca",
        "meta": {
          "profile": [
            "http://hl7.eu/fhir/laboratory/StructureDefinition/Observation-resultslab-eu-lab"
          ]
        },
        "performer": [
          {
            "display": "The Central European Lab"
          }
        ],
        "category": [
          {
            "coding": [
              {
                "system": "http://terminology.hl7.org/CodeSystem/observation-category",
                "code": "laboratory"
              }
            ]
          }
        ],
        "code": {
          "coding": [
            {
              "code": "2085-9",
              "system": "http://loinc.org",
              "display": "Cholesterol in HDL [Mass/volume] in Serum or Plasma"
            }
          ],
          "text": "Cholesterol in HDL [Mass/volume] in Serum or Plasma"
        },
        "valueQuantity": {
          "system": "http://unitsofmeasure.org",
          "value": 49.9,
          "unit": "mg/dL",
          "code": "mg/dL"
        },
        "referenceRange": [
          {
            "low": {
              "value": 40,
              "code": "mg/dL",
              "system": "http://unitsofmeasure.org"
            }
          },
          {
            "high": {
              "value": 60,
              "code": "mg/dL",
              "system": "http://unitsofmeasure.org"
            }
          }
        ],
        "text": {
          "status": "generated",
          "div": "<div xmlns=\"http://www.w3.org/1999/xhtml\"><table class=\"hl7__eu__lab__report\"><tr><th>Test</th><th>10-Dec-2019</th><th>Reference&#xA0;Range</th><th>Unit</th></tr><tr><td>Cholesterol in HDL [Mass/volume] in Serum or Plasma</td><td>49.9</td><td>40 - 60</td><td></td><td>mg/dL</td></tr></table></div>"
        },
        "status": "final",
        "subject": {
          "reference": "urn:uuid:595d0954-be5f-4939-a809-2d79a3e4de72",
          "display": "Aniela Sacharczuk"
        },
        "effectiveDateTime": "2019-12-10T05:26:59Z",
        "specimen": {
          "reference": "urn:uuid:acabef12-fcd9-466e-8e1d-28b187b2833f"
        }
      }
    },
    {
      "fullUrl": "urn:uuid:dd93fabe-425b-407c-a384-b37a50a8d605",
      "resource": {
        "resourceType": "Observation",
        "id": "dd93fabe-425b-407c-a384-b37a50a8d605",
        "meta": {
          "profile": [
            "http://hl7.eu/fhir/laboratory/StructureDefinition/Observation-resultslab-eu-lab"
          ]
        },
        "performer": [
          {
            "display": "The Central European Lab"
          }
        ],
        "category": [
          {
            "coding": [
              {
                "system": "http://terminology.hl7.org/CodeSystem/observation-category",
                "code": "laboratory"
              }
            ]
          }
        ],
        "code": {
          "coding": [
            {
              "code": "6690-2",
              "system": "http://loinc.org",
              "display": "Leukocytes [#/volume] in Blood by Automated count"
            }
          ],
          "text": "Leukocytes [#/volume] in Blood by Automated count"
        },
        "valueQuantity": {
          "system": "http://unitsofmeasure.org",
          "value": 6.5,
          "unit": "10*3/uL",
          "code": "10*3/uL"
        },
        "referenceRange": [
          {
            "low": {
              "value": 3.4,
              "code": "10*3/uL",
              "system": "http://unitsofmeasure.org"
            }
          },
          {
            "high": {
              "value": 10.6,
              "code": "10*3/uL",
              "system": "http://unitsofmeasure.org"
            }
          }
        ],
        "text": {
          "status": "generated",
          "div": "<div xmlns=\"http://www.w3.org/1999/xhtml\"><table class=\"hl7__eu__lab__report\"><tr><th>Test</th><th>10-Dec-2019</th><th>Reference&#xA0;Range</th><th>Unit</th></tr><tr><td>Leukocytes [#/volume] in Blood by Automated count</td><td>6.5</td><td>3.4 - 10.6</td><td></td><td>10*3/uL</td></tr></table></div>"
        },
        "status": "final",
        "subject": {
          "reference": "urn:uuid:595d0954-be5f-4939-a809-2d79a3e4de72",
          "display": "Aniela Sacharczuk"
        },
        "effectiveDateTime": "2019-12-10T05:26:59Z",
        "specimen": {
          "reference": "urn:uuid:b158833f-437d-4516-808a-58b6ab56ea89"
        }
      }
    },
    {
      "fullUrl": "urn:uuid:481bdaaf-5901-432b-a357-263c47e03cc9",
      "resource": {
        "resourceType": "Observation",
        "id": "481bdaaf-5901-432b-a357-263c47e03cc9",
        "meta": {
          "profile": [
            "http://hl7.eu/fhir/laboratory/StructureDefinition/Observation-resultslab-eu-lab"
          ]
        },
        "performer": [
          {
            "display": "The Central European Lab"
          }
        ],
        "category": [
          {
            "coding": [
              {
                "system": "http://terminology.hl7.org/CodeSystem/observation-category",
                "code": "laboratory"
              }
            ]
          }
        ],
        "code": {
          "coding": [
            {
              "code": "789-8",
              "system": "http://loinc.org",
              "display": "Erythrocytes [#/volume] in Blood by Automated count"
            }
          ],
          "text": "Erythrocytes [#/volume] in Blood by Automated count"
        },
        "valueQuantity": {
          "system": "http://unitsofmeasure.org",
          "value": 4.1,
          "unit": "10*6/uL",
          "code": "10*6/uL"
        },
        "referenceRange": [
          {
            "low": {
              "value": 4.2,
              "code": "10*6/uL",
              "system": "http://unitsofmeasure.org"
            }
          },
          {
            "high": {
              "value": 5.2,
              "code": "10*6/uL",
              "system": "http://unitsofmeasure.org"
            }
          }
        ],
        "interpretation": [
          {
            "coding": [
              {
                "code": "L",
                "system": "http://terminology.hl7.org/CodeSystem/v3-ObservationInterpretation",
                "display": "Low"
              }
            ]
          }
        ],
        "text": {
          "status": "generated",
          "div": "<div xmlns=\"http://www.w3.org/1999/xhtml\"><table class=\"hl7__eu__lab__report\"><tr><th>Test</th><th>10-Dec-2019</th><th>Reference&#xA0;Range</th><th>Unit</th></tr><tr><td>Erythrocytes [#/volume] in Blood by Automated count</td><td>4.1</td><td>4.2 - 5.2</td><td>L</td><td>10*6/uL</td></tr></table></div>"
        },
        "status": "final",
        "subject": {
          "reference": "urn:uuid:595d0954-be5f-4939-a809-2d79a3e4de72",
          "display": "Aniela Sacharczuk"
        },
        "effectiveDateTime": "2019-12-10T05:26:59Z",
        "specimen": {
          "reference": "urn:uuid:b158833f-437d-4516-808a-58b6ab56ea89"
        }
      }
    },
    {
      "fullUrl": "urn:uuid:1fb171eb-a598-4992-9a91-ab7758f6fa4c",
      "resource": {
        "resourceType": "Observation",
        "id": "1fb171eb-a598-4992-9a91-ab7758f6fa4c",
        "meta": {
          "profile": [
            "http://hl7.eu/fhir/laboratory/StructureDefinition/Observation-resultslab-eu-lab"
          ]
        },
        "performer": [
          {
            "display": "The Central European Lab"
          }
        ],
        "category": [
          {
            "coding": [
              {
                "system": "http://terminology.hl7.org/CodeSystem/observation-category",
                "code": "laboratory"
              }
            ]
          }
        ],
        "code": {
          "coding": [
            {
              "code": "718-7",
              "system": "http://loinc.org",
              "display": "Hemoglobin [Mass/volume] in Blood"
            }
          ],
          "text": "Hemoglobin [Mass/volume] in Blood"
        },
        "valueQuantity": {
          "system": "http://unitsofmeasure.org",
          "value": 16.8,
          "unit": "g/dL",
          "code": "g/dL"
        },
        "referenceRange": [
          {
            "low": {
              "value": 12,
              "code": "g/dL",
              "system": "http://unitsofmeasure.org"
            }
          },
          {
            "high": {
              "value": 16,
              "code": "g/dL",
              "system": "http://unitsofmeasure.org"
            }
          }
        ],
        "interpretation": [
          {
            "coding": [
              {
                "code": "H",
                "system": "http://terminology.hl7.org/CodeSystem/v3-ObservationInterpretation",
                "display": "High"
              }
            ]
          }
        ],
        "text": {
          "status": "generated",
          "div": "<div xmlns=\"http://www.w3.org/1999/xhtml\"><table class=\"hl7__eu__lab__report\"><tr><th>Test</th><th>10-Dec-2019</th><th>Reference&#xA0;Range</th><th>Unit</th></tr><tr><td>Hemoglobin [Mass/volume] in Blood</td><td>16.8</td><td>12 - 16</td><td>H</td><td>g/dL</td></tr></table></div>"
        },
        "status": "final",
        "subject": {
          "reference": "urn:uuid:595d0954-be5f-4939-a809-2d79a3e4de72",
          "display": "Aniela Sacharczuk"
        },
        "effectiveDateTime": "2019-12-10T05:26:59Z",
        "specimen": {
          "reference": "urn:uuid:b158833f-437d-4516-808a-58b6ab56ea89"
        }
      }
    },
    {
      "fullUrl": "urn:uuid:ee1207be-2359-4a39-a4e3-b35758bc915d",
      "resource": {
        "resourceType": "Observation",
        "id": "ee1207be-2359-4a39-a4e3-b35758bc915d",
        "meta": {
          "profile": [
            "http://hl7.eu/fhir/laboratory/StructureDefinition/Observation-resultslab-eu-lab"
          ]
        },
        "performer": [
          {
            "display": "The Central European Lab"
          }
        ],
        "category": [
          {
            "coding": [
              {
                "system": "http://terminology.hl7.org/CodeSystem/observation-category",
                "code": "laboratory"
              }
            ]
          }
        ],
        "code": {
          "coding": [
            {
              "code": "4544-3",
              "system": "http://loinc.org",
              "display": "Hematocrit [Volume Fraction] of Blood by Automated count"
            }
          ],
          "text": "Hematocrit [Volume Fraction] of Blood by Automated count"
        },
        "valueQuantity": {
          "system": "http://unitsofmeasure.org",
          "value": 46.6,
          "unit": "%",
          "code": "%"
        },
        "referenceRange": [
          {
            "low": {
              "value": 37,
              "code": "%",
              "system": "http://unitsofmeasure.org"
            }
          },
          {
            "high": {
              "value": 46,
              "code": "%",
              "system": "http://unitsofmeasure.org"
            }
          }
        ],
        "interpretation": [
          {
            "coding": [
              {
                "code": "H",
                "system": "http://terminology.hl7.org/CodeSystem/v3-ObservationInterpretation",
                "display": "High"
              }
            ]
          }
        ],
        "text": {
          "status": "generated",
          "div": "<div xmlns=\"http://www.w3.org/1999/xhtml\"><table class=\"hl7__eu__lab__report\"><tr><th>Test</th><th>10-Dec-2019</th><th>Reference&#xA0;Range</th><th>Unit</th></tr><tr><td>Hematocrit [Volume Fraction] of Blood by Automated count</td><td>46.6</td><td>37 - 46</td><td>H</td><td>%</td></tr></table></div>"
        },
        "status": "final",
        "subject": {
          "reference": "urn:uuid:595d0954-be5f-4939-a809-2d79a3e4de72",
          "display": "Aniela Sacharczuk"
        },
        "effectiveDateTime": "2019-12-10T05:26:59Z",
        "specimen": {
          "reference": "urn:uuid:b158833f-437d-4516-808a-58b6ab56ea89"
        }
      }
    },
    {
      "fullUrl": "urn:uuid:6a6fbd6e-0823-4d11-b865-7980915020fc",
      "resource": {
        "resourceType": "Observation",
        "id": "6a6fbd6e-0823-4d11-b865-7980915020fc",
        "meta": {
          "profile": [
            "http://hl7.eu/fhir/laboratory/StructureDefinition/Observation-resultslab-eu-lab"
          ]
        },
        "performer": [
          {
            "display": "The Central European Lab"
          }
        ],
        "category": [
          {
            "coding": [
              {
                "system": "http://terminology.hl7.org/CodeSystem/observation-category",
                "code": "laboratory"
              }
            ]
          }
        ],
        "code": {
          "coding": [
            {
              "code": "787-2",
              "system": "http://loinc.org",
              "display": "MCV [Entitic volume] by Automated count"
            }
          ],
          "text": "MCV [Entitic volume] by Automated count"
        },
        "valueQuantity": {
          "system": "http://unitsofmeasure.org",
          "value": 92.3,
          "unit": "fL",
          "code": "fL"
        },
        "referenceRange": [
          {
            "low": {
              "value": 80,
              "code": "fL",
              "system": "http://unitsofmeasure.org"
            }
          },
          {
            "high": {
              "value": 105,
              "code": "fL",
              "system": "http://unitsofmeasure.org"
            }
          }
        ],
        "text": {
          "status": "generated",
          "div": "<div xmlns=\"http://www.w3.org/1999/xhtml\"><table class=\"hl7__eu__lab__report\"><tr><th>Test</th><th>10-Dec-2019</th><th>Reference&#xA0;Range</th><th>Unit</th></tr><tr><td>MCV [Entitic volume] by Automated count</td><td>92.3</td><td>80 - 105</td><td></td><td>fL</td></tr></table></div>"
        },
        "status": "final",
        "subject": {
          "reference": "urn:uuid:595d0954-be5f-4939-a809-2d79a3e4de72",
          "display": "Aniela Sacharczuk"
        },
        "effectiveDateTime": "2019-12-10T05:26:59Z",
        "specimen": {
          "reference": "urn:uuid:b158833f-437d-4516-808a-58b6ab56ea89"
        }
      }
    },
    {
      "fullUrl": "urn:uuid:86c408ad-6208-4780-b2c5-7f0136856bd4",
      "resource": {
        "resourceType": "Observation",
        "id": "86c408ad-6208-4780-b2c5-7f0136856bd4",
        "meta": {
          "profile": [
            "http://hl7.eu/fhir/laboratory/StructureDefinition/Observation-resultslab-eu-lab"
          ]
        },
        "performer": [
          {
            "display": "The Central European Lab"
          }
        ],
        "category": [
          {
            "coding": [
              {
                "system": "http://terminology.hl7.org/CodeSystem/observation-category",
                "code": "laboratory"
              }
            ]
          }
        ],
        "code": {
          "coding": [
            {
              "code": "785-6",
              "system": "http://loinc.org",
              "display": "MCH [Entitic mass] by Automated count"
            }
          ],
          "text": "MCH [Entitic mass] by Automated count"
        },
        "valueQuantity": {
          "system": "http://unitsofmeasure.org",
          "value": 30.1,
          "unit": "pg",
          "code": "pg"
        },
        "referenceRange": [
          {
            "low": {
              "value": 27,
              "code": "pg",
              "system": "http://unitsofmeasure.org"
            }
          },
          {
            "high": {
              "value": 34,
              "code": "pg",
              "system": "http://unitsofmeasure.org"
            }
          }
        ],
        "text": {
          "status": "generated",
          "div": "<div xmlns=\"http://www.w3.org/1999/xhtml\"><table class=\"hl7__eu__lab__report\"><tr><th>Test</th><th>10-Dec-2019</th><th>Reference&#xA0;Range</th><th>Unit</th></tr><tr><td>MCH [Entitic mass] by Automated count</td><td>30.1</td><td>27 - 34</td><td></td><td>pg</td></tr></table></div>"
        },
        "status": "final",
        "subject": {
          "reference": "urn:uuid:595d0954-be5f-4939-a809-2d79a3e4de72",
          "display": "Aniela Sacharczuk"
        },
        "effectiveDateTime": "2019-12-10T05:26:59Z",
        "specimen": {
          "reference": "urn:uuid:b158833f-437d-4516-808a-58b6ab56ea89"
        }
      }
    },
    {
      "fullUrl": "urn:uuid:1c477a13-55e4-4eb2-a0eb-bbf22fbac3c4",
      "resource": {
        "resourceType": "Observation",
        "id": "1c477a13-55e4-4eb2-a0eb-bbf22fbac3c4",
        "meta": {
          "profile": [
            "http://hl7.eu/fhir/laboratory/StructureDefinition/Observation-resultslab-eu-lab"
          ]
        },
        "performer": [
          {
            "display": "The Central European Lab"
          }
        ],
        "category": [
          {
            "coding": [
              {
                "system": "http://terminology.hl7.org/CodeSystem/observation-category",
                "code": "laboratory"
              }
            ]
          }
        ],
        "code": {
          "coding": [
            {
              "code": "786-4",
              "system": "http://loinc.org",
              "display": "MCHC [Mass/volume] by Automated count"
            }
          ],
          "text": "MCHC [Mass/volume] by Automated count"
        },
        "valueQuantity": {
          "system": "http://unitsofmeasure.org",
          "value": 34.1,
          "unit": "g/dL",
          "code": "g/dL"
        },
        "referenceRange": [
          {
            "low": {
              "value": 31,
              "code": "g/dL",
              "system": "http://unitsofmeasure.org"
            }
          },
          {
            "high": {
              "value": 35,
              "code": "g/dL",
              "system": "http://unitsofmeasure.org"
            }
          }
        ],
        "text": {
          "status": "generated",
          "div": "<div xmlns=\"http://www.w3.org/1999/xhtml\"><table class=\"hl7__eu__lab__report\"><tr><th>Test</th><th>10-Dec-2019</th><th>Reference&#xA0;Range</th><th>Unit</th></tr><tr><td>MCHC [Mass/volume] by Automated count</td><td>34.1</td><td>31 - 35</td><td></td><td>g/dL</td></tr></table></div>"
        },
        "status": "final",
        "subject": {
          "reference": "urn:uuid:595d0954-be5f-4939-a809-2d79a3e4de72",
          "display": "Aniela Sacharczuk"
        },
        "effectiveDateTime": "2019-12-10T05:26:59Z",
        "specimen": {
          "reference": "urn:uuid:b158833f-437d-4516-808a-58b6ab56ea89"
        }
      }
    },
    {
      "fullUrl": "urn:uuid:f48c4464-db43-44a0-a82a-1e905cc15e10",
      "resource": {
        "resourceType": "Observation",
        "id": "f48c4464-db43-44a0-a82a-1e905cc15e10",
        "meta": {
          "profile": [
            "http://hl7.eu/fhir/laboratory/StructureDefinition/Observation-resultslab-eu-lab"
          ]
        },
        "performer": [
          {
            "display": "The Central European Lab"
          }
        ],
        "category": [
          {
            "coding": [
              {
                "system": "http://terminology.hl7.org/CodeSystem/observation-category",
                "code": "laboratory"
              }
            ]
          }
        ],
        "code": {
          "coding": [
            {
              "code": "21000-5",
              "system": "http://loinc.org",
              "display": "Erythrocyte distribution width [Entitic volume] by Automated count"
            }
          ],
          "text": "Erythrocyte distribution width [Entitic volume] by Automated count"
        },
        "valueQuantity": {
          "system": "http://unitsofmeasure.org",
          "value": 40.2,
          "unit": "fL",
          "code": "fL"
        },
        "referenceRange": [
          {
            "low": {
              "value": 36,
              "code": "fL",
              "system": "http://unitsofmeasure.org"
            }
          },
          {
            "high": {
              "value": 46,
              "code": "fL",
              "system": "http://unitsofmeasure.org"
            }
          }
        ],
        "text": {
          "status": "generated",
          "div": "<div xmlns=\"http://www.w3.org/1999/xhtml\"><table class=\"hl7__eu__lab__report\"><tr><th>Test</th><th>10-Dec-2019</th><th>Reference&#xA0;Range</th><th>Unit</th></tr><tr><td>Erythrocyte distribution width [Entitic volume] by Automated count</td><td>40.2</td><td>36 - 46</td><td></td><td>fL</td></tr></table></div>"
        },
        "status": "final",
        "subject": {
          "reference": "urn:uuid:595d0954-be5f-4939-a809-2d79a3e4de72",
          "display": "Aniela Sacharczuk"
        },
        "effectiveDateTime": "2019-12-10T05:26:59Z",
        "specimen": {
          "reference": "urn:uuid:b158833f-437d-4516-808a-58b6ab56ea89"
        }
      }
    },
    {
      "fullUrl": "urn:uuid:91279f11-eaf9-483b-b3a8-76cd7d3875a4",
      "resource": {
        "resourceType": "Observation",
        "id": "91279f11-eaf9-483b-b3a8-76cd7d3875a4",
        "meta": {
          "profile": [
            "http://hl7.eu/fhir/laboratory/StructureDefinition/Observation-resultslab-eu-lab"
          ]
        },
        "performer": [
          {
            "display": "The Central European Lab"
          }
        ],
        "category": [
          {
            "coding": [
              {
                "system": "http://terminology.hl7.org/CodeSystem/observation-category",
                "code": "laboratory"
              }
            ]
          }
        ],
        "code": {
          "coding": [
            {
              "code": "777-3",
              "system": "http://loinc.org",
              "display": "Platelets [#/volume] in Blood by Automated count"
            }
          ],
          "text": "Platelets [#/volume] in Blood by Automated count"
        },
        "valueQuantity": {
          "system": "http://unitsofmeasure.org",
          "value": 260.2,
          "unit": "10*3/uL",
          "code": "10*3/uL"
        },
        "referenceRange": [
          {
            "low": {
              "value": 150,
              "code": "10*3/uL",
              "system": "http://unitsofmeasure.org"
            }
          },
          {
            "high": {
              "value": 415,
              "code": "10*3/uL",
              "system": "http://unitsofmeasure.org"
            }
          }
        ],
        "text": {
          "status": "generated",
          "div": "<div xmlns=\"http://www.w3.org/1999/xhtml\"><table class=\"hl7__eu__lab__report\"><tr><th>Test</th><th>10-Dec-2019</th><th>Reference&#xA0;Range</th><th>Unit</th></tr><tr><td>Platelets [#/volume] in Blood by Automated count</td><td>260.2</td><td>150 - 415</td><td></td><td>10*3/uL</td></tr></table></div>"
        },
        "status": "final",
        "subject": {
          "reference": "urn:uuid:595d0954-be5f-4939-a809-2d79a3e4de72",
          "display": "Aniela Sacharczuk"
        },
        "effectiveDateTime": "2019-12-10T05:26:59Z",
        "specimen": {
          "reference": "urn:uuid:b158833f-437d-4516-808a-58b6ab56ea89"
        }
      }
    },
    {
      "fullUrl": "urn:uuid:e7392aef-9ef9-4054-bc51-dc1c2c159b11",
      "resource": {
        "resourceType": "Observation",
        "id": "e7392aef-9ef9-4054-bc51-dc1c2c159b11",
        "meta": {
          "profile": [
            "http://hl7.eu/fhir/laboratory/StructureDefinition/Observation-resultslab-eu-lab"
          ]
        },
        "performer": [
          {
            "display": "The Central European Lab"
          }
        ],
        "category": [
          {
            "coding": [
              {
                "system": "http://terminology.hl7.org/CodeSystem/observation-category",
                "code": "laboratory"
              }
            ]
          }
        ],
        "code": {
          "coding": [
            {
              "code": "32207-3",
              "system": "http://loinc.org",
              "display": "Platelet distribution width [Entitic volume] in Blood by Automated count"
            }
          ],
          "text": "Platelet distribution width [Entitic volume] in Blood by Automated count"
        },
        "valueQuantity": {
          "system": "http://unitsofmeasure.org",
          "value": 494.1,
          "unit": "fL",
          "code": "fL"
        },
        "referenceRange": [
          {
            "low": {
              "value": 11.6,
              "code": "fL",
              "system": "http://unitsofmeasure.org"
            }
          },
          {
            "high": {
              "value": 17.4,
              "code": "fL",
              "system": "http://unitsofmeasure.org"
            }
          }
        ],
        "interpretation": [
          {
            "coding": [
              {
                "code": "H",
                "system": "http://terminology.hl7.org/CodeSystem/v3-ObservationInterpretation",
                "display": "High"
              }
            ]
          }
        ],
        "text": {
          "status": "generated",
          "div": "<div xmlns=\"http://www.w3.org/1999/xhtml\"><table class=\"hl7__eu__lab__report\"><tr><th>Test</th><th>10-Dec-2019</th><th>Reference&#xA0;Range</th><th>Unit</th></tr><tr><td>Platelet distribution width [Entitic volume] in Blood by Automated count</td><td>494.1</td><td>11.6 - 17.4</td><td>H</td><td>fL</td></tr></table></div>"
        },
        "status": "final",
        "subject": {
          "reference": "urn:uuid:595d0954-be5f-4939-a809-2d79a3e4de72",
          "display": "Aniela Sacharczuk"
        },
        "effectiveDateTime": "2019-12-10T05:26:59Z",
        "specimen": {
          "reference": "urn:uuid:b158833f-437d-4516-808a-58b6ab56ea89"
        }
      }
    },
    {
      "fullUrl": "urn:uuid:da05fc0e-8a30-4810-b961-adefcfaa3f0f",
      "resource": {
        "resourceType": "Observation",
        "id": "da05fc0e-8a30-4810-b961-adefcfaa3f0f",
        "meta": {
          "profile": [
            "http://hl7.eu/fhir/laboratory/StructureDefinition/Observation-resultslab-eu-lab"
          ]
        },
        "performer": [
          {
            "display": "The Central European Lab"
          }
        ],
        "category": [
          {
            "coding": [
              {
                "system": "http://terminology.hl7.org/CodeSystem/observation-category",
                "code": "laboratory"
              }
            ]
          }
        ],
        "code": {
          "coding": [
            {
              "code": "32623-1",
              "system": "http://loinc.org",
              "display": "Platelet mean volume [Entitic volume] in Blood by Automated count"
            }
          ],
          "text": "Platelet mean volume [Entitic volume] in Blood by Automated count"
        },
        "valueQuantity": {
          "system": "http://unitsofmeasure.org",
          "value": 9.8,
          "unit": "fL",
          "code": "fL"
        },
        "referenceRange": [
          {
            "low": {
              "value": 7.2,
              "code": "fL",
              "system": "http://unitsofmeasure.org"
            }
          },
          {
            "high": {
              "value": 13.8,
              "code": "fL",
              "system": "http://unitsofmeasure.org"
            }
          }
        ],
        "text": {
          "status": "generated",
          "div": "<div xmlns=\"http://www.w3.org/1999/xhtml\"><table class=\"hl7__eu__lab__report\"><tr><th>Test</th><th>10-Dec-2019</th><th>Reference&#xA0;Range</th><th>Unit</th></tr><tr><td>Platelet mean volume [Entitic volume] in Blood by Automated count</td><td>9.8</td><td>7.2 - 13.8</td><td></td><td>fL</td></tr></table></div>"
        },
        "status": "final",
        "subject": {
          "reference": "urn:uuid:595d0954-be5f-4939-a809-2d79a3e4de72",
          "display": "Aniela Sacharczuk"
        },
        "effectiveDateTime": "2019-12-10T05:26:59Z",
        "specimen": {
          "reference": "urn:uuid:b158833f-437d-4516-808a-58b6ab56ea89"
        }
      }
    },
    {
      "fullUrl": "urn:uuid:0b73ceeb-2e5e-4de4-8df7-675e5e56b584",
      "resource": {
        "resourceType": "Device",
        "id": "0b73ceeb-2e5e-4de4-8df7-675e5e56b584",
        "deviceName": [
          {
            "name": "SYNDERAI Synthetic Generator",
            "type": "manufacturer-name"
          }
        ],
        "version": [
          {
            "value": "5.0"
          }
        ],
        "text": {
          "status": "generated",
          "div": "<div xmlns=\"http://www.w3.org/1999/xhtml\">SYNDERAI Synthetic Generator v5.0</div>"
        },
        "status": "active\"",
        "distinctIdentifier": "synderai-generator-50",
        "manufacturer": "SYNDERAI Project"
      }
    },
    {
      "fullUrl": "urn:uuid:299f2180-cc23-49f2-975d-c915abe30991",
      "resource": {
        "resourceType": "Provenance",
        "id": "299f2180-cc23-49f2-975d-c915abe30991",
        "target": [
          {
            "reference": "Patient/595d0954-be5f-4939-a809-2d79a3e4de72"
          },
          {
            "reference": "Bundle/885a0511-7bb7-44f4-83ab-7fd084b788b4"
          },
          {
            "reference": "Composition/f13ea1f0-1b47-44cb-8944-2dbf326d041e"
          },
          {
            "reference": "PractitionerRole/ae2e9b66-2fca-4376-ace6-bd4dcde37fef"
          },
          {
            "reference": "Practitioner/41c738dc-4544-4c20-85de-cf19e3060d89"
          },
          {
            "reference": "PractitionerRole/ef6b8b56-319c-477f-b84c-321168cc2573"
          },
          {
            "reference": "Organization/3b0df38a-2402-46d7-b938-e62945e424f1"
          }
        ],
        "activity": {
          "text": "Synthetic Example Data Generation"
        },
        "policy": [
          "https://synderai.net/synderai-synthetic-data-policy"
        ],
        "agent": [
          {
            "type": {
              "text": "author"
            },
            "who": {
              "reference": "Device/0b73ceeb-2e5e-4de4-8df7-675e5e56b584"
            }
          }
        ],
        "reason": [
          {
            "text": "Interoperability Testing and Training (non-clinical use)"
          }
        ],
        "text": {
          "status": "generated",
          "div": "<div xmlns=\"http://www.w3.org/1999/xhtml\">Provenance for SYNDERAI Synthetic Example Data Resource</div>"
        },
        "recorded": "2019-12-10T06:26:59Z"
      }
    },
    {
      "fullUrl": "urn:uuid:ae2e9b66-2fca-4376-ace6-bd4dcde37fef",
      "resource": {
        "resourceType": "PractitionerRole",
        "id": "ae2e9b66-2fca-4376-ace6-bd4dcde37fef",
        "meta": {
          "profile": [
            "http://hl7.eu/fhir/base/StructureDefinition/practitionerRole-eu"
          ]
        },
        "text": {
          "status": "generated",
          "div": "<div xmlns=\"http://www.w3.org/1999/xhtml\">Laboratory Role Id: ae2e9b66-2fca-4376-ace6-bd4dcde37fef</div>"
        },
        "practitioner": {
          "reference": "urn:uuid:41c738dc-4544-4c20-85de-cf19e3060d89"
        }
      }
    },
    {
      "fullUrl": "urn:uuid:41c738dc-4544-4c20-85de-cf19e3060d89",
      "resource": {
        "resourceType": "Practitioner",
        "id": "41c738dc-4544-4c20-85de-cf19e3060d89",
        "meta": {
          "profile": [
            "http://hl7.eu/fhir/base/StructureDefinition/practitioner-eu"
          ]
        },
        "identifier": [
          {
            "assigner": {
              "display": "HL7 Europe"
            },
            "system": "urn:oid:2.16.840.1.113883.2.51.999",
            "value": "8d2b3828-45ff-4564-ad32-19eb1a9872be"
          }
        ],
        "name": [
          {
            "prefix": [
              "dr"
            ],
            "given": [
              "Ex"
            ],
            "family": "Ample"
          }
        ],
        "address": [
          {
            "line": [
              "Laboratoire Central Européenne",
              "Boulevard du Jardin Botanique 32"
            ],
            "postalCode": "1000",
            "city": "Brussels",
            "country": "Belgium"
          }
        ],
        "text": {
          "status": "generated",
          "div": "<div xmlns=\"http://www.w3.org/1999/xhtml\">Laboratory: Laboratoire Central Européenne, 1000 Brussels, Belgium</div>"
        }
      }
    }
  ],
  "type": "document",
  "timestamp": "2019-12-10T06:26:59Z"
}
