{
  "resourceType": "Bundle",
  "id": "0e7d15a8-88b7-463d-a73e-93c407d6a989",
  "meta": {
    "profile": [
      "http://hl7.eu/fhir/laboratory/StructureDefinition/Bundle-eu-lab"
    ]
  },
  "identifier": {
    "assigner": {
      "display": "HL7 Europe"
    },
    "system": "urn:oid:2.16.840.1.113883.2.51.999",
    "value": "fe99d556-02d2-4d68-96e3-1f56f0867584"
  },
  "entry": [
    {
      "fullUrl": "urn:uuid:545baba8-8b20-4350-9027-a3bae3407d95",
      "resource": {
        "resourceType": "Composition",
        "id": "545baba8-8b20-4350-9027-a3bae3407d95",
        "meta": {
          "profile": [
            "http://hl7.eu/fhir/laboratory/StructureDefinition/Composition-eu-lab"
          ]
        },
        "identifier": {
          "assigner": {
            "display": "HL7 Europe"
          },
          "system": "urn:oid:2.16.840.1.113883.2.51.999",
          "value": "5758b231-1f3b-44ad-adad-faa20935cfd7"
        },
        "author": [
          {
            "reference": "urn:uuid:3958ed33-7eff-4aee-96bf-8ab7696d8380"
          }
        ],
        "category": [
          {
            "coding": [
              {
                "code": "26436-6",
                "system": "http://loinc.org",
                "display": "Laboratory studies (set)"
              }
            ]
          }
        ],
        "type": {
          "coding": [
            {
              "code": "11502-2",
              "system": "http://loinc.org",
              "display": "Laboratory report"
            }
          ],
          "text": "Laboratory Report"
        },
        "section": [
          {
            "code": {
              "coding": [
                {
                  "code": "26436-6",
                  "system": "http://loinc.org",
                  "display": "Laboratory studies (set)"
                }
              ],
              "text": "Laboratory studies"
            },
            "section": [
              {
                "code": {
                  "coding": [
                    {
                      "code": "$18723-7",
                      "system": "http://loinc.org",
                      "display": "Hematology studies (set)"
                    }
                  ],
                  "text": "Hematology"
                },
                "entry": [
                  {
                    "reference": "urn:uuid:cf1b59ea-d511-43cb-895b-843a027189d4"
                  },
                  {
                    "reference": "urn:uuid:ec4b78ca-6189-4247-a94c-35c8339f0659"
                  },
                  {
                    "reference": "urn:uuid:a2aa343f-c622-43c0-a8a4-fd9038c01418"
                  },
                  {
                    "reference": "urn:uuid:a5e1fc6a-773f-45c4-b78d-9ee7f71ba4b1"
                  },
                  {
                    "reference": "urn:uuid:4fd0751f-8e91-4c41-9d79-e7cb6979573d"
                  },
                  {
                    "reference": "urn:uuid:7d459b62-bb6b-41a3-ac74-1ae4813f4d1a"
                  },
                  {
                    "reference": "urn:uuid:d9490dc5-72f7-462a-8eab-b258fc528ef6"
                  },
                  {
                    "reference": "urn:uuid:16d640d7-fa37-4814-a647-97e6963c9fd2"
                  },
                  {
                    "reference": "urn:uuid:37126c2c-2f00-45c8-b1e2-c9a8464c60f5"
                  },
                  {
                    "reference": "urn:uuid:627988b5-5576-4a24-a08a-d49a38d7de7b"
                  },
                  {
                    "reference": "urn:uuid:fe81787d-c4f3-461e-bcb7-2826dc1b2e01"
                  }
                ],
                "text": {
                  "status": "generated",
                  "div": "<div xmlns=\"http://www.w3.org/1999/xhtml\"><h3>Hematology</h3><table class=\"hl7__eu__lab__report\"><thead><tr><th>Test</th><th>19-JUL-2018</th><th>Reference&#xA0;Range</th><th>Unit</th></tr></thead><tbody><tr><td>Leukocytes [#/volume] in Blood by Automated count</td><td>9.8</td><td>4 - 11</td><td>10*3/uL</td></tr><tr><td>Erythrocytes [#/volume] in Blood by Automated count</td><td>4.1</td><td>3.9 - 5.2</td><td>10*6/uL</td></tr><tr><td>Hemoglobin [Mass/volume] in Blood</td><td>12.9</td><td>12 - 15.5</td><td>g/dL</td></tr><tr><td>Hematocrit [Volume Fraction] of Blood by Automated count</td><td>48.3</td><td>38 - 54</td><td>%</td></tr><tr><td>MCV [Entitic volume] by Automated count</td><td>81.4</td><td>78 - 98</td><td>fL</td></tr><tr><td>MCH [Entitic mass] by Automated count</td><td>29.1</td><td>27 - 33</td><td>pg</td></tr><tr><td>MCHC [Mass/volume] by Automated count</td><td>33.2</td><td>31 - 35</td><td>g/dL</td></tr><tr><td>Erythrocyte distribution width [Entitic volume] by Automated count</td><td>42.0</td><td>36 - 56</td><td>fL</td></tr><tr><td>Platelets [#/volume] in Blood by Automated count</td><td>237.1</td><td>150 - 450</td><td>10*3/uL</td></tr><tr><td>Platelet distribution width [Entitic volume] in Blood by Automated count</td><td>164.5</td><td>15.5 - 450</td><td>fL</td></tr><tr><td>Platelet mean volume [Entitic volume] in Blood by Automated count</td><td>11.6</td><td>7.2 - 13.5</td><td>fL</td></tr></tbody></table></div>"
                },
                "title": "Hematology"
              },
              {
                "code": {
                  "coding": [
                    {
                      "code": "$18719-5",
                      "system": "http://loinc.org",
                      "display": "Chemistry studies (set)"
                    }
                  ],
                  "text": "Chemistry"
                },
                "entry": [
                  {
                    "reference": "urn:uuid:f4023e96-7169-4ede-b67b-c8d8e2afdde7"
                  },
                  {
                    "reference": "urn:uuid:79b6bb5e-1ecb-47a5-8eed-110e10562cd5"
                  },
                  {
                    "reference": "urn:uuid:b512160d-205c-457d-ae65-f486b6dde0a7"
                  },
                  {
                    "reference": "urn:uuid:301b67e1-1e74-4de7-b689-ba95a61e571d"
                  },
                  {
                    "reference": "urn:uuid:0dc67337-5e7b-4216-babe-1e3de6347a3d"
                  },
                  {
                    "reference": "urn:uuid:a0d83c64-6e59-403e-acf3-2a9d84ea8eef"
                  },
                  {
                    "reference": "urn:uuid:778b0164-e66c-4296-8552-483c30978099"
                  },
                  {
                    "reference": "urn:uuid:250715d3-0a84-41bd-b617-45ee1946368e"
                  }
                ],
                "text": {
                  "status": "generated",
                  "div": "<div xmlns=\"http://www.w3.org/1999/xhtml\"><h3>Chemistry</h3><table class=\"hl7__eu__lab__report\"><thead><tr><th>Test</th><th>19-JUL-2018</th><th>Reference&#xA0;Range</th><th>Unit</th></tr></thead><tbody><tr><td>Glucose [Mass/volume] in Blood</td><td>86.0</td><td>70 - 140</td><td>mg/dL</td></tr><tr><td>Urea nitrogen [Mass/volume] in Blood</td><td>16.1</td><td>7 - 30</td><td>mg/dL</td></tr><tr><td>Creatinine [Mass/volume] in Blood</td><td>0.7</td><td>0.5 - 1.3</td><td>mg/dL</td></tr><tr><td>Calcium [Mass/volume] in Blood</td><td>9.6</td><td>8.6 - 10.2</td><td>mg/dL</td></tr><tr><td>Sodium [Moles/volume] in Blood</td><td>141.3</td><td>135 - 145</td><td>mmol/L</td></tr><tr><td>Potassium [Moles/volume] in Blood</td><td>4.5</td><td>3.5 - 5.1</td><td>mmol/L</td></tr><tr><td>Chloride [Moles/volume] in Blood</td><td>107.8</td><td>98 - 114</td><td>mmol/L</td></tr><tr><td>Carbon dioxide, total [Moles/volume] in Blood</td><td>24.4</td><td>22 - 32</td><td>mmol/L</td></tr></tbody></table></div>"
                },
                "title": "Chemistry"
              }
            ],
            "title": "Laboratory Report"
          },
          {
            "text": {
              "status": "generated",
              "div": "<div xmlns=\"http://www.w3.org/1999/xhtml\"><h3>Annotation</h3><table class=\"hl7__eu__lab__report\"><tr><th>Conclusion and Recommendations based on this report and previous findings known to us</th></tr><tr><td>All laboratory values are within normal limits for this 78-year-old female patient. No evidence of anemia, electrolyte imbalance, renal dysfunction, or hematological abnormalities is present. The results indicate stable metabolic and hematologic status from a laboratory perspective.</td></tr></table></div>"
            },
            "code": {
              "coding": [
                {
                  "system": "http://loinc.org",
                  "code": "48767-8",
                  "display": "Annotation comment"
                }
              ]
            },
            "title": "Annotation comment"
          }
        ],
        "status": "final",
        "subject": {
          "reference": "urn:uuid:7588bcc5-a592-4692-9834-b32fe94e322a",
          "display": "Maria Nohlmans"
        },
        "date": "2018-07-19T17:34:24Z",
        "title": "Laboratory Report",
        "confidentiality": "N"
      }
    },
    {
      "fullUrl": "urn:uuid:687b1c5c-95b8-404b-b672-551324f1a963",
      "resource": {
        "resourceType": "DiagnosticReport",
        "id": "687b1c5c-95b8-404b-b672-551324f1a963",
        "meta": {
          "profile": [
            "http://hl7.eu/fhir/laboratory/StructureDefinition/DiagnosticReport-eu-lab"
          ]
        },
        "identifier": [
          {
            "assigner": {
              "display": "HL7 Europe"
            },
            "system": "urn:oid:2.16.840.1.113883.2.51.999",
            "value": "a45f7dd6-0ccd-4235-a0c4-4832e0b076ca"
          }
        ],
        "extension": [
          {
            "url": "http://hl7.org/fhir/5.0/StructureDefinition/extension-DiagnosticReport.composition",
            "valueReference": {
              "reference": "urn:uuid:5758b231-1f3b-44ad-adad-faa20935cfd7"
            }
          }
        ],
        "category": [
          {
            "coding": [
              {
                "code": "26436-6",
                "system": "http://loinc.org",
                "display": "Laboratory studies (set)"
              }
            ]
          }
        ],
        "specimen": [
          {
            "reference": "urn:uuid:8b8efdbb-db27-4751-8710-39e6b128b90a"
          },
          {
            "reference": "urn:uuid:8b8efdbb-db27-4751-8710-39e6b128b90a"
          }
        ],
        "result": [
          {
            "reference": "urn:uuid:f4023e96-7169-4ede-b67b-c8d8e2afdde7"
          },
          {
            "reference": "urn:uuid:79b6bb5e-1ecb-47a5-8eed-110e10562cd5"
          },
          {
            "reference": "urn:uuid:b512160d-205c-457d-ae65-f486b6dde0a7"
          },
          {
            "reference": "urn:uuid:301b67e1-1e74-4de7-b689-ba95a61e571d"
          },
          {
            "reference": "urn:uuid:0dc67337-5e7b-4216-babe-1e3de6347a3d"
          },
          {
            "reference": "urn:uuid:a0d83c64-6e59-403e-acf3-2a9d84ea8eef"
          },
          {
            "reference": "urn:uuid:778b0164-e66c-4296-8552-483c30978099"
          },
          {
            "reference": "urn:uuid:250715d3-0a84-41bd-b617-45ee1946368e"
          },
          {
            "reference": "urn:uuid:cf1b59ea-d511-43cb-895b-843a027189d4"
          },
          {
            "reference": "urn:uuid:ec4b78ca-6189-4247-a94c-35c8339f0659"
          },
          {
            "reference": "urn:uuid:a2aa343f-c622-43c0-a8a4-fd9038c01418"
          },
          {
            "reference": "urn:uuid:a5e1fc6a-773f-45c4-b78d-9ee7f71ba4b1"
          },
          {
            "reference": "urn:uuid:4fd0751f-8e91-4c41-9d79-e7cb6979573d"
          },
          {
            "reference": "urn:uuid:7d459b62-bb6b-41a3-ac74-1ae4813f4d1a"
          },
          {
            "reference": "urn:uuid:d9490dc5-72f7-462a-8eab-b258fc528ef6"
          },
          {
            "reference": "urn:uuid:16d640d7-fa37-4814-a647-97e6963c9fd2"
          },
          {
            "reference": "urn:uuid:37126c2c-2f00-45c8-b1e2-c9a8464c60f5"
          },
          {
            "reference": "urn:uuid:627988b5-5576-4a24-a08a-d49a38d7de7b"
          },
          {
            "reference": "urn:uuid:fe81787d-c4f3-461e-bcb7-2826dc1b2e01"
          }
        ],
        "status": "registered",
        "code": {
          "coding": [
            {
              "code": "11502-2",
              "system": "http://loinc.org",
              "display": "Laboratory report"
            }
          ]
        },
        "subject": {
          "reference": "urn:uuid:7588bcc5-a592-4692-9834-b32fe94e322a",
          "display": "Maria Nohlmans"
        }
      }
    },
    {
      "fullUrl": "urn:uuid:7588bcc5-a592-4692-9834-b32fe94e322a",
      "resource": {
        "resourceType": "Patient",
        "id": "7588bcc5-a592-4692-9834-b32fe94e322a",
        "meta": {
          "security": [
            {
              "system": "http://terminology.hl7.org/CodeSystem/v3-ActReason",
              "code": "HTEST"
            },
            {
              "system": "http://terminology.hl7.org/CodeSystem/v3-ActReason",
              "code": "TRAIN"
            }
          ],
          "tag": [
            {
              "system": "https://synderai.net/fhir/CodeSystem/tags",
              "code": "synthetic",
              "display": "SYNDERAI Synthetic data"
            }
          ],
          "profile": [
            "http://hl7.eu/fhir/base/StructureDefinition/patient-eu-core"
          ]
        },
        "identifier": [
          {
            "type": {
              "coding": [
                {
                  "code": "PT",
                  "system": "http://terminology.hl7.org/CodeSystem/v2-0203"
                }
              ]
            },
            "system": "http://ec.europa.eu/identifier/eci",
            "value": "6886-506417-1"
          },
          {
            "type": {
              "coding": [
                {
                  "code": "MR",
                  "system": "http://terminology.hl7.org/CodeSystem/v2-0203"
                }
              ]
            },
            "system": "http://local.setting.eu/identifier",
            "value": "2cb21ed6-b617-b1f3-2290-589a710de5ee"
          }
        ],
        "name": [
          {
            "family": "Nohlmans"
          },
          {
            "given": [
              "Maria"
            ]
          },
          {
            "text": "Maria Nohlmans"
          }
        ],
        "address": [
          {
            "line": [
              "Alfons-Wulff-Weg 1"
            ],
            "use": "home",
            "type": "physical",
            "postalCode": "25813",
            "city": "Husum",
            "country": "Germany"
          }
        ],
        "telecom": [
          {
            "system": "phone",
            "value": "+49(0)1911 105501"
          }
        ],
        "extension": [
          {
            "url": "http://hl7.org/fhir/StructureDefinition/patient-nationality",
            "valueCodeableConcept": {
              "coding": [
                {
                  "code": "DE",
                  "system": "http://hl7.org/fhir/ValueSet/country"
                }
              ]
            }
          }
        ],
        "text": {
          "status": "generated",
          "div": "<div xmlns=\"http://www.w3.org/1999/xhtml\"><table class=\"hl7__ips\"><tr><td>Maria Nohlmans</td><td>female</td><td>11-Jun-1947</td></tr></table></div>"
        },
        "gender": "female",
        "birthDate": "1947-06-11"
      }
    },
    {
      "fullUrl": "urn:uuid:ead486d6-515a-4ce2-8ac4-ab71463be5da",
      "resource": {
        "resourceType": "ServiceRequest",
        "id": "ead486d6-515a-4ce2-8ac4-ab71463be5da",
        "meta": {
          "profile": [
            "http://hl7.eu/fhir/laboratory/StructureDefinition/ServiceRequest-eu-lab"
          ]
        },
        "identifier": [
          {
            "system": "http://example.org",
            "value": "eb5f3455-06e6-4f74-8e76-ae169dc9d9b8"
          }
        ],
        "specimen": [
          {
            "reference": "urn:uuid:8b8efdbb-db27-4751-8710-39e6b128b90a"
          }
        ],
        "reasonCode": [
          {
            "coding": [
              {
                "code": "401314000",
                "system": "http://snomed.info/sct",
                "display": "Acute non-ST segment elevation myocardial infarction"
              }
            ]
          },
          {
            "coding": [
              {
                "code": "157141000119108",
                "system": "http://snomed.info/sct",
                "display": "Proteinuria due to type 2 diabetes mellitus"
              }
            ]
          },
          {
            "coding": [
              {
                "code": "237602007",
                "system": "http://snomed.info/sct",
                "display": "Metabolic syndrome X"
              }
            ]
          },
          {
            "coding": [
              {
                "code": "90781000119102",
                "system": "http://snomed.info/sct",
                "display": "Microalbuminuria due to type 2 diabetes mellitus"
              }
            ]
          },
          {
            "coding": [
              {
                "code": "127013003",
                "system": "http://snomed.info/sct",
                "display": "Disorder of kidney due to diabetes mellitus"
              }
            ]
          },
          {
            "coding": [
              {
                "code": "59621000",
                "system": "http://snomed.info/sct",
                "display": "Essential hypertension"
              }
            ]
          },
          {
            "coding": [
              {
                "code": "271737000",
                "system": "http://snomed.info/sct",
                "display": "Anemia"
              }
            ]
          },
          {
            "coding": [
              {
                "code": "15777000",
                "system": "http://snomed.info/sct",
                "display": "Prediabetes"
              }
            ]
          }
        ],
        "status": "active",
        "intent": "order",
        "code": {
          "coding": [
            {
              "code": "108252007",
              "system": "http://snomed.info/sct",
              "display": "Laboratory procedure"
            }
          ]
        },
        "subject": {
          "reference": "urn:uuid:7588bcc5-a592-4692-9834-b32fe94e322a",
          "display": "Maria Nohlmans"
        },
        "requester": {
          "reference": "urn:uuid:91418e90-a376-4509-b960-b16b6e7e3672"
        }
      }
    },
    {
      "fullUrl": "urn:uuid:91418e90-a376-4509-b960-b16b6e7e3672",
      "resource": {
        "resourceType": "PractitionerRole",
        "id": "91418e90-a376-4509-b960-b16b6e7e3672",
        "meta": {
          "profile": [
            "http://hl7.eu/fhir/base/StructureDefinition/practitionerRole-eu"
          ]
        },
        "text": {
          "status": "generated",
          "div": "<div xmlns=\"http://www.w3.org/1999/xhtml\">Provider Role Id: 91418e90-a376-4509-b960-b16b6e7e3672</div>"
        },
        "organization": {
          "reference": "urn:uuid:01d2d20e-ecc1-42b3-b452-a2a60ff19db4"
        }
      }
    },
    {
      "fullUrl": "urn:uuid:01d2d20e-ecc1-42b3-b452-a2a60ff19db4",
      "resource": {
        "resourceType": "Organization",
        "id": "01d2d20e-ecc1-42b3-b452-a2a60ff19db4",
        "meta": {
          "profile": [
            "http://hl7.eu/fhir/base/StructureDefinition/organization-eu"
          ]
        },
        "identifier": [
          {
            "assigner": {
              "display": "HL7 Europe"
            },
            "system": "urn:oid:2.16.840.1.113883.2.51.999",
            "value": "3837e71f-e188-452b-9d59-70fc2c3ea655"
          }
        ],
        "address": [
          {
            "line": [
              "Brinckmannstraße 35"
            ],
            "city": "Husum",
            "postalCode": "25813",
            "country": "Germany"
          }
        ],
        "text": {
          "status": "generated",
          "div": "<div xmlns=\"http://www.w3.org/1999/xhtml\">Provider Organization: Dr. Wolfram Hussels Kieferorthopäde</div>"
        },
        "name": "Dr. Wolfram Hussels Kieferorthopäde"
      }
    },
    {
      "fullUrl": "urn:uuid:8b8efdbb-db27-4751-8710-39e6b128b90a",
      "resource": {
        "resourceType": "Specimen",
        "id": "8b8efdbb-db27-4751-8710-39e6b128b90a",
        "meta": {
          "profile": [
            "http://hl7.eu/fhir/laboratory/StructureDefinition/Specimen-eu-lab"
          ]
        },
        "collection": {
          "collectedDateTime": "2018-07-19"
        },
        "text": {
          "status": "generated",
          "div": "<div xmlns=\"http://www.w3.org/1999/xhtml\"><table class=\"hl7__eu__lab__report\"><tr><th>Specimen</th><th>Collection Date</th></tr><tr><td>Whole blood specimen (specimen)</td><td><span class=\"nb\">19-Jul-2018</span></td></tr></table></div>"
        },
        "type": {
          "coding": [
            {
              "code": "258580003",
              "system": "http://snomed.info/sct",
              "display": "Whole blood specimen (specimen)"
            }
          ]
        }
      }
    },
    {
      "fullUrl": "urn:uuid:8b8efdbb-db27-4751-8710-39e6b128b90a",
      "resource": {
        "resourceType": "Specimen",
        "id": "8b8efdbb-db27-4751-8710-39e6b128b90a",
        "meta": {
          "profile": [
            "http://hl7.eu/fhir/laboratory/StructureDefinition/Specimen-eu-lab"
          ]
        },
        "collection": {
          "collectedDateTime": "2018-07-19"
        },
        "text": {
          "status": "generated",
          "div": "<div xmlns=\"http://www.w3.org/1999/xhtml\"><table class=\"hl7__eu__lab__report\"><tr><th>Specimen</th><th>Collection Date</th></tr><tr><td>Whole blood specimen (specimen)</td><td><span class=\"nb\">19-Jul-2018</span></td></tr></table></div>"
        },
        "type": {
          "coding": [
            {
              "code": "258580003",
              "system": "http://snomed.info/sct",
              "display": "Whole blood specimen (specimen)"
            }
          ]
        }
      }
    },
    {
      "fullUrl": "urn:uuid:f4023e96-7169-4ede-b67b-c8d8e2afdde7",
      "resource": {
        "resourceType": "Observation",
        "id": "f4023e96-7169-4ede-b67b-c8d8e2afdde7",
        "meta": {
          "profile": [
            "http://hl7.eu/fhir/laboratory/StructureDefinition/Observation-resultslab-eu-lab"
          ]
        },
        "performer": [
          {
            "display": "The Central European Lab"
          }
        ],
        "category": [
          {
            "coding": [
              {
                "system": "http://terminology.hl7.org/CodeSystem/observation-category",
                "code": "laboratory"
              }
            ]
          }
        ],
        "code": {
          "coding": [
            {
              "code": "2339-0",
              "system": "http://loinc.org",
              "display": "Glucose [Mass/volume] in Blood"
            }
          ],
          "text": "Glucose [Mass/volume] in Blood"
        },
        "valueQuantity": {
          "system": "http://unitsofmeasure.org",
          "value": 86,
          "unit": "mg/dL",
          "code": "mg/dL"
        },
        "referenceRange": [
          {
            "low": {
              "value": 70,
              "code": "mg/dL",
              "system": "http://unitsofmeasure.org"
            }
          },
          {
            "high": {
              "value": 140,
              "code": "mg/dL",
              "system": "http://unitsofmeasure.org"
            }
          }
        ],
        "text": {
          "status": "generated",
          "div": "<div xmlns=\"http://www.w3.org/1999/xhtml\"><table class=\"hl7__eu__lab__report\"><tr><th>Test</th><th>19-Jul-2018</th><th>Reference&#xA0;Range</th><th>Unit</th></tr><tr><td>Glucose [Mass/volume] in Blood</td><td>86.0</td><td>70 - 140</td><td></td><td>mg/dL</td></tr></table></div>"
        },
        "status": "final",
        "subject": {
          "reference": "urn:uuid:7588bcc5-a592-4692-9834-b32fe94e322a",
          "display": "Maria Nohlmans"
        },
        "effectiveDateTime": "2018-07-19T15:34:24Z",
        "specimen": {
          "reference": "urn:uuid:8b8efdbb-db27-4751-8710-39e6b128b90a"
        }
      }
    },
    {
      "fullUrl": "urn:uuid:79b6bb5e-1ecb-47a5-8eed-110e10562cd5",
      "resource": {
        "resourceType": "Observation",
        "id": "79b6bb5e-1ecb-47a5-8eed-110e10562cd5",
        "meta": {
          "profile": [
            "http://hl7.eu/fhir/laboratory/StructureDefinition/Observation-resultslab-eu-lab"
          ]
        },
        "performer": [
          {
            "display": "The Central European Lab"
          }
        ],
        "category": [
          {
            "coding": [
              {
                "system": "http://terminology.hl7.org/CodeSystem/observation-category",
                "code": "laboratory"
              }
            ]
          }
        ],
        "code": {
          "coding": [
            {
              "code": "6299-2",
              "system": "http://loinc.org",
              "display": "Urea nitrogen [Mass/volume] in Blood"
            }
          ],
          "text": "Urea nitrogen [Mass/volume] in Blood"
        },
        "valueQuantity": {
          "system": "http://unitsofmeasure.org",
          "value": 16.1,
          "unit": "mg/dL",
          "code": "mg/dL"
        },
        "referenceRange": [
          {
            "low": {
              "value": 7,
              "code": "mg/dL",
              "system": "http://unitsofmeasure.org"
            }
          },
          {
            "high": {
              "value": 30,
              "code": "mg/dL",
              "system": "http://unitsofmeasure.org"
            }
          }
        ],
        "text": {
          "status": "generated",
          "div": "<div xmlns=\"http://www.w3.org/1999/xhtml\"><table class=\"hl7__eu__lab__report\"><tr><th>Test</th><th>19-Jul-2018</th><th>Reference&#xA0;Range</th><th>Unit</th></tr><tr><td>Urea nitrogen [Mass/volume] in Blood</td><td>16.1</td><td>7 - 30</td><td></td><td>mg/dL</td></tr></table></div>"
        },
        "status": "final",
        "subject": {
          "reference": "urn:uuid:7588bcc5-a592-4692-9834-b32fe94e322a",
          "display": "Maria Nohlmans"
        },
        "effectiveDateTime": "2018-07-19T15:34:24Z",
        "specimen": {
          "reference": "urn:uuid:8b8efdbb-db27-4751-8710-39e6b128b90a"
        }
      }
    },
    {
      "fullUrl": "urn:uuid:b512160d-205c-457d-ae65-f486b6dde0a7",
      "resource": {
        "resourceType": "Observation",
        "id": "b512160d-205c-457d-ae65-f486b6dde0a7",
        "meta": {
          "profile": [
            "http://hl7.eu/fhir/laboratory/StructureDefinition/Observation-resultslab-eu-lab"
          ]
        },
        "performer": [
          {
            "display": "The Central European Lab"
          }
        ],
        "category": [
          {
            "coding": [
              {
                "system": "http://terminology.hl7.org/CodeSystem/observation-category",
                "code": "laboratory"
              }
            ]
          }
        ],
        "code": {
          "coding": [
            {
              "code": "38483-4",
              "system": "http://loinc.org",
              "display": "Creatinine [Mass/volume] in Blood"
            }
          ],
          "text": "Creatinine [Mass/volume] in Blood"
        },
        "valueQuantity": {
          "system": "http://unitsofmeasure.org",
          "value": 0.7,
          "unit": "mg/dL",
          "code": "mg/dL"
        },
        "referenceRange": [
          {
            "low": {
              "value": 0.5,
              "code": "mg/dL",
              "system": "http://unitsofmeasure.org"
            }
          },
          {
            "high": {
              "value": 1.3,
              "code": "mg/dL",
              "system": "http://unitsofmeasure.org"
            }
          }
        ],
        "text": {
          "status": "generated",
          "div": "<div xmlns=\"http://www.w3.org/1999/xhtml\"><table class=\"hl7__eu__lab__report\"><tr><th>Test</th><th>19-Jul-2018</th><th>Reference&#xA0;Range</th><th>Unit</th></tr><tr><td>Creatinine [Mass/volume] in Blood</td><td>0.7</td><td>0.5 - 1.3</td><td></td><td>mg/dL</td></tr></table></div>"
        },
        "status": "final",
        "subject": {
          "reference": "urn:uuid:7588bcc5-a592-4692-9834-b32fe94e322a",
          "display": "Maria Nohlmans"
        },
        "effectiveDateTime": "2018-07-19T15:34:24Z",
        "specimen": {
          "reference": "urn:uuid:8b8efdbb-db27-4751-8710-39e6b128b90a"
        }
      }
    },
    {
      "fullUrl": "urn:uuid:301b67e1-1e74-4de7-b689-ba95a61e571d",
      "resource": {
        "resourceType": "Observation",
        "id": "301b67e1-1e74-4de7-b689-ba95a61e571d",
        "meta": {
          "profile": [
            "http://hl7.eu/fhir/laboratory/StructureDefinition/Observation-resultslab-eu-lab"
          ]
        },
        "performer": [
          {
            "display": "The Central European Lab"
          }
        ],
        "category": [
          {
            "coding": [
              {
                "system": "http://terminology.hl7.org/CodeSystem/observation-category",
                "code": "laboratory"
              }
            ]
          }
        ],
        "code": {
          "coding": [
            {
              "code": "49765-1",
              "system": "http://loinc.org",
              "display": "Calcium [Mass/volume] in Blood"
            }
          ],
          "text": "Calcium [Mass/volume] in Blood"
        },
        "valueQuantity": {
          "system": "http://unitsofmeasure.org",
          "value": 9.6,
          "unit": "mg/dL",
          "code": "mg/dL"
        },
        "referenceRange": [
          {
            "low": {
              "value": 8.6,
              "code": "mg/dL",
              "system": "http://unitsofmeasure.org"
            }
          },
          {
            "high": {
              "value": 10.2,
              "code": "mg/dL",
              "system": "http://unitsofmeasure.org"
            }
          }
        ],
        "text": {
          "status": "generated",
          "div": "<div xmlns=\"http://www.w3.org/1999/xhtml\"><table class=\"hl7__eu__lab__report\"><tr><th>Test</th><th>19-Jul-2018</th><th>Reference&#xA0;Range</th><th>Unit</th></tr><tr><td>Calcium [Mass/volume] in Blood</td><td>9.6</td><td>8.6 - 10.2</td><td></td><td>mg/dL</td></tr></table></div>"
        },
        "status": "final",
        "subject": {
          "reference": "urn:uuid:7588bcc5-a592-4692-9834-b32fe94e322a",
          "display": "Maria Nohlmans"
        },
        "effectiveDateTime": "2018-07-19T15:34:24Z",
        "specimen": {
          "reference": "urn:uuid:8b8efdbb-db27-4751-8710-39e6b128b90a"
        }
      }
    },
    {
      "fullUrl": "urn:uuid:0dc67337-5e7b-4216-babe-1e3de6347a3d",
      "resource": {
        "resourceType": "Observation",
        "id": "0dc67337-5e7b-4216-babe-1e3de6347a3d",
        "meta": {
          "profile": [
            "http://hl7.eu/fhir/laboratory/StructureDefinition/Observation-resultslab-eu-lab"
          ]
        },
        "performer": [
          {
            "display": "The Central European Lab"
          }
        ],
        "category": [
          {
            "coding": [
              {
                "system": "http://terminology.hl7.org/CodeSystem/observation-category",
                "code": "laboratory"
              }
            ]
          }
        ],
        "code": {
          "coding": [
            {
              "code": "2947-0",
              "system": "http://loinc.org",
              "display": "Sodium [Moles/volume] in Blood"
            }
          ],
          "text": "Sodium [Moles/volume] in Blood"
        },
        "valueQuantity": {
          "system": "http://unitsofmeasure.org",
          "value": 141.3,
          "unit": "mmol/L",
          "code": "mmol/L"
        },
        "referenceRange": [
          {
            "low": {
              "value": 135,
              "code": "mmol/L",
              "system": "http://unitsofmeasure.org"
            }
          },
          {
            "high": {
              "value": 145,
              "code": "mmol/L",
              "system": "http://unitsofmeasure.org"
            }
          }
        ],
        "text": {
          "status": "generated",
          "div": "<div xmlns=\"http://www.w3.org/1999/xhtml\"><table class=\"hl7__eu__lab__report\"><tr><th>Test</th><th>19-Jul-2018</th><th>Reference&#xA0;Range</th><th>Unit</th></tr><tr><td>Sodium [Moles/volume] in Blood</td><td>141.3</td><td>135 - 145</td><td></td><td>mmol/L</td></tr></table></div>"
        },
        "status": "final",
        "subject": {
          "reference": "urn:uuid:7588bcc5-a592-4692-9834-b32fe94e322a",
          "display": "Maria Nohlmans"
        },
        "effectiveDateTime": "2018-07-19T15:34:24Z",
        "specimen": {
          "reference": "urn:uuid:8b8efdbb-db27-4751-8710-39e6b128b90a"
        }
      }
    },
    {
      "fullUrl": "urn:uuid:a0d83c64-6e59-403e-acf3-2a9d84ea8eef",
      "resource": {
        "resourceType": "Observation",
        "id": "a0d83c64-6e59-403e-acf3-2a9d84ea8eef",
        "meta": {
          "profile": [
            "http://hl7.eu/fhir/laboratory/StructureDefinition/Observation-resultslab-eu-lab"
          ]
        },
        "performer": [
          {
            "display": "The Central European Lab"
          }
        ],
        "category": [
          {
            "coding": [
              {
                "system": "http://terminology.hl7.org/CodeSystem/observation-category",
                "code": "laboratory"
              }
            ]
          }
        ],
        "code": {
          "coding": [
            {
              "code": "6298-4",
              "system": "http://loinc.org",
              "display": "Potassium [Moles/volume] in Blood"
            }
          ],
          "text": "Potassium [Moles/volume] in Blood"
        },
        "valueQuantity": {
          "system": "http://unitsofmeasure.org",
          "value": 4.5,
          "unit": "mmol/L",
          "code": "mmol/L"
        },
        "referenceRange": [
          {
            "low": {
              "value": 3.5,
              "code": "mmol/L",
              "system": "http://unitsofmeasure.org"
            }
          },
          {
            "high": {
              "value": 5.1,
              "code": "mmol/L",
              "system": "http://unitsofmeasure.org"
            }
          }
        ],
        "text": {
          "status": "generated",
          "div": "<div xmlns=\"http://www.w3.org/1999/xhtml\"><table class=\"hl7__eu__lab__report\"><tr><th>Test</th><th>19-Jul-2018</th><th>Reference&#xA0;Range</th><th>Unit</th></tr><tr><td>Potassium [Moles/volume] in Blood</td><td>4.5</td><td>3.5 - 5.1</td><td></td><td>mmol/L</td></tr></table></div>"
        },
        "status": "final",
        "subject": {
          "reference": "urn:uuid:7588bcc5-a592-4692-9834-b32fe94e322a",
          "display": "Maria Nohlmans"
        },
        "effectiveDateTime": "2018-07-19T15:34:24Z",
        "specimen": {
          "reference": "urn:uuid:8b8efdbb-db27-4751-8710-39e6b128b90a"
        }
      }
    },
    {
      "fullUrl": "urn:uuid:778b0164-e66c-4296-8552-483c30978099",
      "resource": {
        "resourceType": "Observation",
        "id": "778b0164-e66c-4296-8552-483c30978099",
        "meta": {
          "profile": [
            "http://hl7.eu/fhir/laboratory/StructureDefinition/Observation-resultslab-eu-lab"
          ]
        },
        "performer": [
          {
            "display": "The Central European Lab"
          }
        ],
        "category": [
          {
            "coding": [
              {
                "system": "http://terminology.hl7.org/CodeSystem/observation-category",
                "code": "laboratory"
              }
            ]
          }
        ],
        "code": {
          "coding": [
            {
              "code": "2069-3",
              "system": "http://loinc.org",
              "display": "Chloride [Moles/volume] in Blood"
            }
          ],
          "text": "Chloride [Moles/volume] in Blood"
        },
        "valueQuantity": {
          "system": "http://unitsofmeasure.org",
          "value": 107.8,
          "unit": "mmol/L",
          "code": "mmol/L"
        },
        "referenceRange": [
          {
            "low": {
              "value": 98,
              "code": "mmol/L",
              "system": "http://unitsofmeasure.org"
            }
          },
          {
            "high": {
              "value": 114,
              "code": "mmol/L",
              "system": "http://unitsofmeasure.org"
            }
          }
        ],
        "text": {
          "status": "generated",
          "div": "<div xmlns=\"http://www.w3.org/1999/xhtml\"><table class=\"hl7__eu__lab__report\"><tr><th>Test</th><th>19-Jul-2018</th><th>Reference&#xA0;Range</th><th>Unit</th></tr><tr><td>Chloride [Moles/volume] in Blood</td><td>107.8</td><td>98 - 114</td><td></td><td>mmol/L</td></tr></table></div>"
        },
        "status": "final",
        "subject": {
          "reference": "urn:uuid:7588bcc5-a592-4692-9834-b32fe94e322a",
          "display": "Maria Nohlmans"
        },
        "effectiveDateTime": "2018-07-19T15:34:24Z",
        "specimen": {
          "reference": "urn:uuid:8b8efdbb-db27-4751-8710-39e6b128b90a"
        }
      }
    },
    {
      "fullUrl": "urn:uuid:250715d3-0a84-41bd-b617-45ee1946368e",
      "resource": {
        "resourceType": "Observation",
        "id": "250715d3-0a84-41bd-b617-45ee1946368e",
        "meta": {
          "profile": [
            "http://hl7.eu/fhir/laboratory/StructureDefinition/Observation-resultslab-eu-lab"
          ]
        },
        "performer": [
          {
            "display": "The Central European Lab"
          }
        ],
        "category": [
          {
            "coding": [
              {
                "system": "http://terminology.hl7.org/CodeSystem/observation-category",
                "code": "laboratory"
              }
            ]
          }
        ],
        "code": {
          "coding": [
            {
              "code": "20565-8",
              "system": "http://loinc.org",
              "display": "Carbon dioxide, total [Moles/volume] in Blood"
            }
          ],
          "text": "Carbon dioxide, total [Moles/volume] in Blood"
        },
        "valueQuantity": {
          "system": "http://unitsofmeasure.org",
          "value": 24.4,
          "unit": "mmol/L",
          "code": "mmol/L"
        },
        "referenceRange": [
          {
            "low": {
              "value": 22,
              "code": "mmol/L",
              "system": "http://unitsofmeasure.org"
            }
          },
          {
            "high": {
              "value": 32,
              "code": "mmol/L",
              "system": "http://unitsofmeasure.org"
            }
          }
        ],
        "text": {
          "status": "generated",
          "div": "<div xmlns=\"http://www.w3.org/1999/xhtml\"><table class=\"hl7__eu__lab__report\"><tr><th>Test</th><th>19-Jul-2018</th><th>Reference&#xA0;Range</th><th>Unit</th></tr><tr><td>Carbon dioxide, total [Moles/volume] in Blood</td><td>24.4</td><td>22 - 32</td><td></td><td>mmol/L</td></tr></table></div>"
        },
        "status": "final",
        "subject": {
          "reference": "urn:uuid:7588bcc5-a592-4692-9834-b32fe94e322a",
          "display": "Maria Nohlmans"
        },
        "effectiveDateTime": "2018-07-19T15:34:24Z",
        "specimen": {
          "reference": "urn:uuid:8b8efdbb-db27-4751-8710-39e6b128b90a"
        }
      }
    },
    {
      "fullUrl": "urn:uuid:cf1b59ea-d511-43cb-895b-843a027189d4",
      "resource": {
        "resourceType": "Observation",
        "id": "cf1b59ea-d511-43cb-895b-843a027189d4",
        "meta": {
          "profile": [
            "http://hl7.eu/fhir/laboratory/StructureDefinition/Observation-resultslab-eu-lab"
          ]
        },
        "performer": [
          {
            "display": "The Central European Lab"
          }
        ],
        "category": [
          {
            "coding": [
              {
                "system": "http://terminology.hl7.org/CodeSystem/observation-category",
                "code": "laboratory"
              }
            ]
          }
        ],
        "code": {
          "coding": [
            {
              "code": "6690-2",
              "system": "http://loinc.org",
              "display": "Leukocytes [#/volume] in Blood by Automated count"
            }
          ],
          "text": "Leukocytes [#/volume] in Blood by Automated count"
        },
        "valueQuantity": {
          "system": "http://unitsofmeasure.org",
          "value": 9.8,
          "unit": "10*3/uL",
          "code": "10*3/uL"
        },
        "referenceRange": [
          {
            "low": {
              "value": 4,
              "code": "10*3/uL",
              "system": "http://unitsofmeasure.org"
            }
          },
          {
            "high": {
              "value": 11,
              "code": "10*3/uL",
              "system": "http://unitsofmeasure.org"
            }
          }
        ],
        "text": {
          "status": "generated",
          "div": "<div xmlns=\"http://www.w3.org/1999/xhtml\"><table class=\"hl7__eu__lab__report\"><tr><th>Test</th><th>19-Jul-2018</th><th>Reference&#xA0;Range</th><th>Unit</th></tr><tr><td>Leukocytes [#/volume] in Blood by Automated count</td><td>9.8</td><td>4 - 11</td><td></td><td>10*3/uL</td></tr></table></div>"
        },
        "status": "final",
        "subject": {
          "reference": "urn:uuid:7588bcc5-a592-4692-9834-b32fe94e322a",
          "display": "Maria Nohlmans"
        },
        "effectiveDateTime": "2018-07-19T15:34:24Z",
        "specimen": {
          "reference": "urn:uuid:8b8efdbb-db27-4751-8710-39e6b128b90a"
        }
      }
    },
    {
      "fullUrl": "urn:uuid:ec4b78ca-6189-4247-a94c-35c8339f0659",
      "resource": {
        "resourceType": "Observation",
        "id": "ec4b78ca-6189-4247-a94c-35c8339f0659",
        "meta": {
          "profile": [
            "http://hl7.eu/fhir/laboratory/StructureDefinition/Observation-resultslab-eu-lab"
          ]
        },
        "performer": [
          {
            "display": "The Central European Lab"
          }
        ],
        "category": [
          {
            "coding": [
              {
                "system": "http://terminology.hl7.org/CodeSystem/observation-category",
                "code": "laboratory"
              }
            ]
          }
        ],
        "code": {
          "coding": [
            {
              "code": "789-8",
              "system": "http://loinc.org",
              "display": "Erythrocytes [#/volume] in Blood by Automated count"
            }
          ],
          "text": "Erythrocytes [#/volume] in Blood by Automated count"
        },
        "valueQuantity": {
          "system": "http://unitsofmeasure.org",
          "value": 4.1,
          "unit": "10*6/uL",
          "code": "10*6/uL"
        },
        "referenceRange": [
          {
            "low": {
              "value": 3.9,
              "code": "10*6/uL",
              "system": "http://unitsofmeasure.org"
            }
          },
          {
            "high": {
              "value": 5.2,
              "code": "10*6/uL",
              "system": "http://unitsofmeasure.org"
            }
          }
        ],
        "text": {
          "status": "generated",
          "div": "<div xmlns=\"http://www.w3.org/1999/xhtml\"><table class=\"hl7__eu__lab__report\"><tr><th>Test</th><th>19-Jul-2018</th><th>Reference&#xA0;Range</th><th>Unit</th></tr><tr><td>Erythrocytes [#/volume] in Blood by Automated count</td><td>4.1</td><td>3.9 - 5.2</td><td></td><td>10*6/uL</td></tr></table></div>"
        },
        "status": "final",
        "subject": {
          "reference": "urn:uuid:7588bcc5-a592-4692-9834-b32fe94e322a",
          "display": "Maria Nohlmans"
        },
        "effectiveDateTime": "2018-07-19T15:34:24Z",
        "specimen": {
          "reference": "urn:uuid:8b8efdbb-db27-4751-8710-39e6b128b90a"
        }
      }
    },
    {
      "fullUrl": "urn:uuid:a2aa343f-c622-43c0-a8a4-fd9038c01418",
      "resource": {
        "resourceType": "Observation",
        "id": "a2aa343f-c622-43c0-a8a4-fd9038c01418",
        "meta": {
          "profile": [
            "http://hl7.eu/fhir/laboratory/StructureDefinition/Observation-resultslab-eu-lab"
          ]
        },
        "performer": [
          {
            "display": "The Central European Lab"
          }
        ],
        "category": [
          {
            "coding": [
              {
                "system": "http://terminology.hl7.org/CodeSystem/observation-category",
                "code": "laboratory"
              }
            ]
          }
        ],
        "code": {
          "coding": [
            {
              "code": "718-7",
              "system": "http://loinc.org",
              "display": "Hemoglobin [Mass/volume] in Blood"
            }
          ],
          "text": "Hemoglobin [Mass/volume] in Blood"
        },
        "valueQuantity": {
          "system": "http://unitsofmeasure.org",
          "value": 12.9,
          "unit": "g/dL",
          "code": "g/dL"
        },
        "referenceRange": [
          {
            "low": {
              "value": 12,
              "code": "g/dL",
              "system": "http://unitsofmeasure.org"
            }
          },
          {
            "high": {
              "value": 15.5,
              "code": "g/dL",
              "system": "http://unitsofmeasure.org"
            }
          }
        ],
        "text": {
          "status": "generated",
          "div": "<div xmlns=\"http://www.w3.org/1999/xhtml\"><table class=\"hl7__eu__lab__report\"><tr><th>Test</th><th>19-Jul-2018</th><th>Reference&#xA0;Range</th><th>Unit</th></tr><tr><td>Hemoglobin [Mass/volume] in Blood</td><td>12.9</td><td>12 - 15.5</td><td></td><td>g/dL</td></tr></table></div>"
        },
        "status": "final",
        "subject": {
          "reference": "urn:uuid:7588bcc5-a592-4692-9834-b32fe94e322a",
          "display": "Maria Nohlmans"
        },
        "effectiveDateTime": "2018-07-19T15:34:24Z",
        "specimen": {
          "reference": "urn:uuid:8b8efdbb-db27-4751-8710-39e6b128b90a"
        }
      }
    },
    {
      "fullUrl": "urn:uuid:a5e1fc6a-773f-45c4-b78d-9ee7f71ba4b1",
      "resource": {
        "resourceType": "Observation",
        "id": "a5e1fc6a-773f-45c4-b78d-9ee7f71ba4b1",
        "meta": {
          "profile": [
            "http://hl7.eu/fhir/laboratory/StructureDefinition/Observation-resultslab-eu-lab"
          ]
        },
        "performer": [
          {
            "display": "The Central European Lab"
          }
        ],
        "category": [
          {
            "coding": [
              {
                "system": "http://terminology.hl7.org/CodeSystem/observation-category",
                "code": "laboratory"
              }
            ]
          }
        ],
        "code": {
          "coding": [
            {
              "code": "4544-3",
              "system": "http://loinc.org",
              "display": "Hematocrit [Volume Fraction] of Blood by Automated count"
            }
          ],
          "text": "Hematocrit [Volume Fraction] of Blood by Automated count"
        },
        "valueQuantity": {
          "system": "http://unitsofmeasure.org",
          "value": 48.3,
          "unit": "%",
          "code": "%"
        },
        "referenceRange": [
          {
            "low": {
              "value": 38,
              "code": "%",
              "system": "http://unitsofmeasure.org"
            }
          },
          {
            "high": {
              "value": 54,
              "code": "%",
              "system": "http://unitsofmeasure.org"
            }
          }
        ],
        "text": {
          "status": "generated",
          "div": "<div xmlns=\"http://www.w3.org/1999/xhtml\"><table class=\"hl7__eu__lab__report\"><tr><th>Test</th><th>19-Jul-2018</th><th>Reference&#xA0;Range</th><th>Unit</th></tr><tr><td>Hematocrit [Volume Fraction] of Blood by Automated count</td><td>48.3</td><td>38 - 54</td><td></td><td>%</td></tr></table></div>"
        },
        "status": "final",
        "subject": {
          "reference": "urn:uuid:7588bcc5-a592-4692-9834-b32fe94e322a",
          "display": "Maria Nohlmans"
        },
        "effectiveDateTime": "2018-07-19T15:34:24Z",
        "specimen": {
          "reference": "urn:uuid:8b8efdbb-db27-4751-8710-39e6b128b90a"
        }
      }
    },
    {
      "fullUrl": "urn:uuid:4fd0751f-8e91-4c41-9d79-e7cb6979573d",
      "resource": {
        "resourceType": "Observation",
        "id": "4fd0751f-8e91-4c41-9d79-e7cb6979573d",
        "meta": {
          "profile": [
            "http://hl7.eu/fhir/laboratory/StructureDefinition/Observation-resultslab-eu-lab"
          ]
        },
        "performer": [
          {
            "display": "The Central European Lab"
          }
        ],
        "category": [
          {
            "coding": [
              {
                "system": "http://terminology.hl7.org/CodeSystem/observation-category",
                "code": "laboratory"
              }
            ]
          }
        ],
        "code": {
          "coding": [
            {
              "code": "787-2",
              "system": "http://loinc.org",
              "display": "MCV [Entitic volume] by Automated count"
            }
          ],
          "text": "MCV [Entitic volume] by Automated count"
        },
        "valueQuantity": {
          "system": "http://unitsofmeasure.org",
          "value": 81.4,
          "unit": "fL",
          "code": "fL"
        },
        "referenceRange": [
          {
            "low": {
              "value": 78,
              "code": "fL",
              "system": "http://unitsofmeasure.org"
            }
          },
          {
            "high": {
              "value": 98,
              "code": "fL",
              "system": "http://unitsofmeasure.org"
            }
          }
        ],
        "text": {
          "status": "generated",
          "div": "<div xmlns=\"http://www.w3.org/1999/xhtml\"><table class=\"hl7__eu__lab__report\"><tr><th>Test</th><th>19-Jul-2018</th><th>Reference&#xA0;Range</th><th>Unit</th></tr><tr><td>MCV [Entitic volume] by Automated count</td><td>81.4</td><td>78 - 98</td><td></td><td>fL</td></tr></table></div>"
        },
        "status": "final",
        "subject": {
          "reference": "urn:uuid:7588bcc5-a592-4692-9834-b32fe94e322a",
          "display": "Maria Nohlmans"
        },
        "effectiveDateTime": "2018-07-19T15:34:24Z",
        "specimen": {
          "reference": "urn:uuid:8b8efdbb-db27-4751-8710-39e6b128b90a"
        }
      }
    },
    {
      "fullUrl": "urn:uuid:7d459b62-bb6b-41a3-ac74-1ae4813f4d1a",
      "resource": {
        "resourceType": "Observation",
        "id": "7d459b62-bb6b-41a3-ac74-1ae4813f4d1a",
        "meta": {
          "profile": [
            "http://hl7.eu/fhir/laboratory/StructureDefinition/Observation-resultslab-eu-lab"
          ]
        },
        "performer": [
          {
            "display": "The Central European Lab"
          }
        ],
        "category": [
          {
            "coding": [
              {
                "system": "http://terminology.hl7.org/CodeSystem/observation-category",
                "code": "laboratory"
              }
            ]
          }
        ],
        "code": {
          "coding": [
            {
              "code": "785-6",
              "system": "http://loinc.org",
              "display": "MCH [Entitic mass] by Automated count"
            }
          ],
          "text": "MCH [Entitic mass] by Automated count"
        },
        "valueQuantity": {
          "system": "http://unitsofmeasure.org",
          "value": 29.1,
          "unit": "pg",
          "code": "pg"
        },
        "referenceRange": [
          {
            "low": {
              "value": 27,
              "code": "pg",
              "system": "http://unitsofmeasure.org"
            }
          },
          {
            "high": {
              "value": 33,
              "code": "pg",
              "system": "http://unitsofmeasure.org"
            }
          }
        ],
        "text": {
          "status": "generated",
          "div": "<div xmlns=\"http://www.w3.org/1999/xhtml\"><table class=\"hl7__eu__lab__report\"><tr><th>Test</th><th>19-Jul-2018</th><th>Reference&#xA0;Range</th><th>Unit</th></tr><tr><td>MCH [Entitic mass] by Automated count</td><td>29.1</td><td>27 - 33</td><td></td><td>pg</td></tr></table></div>"
        },
        "status": "final",
        "subject": {
          "reference": "urn:uuid:7588bcc5-a592-4692-9834-b32fe94e322a",
          "display": "Maria Nohlmans"
        },
        "effectiveDateTime": "2018-07-19T15:34:24Z",
        "specimen": {
          "reference": "urn:uuid:8b8efdbb-db27-4751-8710-39e6b128b90a"
        }
      }
    },
    {
      "fullUrl": "urn:uuid:d9490dc5-72f7-462a-8eab-b258fc528ef6",
      "resource": {
        "resourceType": "Observation",
        "id": "d9490dc5-72f7-462a-8eab-b258fc528ef6",
        "meta": {
          "profile": [
            "http://hl7.eu/fhir/laboratory/StructureDefinition/Observation-resultslab-eu-lab"
          ]
        },
        "performer": [
          {
            "display": "The Central European Lab"
          }
        ],
        "category": [
          {
            "coding": [
              {
                "system": "http://terminology.hl7.org/CodeSystem/observation-category",
                "code": "laboratory"
              }
            ]
          }
        ],
        "code": {
          "coding": [
            {
              "code": "786-4",
              "system": "http://loinc.org",
              "display": "MCHC [Mass/volume] by Automated count"
            }
          ],
          "text": "MCHC [Mass/volume] by Automated count"
        },
        "valueQuantity": {
          "system": "http://unitsofmeasure.org",
          "value": 33.2,
          "unit": "g/dL",
          "code": "g/dL"
        },
        "referenceRange": [
          {
            "low": {
              "value": 31,
              "code": "g/dL",
              "system": "http://unitsofmeasure.org"
            }
          },
          {
            "high": {
              "value": 35,
              "code": "g/dL",
              "system": "http://unitsofmeasure.org"
            }
          }
        ],
        "text": {
          "status": "generated",
          "div": "<div xmlns=\"http://www.w3.org/1999/xhtml\"><table class=\"hl7__eu__lab__report\"><tr><th>Test</th><th>19-Jul-2018</th><th>Reference&#xA0;Range</th><th>Unit</th></tr><tr><td>MCHC [Mass/volume] by Automated count</td><td>33.2</td><td>31 - 35</td><td></td><td>g/dL</td></tr></table></div>"
        },
        "status": "final",
        "subject": {
          "reference": "urn:uuid:7588bcc5-a592-4692-9834-b32fe94e322a",
          "display": "Maria Nohlmans"
        },
        "effectiveDateTime": "2018-07-19T15:34:24Z",
        "specimen": {
          "reference": "urn:uuid:8b8efdbb-db27-4751-8710-39e6b128b90a"
        }
      }
    },
    {
      "fullUrl": "urn:uuid:16d640d7-fa37-4814-a647-97e6963c9fd2",
      "resource": {
        "resourceType": "Observation",
        "id": "16d640d7-fa37-4814-a647-97e6963c9fd2",
        "meta": {
          "profile": [
            "http://hl7.eu/fhir/laboratory/StructureDefinition/Observation-resultslab-eu-lab"
          ]
        },
        "performer": [
          {
            "display": "The Central European Lab"
          }
        ],
        "category": [
          {
            "coding": [
              {
                "system": "http://terminology.hl7.org/CodeSystem/observation-category",
                "code": "laboratory"
              }
            ]
          }
        ],
        "code": {
          "coding": [
            {
              "code": "21000-5",
              "system": "http://loinc.org",
              "display": "Erythrocyte distribution width [Entitic volume] by Automated count"
            }
          ],
          "text": "Erythrocyte distribution width [Entitic volume] by Automated count"
        },
        "valueQuantity": {
          "system": "http://unitsofmeasure.org",
          "value": 42,
          "unit": "fL",
          "code": "fL"
        },
        "referenceRange": [
          {
            "low": {
              "value": 36,
              "code": "fL",
              "system": "http://unitsofmeasure.org"
            }
          },
          {
            "high": {
              "value": 56,
              "code": "fL",
              "system": "http://unitsofmeasure.org"
            }
          }
        ],
        "text": {
          "status": "generated",
          "div": "<div xmlns=\"http://www.w3.org/1999/xhtml\"><table class=\"hl7__eu__lab__report\"><tr><th>Test</th><th>19-Jul-2018</th><th>Reference&#xA0;Range</th><th>Unit</th></tr><tr><td>Erythrocyte distribution width [Entitic volume] by Automated count</td><td>42.0</td><td>36 - 56</td><td></td><td>fL</td></tr></table></div>"
        },
        "status": "final",
        "subject": {
          "reference": "urn:uuid:7588bcc5-a592-4692-9834-b32fe94e322a",
          "display": "Maria Nohlmans"
        },
        "effectiveDateTime": "2018-07-19T15:34:24Z",
        "specimen": {
          "reference": "urn:uuid:8b8efdbb-db27-4751-8710-39e6b128b90a"
        }
      }
    },
    {
      "fullUrl": "urn:uuid:37126c2c-2f00-45c8-b1e2-c9a8464c60f5",
      "resource": {
        "resourceType": "Observation",
        "id": "37126c2c-2f00-45c8-b1e2-c9a8464c60f5",
        "meta": {
          "profile": [
            "http://hl7.eu/fhir/laboratory/StructureDefinition/Observation-resultslab-eu-lab"
          ]
        },
        "performer": [
          {
            "display": "The Central European Lab"
          }
        ],
        "category": [
          {
            "coding": [
              {
                "system": "http://terminology.hl7.org/CodeSystem/observation-category",
                "code": "laboratory"
              }
            ]
          }
        ],
        "code": {
          "coding": [
            {
              "code": "777-3",
              "system": "http://loinc.org",
              "display": "Platelets [#/volume] in Blood by Automated count"
            }
          ],
          "text": "Platelets [#/volume] in Blood by Automated count"
        },
        "valueQuantity": {
          "system": "http://unitsofmeasure.org",
          "value": 237.1,
          "unit": "10*3/uL",
          "code": "10*3/uL"
        },
        "referenceRange": [
          {
            "low": {
              "value": 150,
              "code": "10*3/uL",
              "system": "http://unitsofmeasure.org"
            }
          },
          {
            "high": {
              "value": 450,
              "code": "10*3/uL",
              "system": "http://unitsofmeasure.org"
            }
          }
        ],
        "text": {
          "status": "generated",
          "div": "<div xmlns=\"http://www.w3.org/1999/xhtml\"><table class=\"hl7__eu__lab__report\"><tr><th>Test</th><th>19-Jul-2018</th><th>Reference&#xA0;Range</th><th>Unit</th></tr><tr><td>Platelets [#/volume] in Blood by Automated count</td><td>237.1</td><td>150 - 450</td><td></td><td>10*3/uL</td></tr></table></div>"
        },
        "status": "final",
        "subject": {
          "reference": "urn:uuid:7588bcc5-a592-4692-9834-b32fe94e322a",
          "display": "Maria Nohlmans"
        },
        "effectiveDateTime": "2018-07-19T15:34:24Z",
        "specimen": {
          "reference": "urn:uuid:8b8efdbb-db27-4751-8710-39e6b128b90a"
        }
      }
    },
    {
      "fullUrl": "urn:uuid:627988b5-5576-4a24-a08a-d49a38d7de7b",
      "resource": {
        "resourceType": "Observation",
        "id": "627988b5-5576-4a24-a08a-d49a38d7de7b",
        "meta": {
          "profile": [
            "http://hl7.eu/fhir/laboratory/StructureDefinition/Observation-resultslab-eu-lab"
          ]
        },
        "performer": [
          {
            "display": "The Central European Lab"
          }
        ],
        "category": [
          {
            "coding": [
              {
                "system": "http://terminology.hl7.org/CodeSystem/observation-category",
                "code": "laboratory"
              }
            ]
          }
        ],
        "code": {
          "coding": [
            {
              "code": "32207-3",
              "system": "http://loinc.org",
              "display": "Platelet distribution width [Entitic volume] in Blood by Automated count"
            }
          ],
          "text": "Platelet distribution width [Entitic volume] in Blood by Automated count"
        },
        "valueQuantity": {
          "system": "http://unitsofmeasure.org",
          "value": 164.5,
          "unit": "fL",
          "code": "fL"
        },
        "referenceRange": [
          {
            "low": {
              "value": 15.5,
              "code": "fL",
              "system": "http://unitsofmeasure.org"
            }
          },
          {
            "high": {
              "value": 450,
              "code": "fL",
              "system": "http://unitsofmeasure.org"
            }
          }
        ],
        "text": {
          "status": "generated",
          "div": "<div xmlns=\"http://www.w3.org/1999/xhtml\"><table class=\"hl7__eu__lab__report\"><tr><th>Test</th><th>19-Jul-2018</th><th>Reference&#xA0;Range</th><th>Unit</th></tr><tr><td>Platelet distribution width [Entitic volume] in Blood by Automated count</td><td>164.5</td><td>15.5 - 450</td><td></td><td>fL</td></tr></table></div>"
        },
        "status": "final",
        "subject": {
          "reference": "urn:uuid:7588bcc5-a592-4692-9834-b32fe94e322a",
          "display": "Maria Nohlmans"
        },
        "effectiveDateTime": "2018-07-19T15:34:24Z",
        "specimen": {
          "reference": "urn:uuid:8b8efdbb-db27-4751-8710-39e6b128b90a"
        }
      }
    },
    {
      "fullUrl": "urn:uuid:fe81787d-c4f3-461e-bcb7-2826dc1b2e01",
      "resource": {
        "resourceType": "Observation",
        "id": "fe81787d-c4f3-461e-bcb7-2826dc1b2e01",
        "meta": {
          "profile": [
            "http://hl7.eu/fhir/laboratory/StructureDefinition/Observation-resultslab-eu-lab"
          ]
        },
        "performer": [
          {
            "display": "The Central European Lab"
          }
        ],
        "category": [
          {
            "coding": [
              {
                "system": "http://terminology.hl7.org/CodeSystem/observation-category",
                "code": "laboratory"
              }
            ]
          }
        ],
        "code": {
          "coding": [
            {
              "code": "32623-1",
              "system": "http://loinc.org",
              "display": "Platelet mean volume [Entitic volume] in Blood by Automated count"
            }
          ],
          "text": "Platelet mean volume [Entitic volume] in Blood by Automated count"
        },
        "valueQuantity": {
          "system": "http://unitsofmeasure.org",
          "value": 11.6,
          "unit": "fL",
          "code": "fL"
        },
        "referenceRange": [
          {
            "low": {
              "value": 7.2,
              "code": "fL",
              "system": "http://unitsofmeasure.org"
            }
          },
          {
            "high": {
              "value": 13.5,
              "code": "fL",
              "system": "http://unitsofmeasure.org"
            }
          }
        ],
        "text": {
          "status": "generated",
          "div": "<div xmlns=\"http://www.w3.org/1999/xhtml\"><table class=\"hl7__eu__lab__report\"><tr><th>Test</th><th>19-Jul-2018</th><th>Reference&#xA0;Range</th><th>Unit</th></tr><tr><td>Platelet mean volume [Entitic volume] in Blood by Automated count</td><td>11.6</td><td>7.2 - 13.5</td><td></td><td>fL</td></tr></table></div>"
        },
        "status": "final",
        "subject": {
          "reference": "urn:uuid:7588bcc5-a592-4692-9834-b32fe94e322a",
          "display": "Maria Nohlmans"
        },
        "effectiveDateTime": "2018-07-19T15:34:24Z",
        "specimen": {
          "reference": "urn:uuid:8b8efdbb-db27-4751-8710-39e6b128b90a"
        }
      }
    },
    {
      "fullUrl": "urn:uuid:aba536c6-4d19-451b-8515-0009ca166141",
      "resource": {
        "resourceType": "Device",
        "id": "aba536c6-4d19-451b-8515-0009ca166141",
        "deviceName": [
          {
            "name": "SYNDERAI Synthetic Generator",
            "type": "manufacturer-name"
          }
        ],
        "version": [
          {
            "value": "5.0"
          }
        ],
        "text": {
          "status": "generated",
          "div": "<div xmlns=\"http://www.w3.org/1999/xhtml\">SYNDERAI Synthetic Generator v5.0</div>"
        },
        "status": "active\"",
        "distinctIdentifier": "synderai-generator-50",
        "manufacturer": "SYNDERAI Project"
      }
    },
    {
      "fullUrl": "urn:uuid:3b12bd85-1506-429e-a8e0-976927c977c4",
      "resource": {
        "resourceType": "Provenance",
        "id": "3b12bd85-1506-429e-a8e0-976927c977c4",
        "target": [
          {
            "reference": "Patient/7588bcc5-a592-4692-9834-b32fe94e322a"
          },
          {
            "reference": "Bundle/0e7d15a8-88b7-463d-a73e-93c407d6a989"
          },
          {
            "reference": "Composition/545baba8-8b20-4350-9027-a3bae3407d95"
          },
          {
            "reference": "PractitionerRole/3958ed33-7eff-4aee-96bf-8ab7696d8380"
          },
          {
            "reference": "Practitioner/c661a0db-5ab2-4488-bc95-f5b41566db02"
          },
          {
            "reference": "PractitionerRole/91418e90-a376-4509-b960-b16b6e7e3672"
          },
          {
            "reference": "Organization/01d2d20e-ecc1-42b3-b452-a2a60ff19db4"
          }
        ],
        "activity": {
          "text": "Synthetic Example Data Generation"
        },
        "policy": [
          "https://synderai.net/synderai-synthetic-data-policy"
        ],
        "agent": [
          {
            "type": {
              "text": "author"
            },
            "who": {
              "reference": "Device/aba536c6-4d19-451b-8515-0009ca166141"
            }
          }
        ],
        "reason": [
          {
            "text": "Interoperability Testing and Training (non-clinical use)"
          }
        ],
        "text": {
          "status": "generated",
          "div": "<div xmlns=\"http://www.w3.org/1999/xhtml\">Provenance for SYNDERAI Synthetic Example Data Resource</div>"
        },
        "recorded": "2018-07-19T17:34:24Z"
      }
    },
    {
      "fullUrl": "urn:uuid:3958ed33-7eff-4aee-96bf-8ab7696d8380",
      "resource": {
        "resourceType": "PractitionerRole",
        "id": "3958ed33-7eff-4aee-96bf-8ab7696d8380",
        "meta": {
          "profile": [
            "http://hl7.eu/fhir/base/StructureDefinition/practitionerRole-eu"
          ]
        },
        "text": {
          "status": "generated",
          "div": "<div xmlns=\"http://www.w3.org/1999/xhtml\">Laboratory Role Id: 3958ed33-7eff-4aee-96bf-8ab7696d8380</div>"
        },
        "practitioner": {
          "reference": "urn:uuid:c661a0db-5ab2-4488-bc95-f5b41566db02"
        }
      }
    },
    {
      "fullUrl": "urn:uuid:c661a0db-5ab2-4488-bc95-f5b41566db02",
      "resource": {
        "resourceType": "Practitioner",
        "id": "c661a0db-5ab2-4488-bc95-f5b41566db02",
        "meta": {
          "profile": [
            "http://hl7.eu/fhir/base/StructureDefinition/practitioner-eu"
          ]
        },
        "identifier": [
          {
            "assigner": {
              "display": "HL7 Europe"
            },
            "system": "urn:oid:2.16.840.1.113883.2.51.999",
            "value": "a79f2a9b-08c9-4abc-9da6-5e33c34da793"
          }
        ],
        "name": [
          {
            "prefix": [
              "dr"
            ],
            "given": [
              "Ex"
            ],
            "family": "Ample"
          }
        ],
        "address": [
          {
            "line": [
              "Laboratoire Central Européenne",
              "Boulevard du Jardin Botanique 32"
            ],
            "postalCode": "1000",
            "city": "Brussels",
            "country": "Belgium"
          }
        ],
        "text": {
          "status": "generated",
          "div": "<div xmlns=\"http://www.w3.org/1999/xhtml\">Laboratory: Laboratoire Central Européenne, 1000 Brussels, Belgium</div>"
        }
      }
    }
  ],
  "type": "document",
  "timestamp": "2018-07-19T17:34:24Z"
}
