{
  "resourceType": "Bundle",
  "id": "07c67b27-e37e-45da-a750-c527c45f2c77",
  "meta": {
    "profile": [
      "http://hl7.eu/fhir/laboratory/StructureDefinition/Bundle-eu-lab"
    ]
  },
  "identifier": {
    "assigner": {
      "display": "HL7 Europe"
    },
    "system": "urn:oid:2.16.840.1.113883.2.51.999",
    "value": "8b465305-84be-4e01-a133-0b458df5d9aa"
  },
  "entry": [
    {
      "fullUrl": "urn:uuid:58570ec3-7ffe-4f49-bd8b-c29305d76e64",
      "resource": {
        "resourceType": "Composition",
        "id": "58570ec3-7ffe-4f49-bd8b-c29305d76e64",
        "meta": {
          "profile": [
            "http://hl7.eu/fhir/laboratory/StructureDefinition/Composition-eu-lab"
          ]
        },
        "identifier": {
          "assigner": {
            "display": "HL7 Europe"
          },
          "system": "urn:oid:2.16.840.1.113883.2.51.999",
          "value": "c5571f59-75d7-4943-a514-4a220f5a402e"
        },
        "author": [
          {
            "reference": "urn:uuid:531bc3c1-19d8-429c-b5eb-867ad0caa573"
          }
        ],
        "category": [
          {
            "coding": [
              {
                "code": "26436-6",
                "system": "http://loinc.org",
                "display": "Laboratory studies (set)"
              }
            ]
          }
        ],
        "type": {
          "coding": [
            {
              "code": "11502-2",
              "system": "http://loinc.org",
              "display": "Laboratory report"
            }
          ],
          "text": "Laboratory Report"
        },
        "section": [
          {
            "code": {
              "coding": [
                {
                  "code": "26436-6",
                  "system": "http://loinc.org",
                  "display": "Laboratory studies (set)"
                }
              ],
              "text": "Laboratory studies"
            },
            "section": [
              {
                "code": {
                  "coding": [
                    {
                      "code": "$18719-5",
                      "system": "http://loinc.org",
                      "display": "Chemistry studies (set)"
                    }
                  ],
                  "text": "Chemistry"
                },
                "entry": [
                  {
                    "reference": "urn:uuid:5465aec3-a816-462f-8c46-b4f458d78e5e"
                  },
                  {
                    "reference": "urn:uuid:6fe17b47-efd9-4f71-ad54-35fb4cbcaac5"
                  },
                  {
                    "reference": "urn:uuid:ffd79bf4-932a-4082-a11d-7c2689a1abeb"
                  },
                  {
                    "reference": "urn:uuid:79719048-636e-47ef-abe7-a40ac864bc8d"
                  },
                  {
                    "reference": "urn:uuid:0836b31e-409c-4197-a345-3322c3f9e7be"
                  },
                  {
                    "reference": "urn:uuid:f9eca3bc-015c-4468-987b-07e24472b292"
                  },
                  {
                    "reference": "urn:uuid:5a4f5fe0-92ab-4d01-81a0-d51c3f0a7996"
                  },
                  {
                    "reference": "urn:uuid:d14c4693-5ebe-4008-a23b-2c537884ffa3"
                  },
                  {
                    "reference": "urn:uuid:a05c4cef-fbcf-4cf2-9288-648abb56a9c8"
                  }
                ],
                "text": {
                  "status": "generated",
                  "div": "<div xmlns=\"http://www.w3.org/1999/xhtml\"><h3>Chemistry</h3><table class=\"hl7__eu__lab__report\"><thead><tr><th>Test</th><th>15-MAR-2019</th><th>Reference&#xA0;Range</th><th>Unit</th></tr></thead><tbody><tr><td>Hemoglobin A1c/Hemoglobin.total in Blood</td><td><strong>6.1 H</strong></td><td>4.8 - 5.7</td><td>%</td></tr><tr><td>Glucose [Mass/volume] in Blood</td><td>91.6</td><td>70 - 140</td><td>mg/dL</td></tr><tr><td>Urea nitrogen [Mass/volume] in Blood</td><td>15.6</td><td>7 - 25</td><td>mg/dL</td></tr><tr><td>Creatinine [Mass/volume] in Blood</td><td>0.8</td><td>0.6 - 1.3</td><td>mg/dL</td></tr><tr><td>Calcium [Mass/volume] in Blood</td><td>9.0</td><td>8.5 - 10.5</td><td>mg/dL</td></tr><tr><td>Sodium [Moles/volume] in Blood</td><td>139.0</td><td>135 - 145</td><td>mmol/L</td></tr><tr><td>Potassium [Moles/volume] in Blood</td><td>5.0</td><td>3.5 - 5.1</td><td>mmol/L</td></tr><tr><td>Chloride [Moles/volume] in Blood</td><td>103.2</td><td>98 - 108</td><td>mmol/L</td></tr><tr><td>Carbon dioxide, total [Moles/volume] in Blood</td><td>27.4</td><td>22 - 29</td><td>mmol/L</td></tr></tbody></table></div>"
                },
                "title": "Chemistry"
              }
            ],
            "title": "Laboratory Report"
          },
          {
            "text": {
              "status": "generated",
              "div": "<div xmlns=\"http://www.w3.org/1999/xhtml\"><h3>Annotation</h3><table class=\"hl7__eu__lab__report\"><tr><th>Conclusion and Recommendations based on this report and previous findings known to us</th></tr><tr><td>All parameters are within normal limits except for a mildly elevated HbA1c (6.1%), indicating impaired glucose tolerance or prediabetes. Renal function, electrolytes, and other metabolic parameters are normal. Recommend clinical follow-up for glycemic control and lifestyle modification to prevent progression to diabetes.</td></tr></table></div>"
            },
            "code": {
              "coding": [
                {
                  "system": "http://loinc.org",
                  "code": "48767-8",
                  "display": "Annotation comment"
                }
              ]
            },
            "title": "Annotation comment"
          }
        ],
        "status": "final",
        "subject": {
          "reference": "urn:uuid:77ca0319-4234-49ac-be9d-0a096596b474",
          "display": "Bethany Begum"
        },
        "date": "2019-03-15T12:40:40Z",
        "title": "Laboratory Report",
        "confidentiality": "N"
      }
    },
    {
      "fullUrl": "urn:uuid:4e279091-c98f-40b1-bbcb-fb64b33d1e0f",
      "resource": {
        "resourceType": "DiagnosticReport",
        "id": "4e279091-c98f-40b1-bbcb-fb64b33d1e0f",
        "meta": {
          "profile": [
            "http://hl7.eu/fhir/laboratory/StructureDefinition/DiagnosticReport-eu-lab"
          ]
        },
        "identifier": [
          {
            "assigner": {
              "display": "HL7 Europe"
            },
            "system": "urn:oid:2.16.840.1.113883.2.51.999",
            "value": "c3c9e627-f8c8-4614-8aa3-89b04d15c426"
          }
        ],
        "extension": [
          {
            "url": "http://hl7.org/fhir/5.0/StructureDefinition/extension-DiagnosticReport.composition",
            "valueReference": {
              "reference": "urn:uuid:c5571f59-75d7-4943-a514-4a220f5a402e"
            }
          }
        ],
        "category": [
          {
            "coding": [
              {
                "code": "26436-6",
                "system": "http://loinc.org",
                "display": "Laboratory studies (set)"
              }
            ]
          }
        ],
        "specimen": [
          {
            "reference": "urn:uuid:423a154e-c53b-4578-b256-06fa3dabe8b3"
          }
        ],
        "result": [
          {
            "reference": "urn:uuid:5465aec3-a816-462f-8c46-b4f458d78e5e"
          },
          {
            "reference": "urn:uuid:6fe17b47-efd9-4f71-ad54-35fb4cbcaac5"
          },
          {
            "reference": "urn:uuid:ffd79bf4-932a-4082-a11d-7c2689a1abeb"
          },
          {
            "reference": "urn:uuid:79719048-636e-47ef-abe7-a40ac864bc8d"
          },
          {
            "reference": "urn:uuid:0836b31e-409c-4197-a345-3322c3f9e7be"
          },
          {
            "reference": "urn:uuid:f9eca3bc-015c-4468-987b-07e24472b292"
          },
          {
            "reference": "urn:uuid:5a4f5fe0-92ab-4d01-81a0-d51c3f0a7996"
          },
          {
            "reference": "urn:uuid:d14c4693-5ebe-4008-a23b-2c537884ffa3"
          },
          {
            "reference": "urn:uuid:a05c4cef-fbcf-4cf2-9288-648abb56a9c8"
          }
        ],
        "status": "registered",
        "code": {
          "coding": [
            {
              "code": "11502-2",
              "system": "http://loinc.org",
              "display": "Laboratory report"
            }
          ]
        },
        "subject": {
          "reference": "urn:uuid:77ca0319-4234-49ac-be9d-0a096596b474",
          "display": "Bethany Begum"
        }
      }
    },
    {
      "fullUrl": "urn:uuid:77ca0319-4234-49ac-be9d-0a096596b474",
      "resource": {
        "resourceType": "Patient",
        "id": "77ca0319-4234-49ac-be9d-0a096596b474",
        "meta": {
          "security": [
            {
              "system": "http://terminology.hl7.org/CodeSystem/v3-ActReason",
              "code": "HTEST"
            },
            {
              "system": "http://terminology.hl7.org/CodeSystem/v3-ActReason",
              "code": "TRAIN"
            }
          ],
          "tag": [
            {
              "system": "https://synderai.net/fhir/CodeSystem/tags",
              "code": "synthetic",
              "display": "SYNDERAI Synthetic data"
            }
          ],
          "profile": [
            "http://hl7.eu/fhir/base/StructureDefinition/patient-eu-core"
          ]
        },
        "identifier": [
          {
            "type": {
              "coding": [
                {
                  "code": "PT",
                  "system": "http://terminology.hl7.org/CodeSystem/v2-0203"
                }
              ]
            },
            "system": "http://ec.europa.eu/identifier/eci",
            "value": "2365-936148-1"
          },
          {
            "type": {
              "coding": [
                {
                  "code": "MR",
                  "system": "http://terminology.hl7.org/CodeSystem/v2-0203"
                }
              ]
            },
            "system": "http://local.setting.eu/identifier",
            "value": "853b213b-8bf3-d90f-2018-79d547156fd7"
          }
        ],
        "name": [
          {
            "family": "Begum"
          },
          {
            "given": [
              "Bethany"
            ]
          },
          {
            "text": "Bethany Begum"
          }
        ],
        "address": [
          {
            "line": [
              "Studio 22e",
              "Joe unions"
            ],
            "use": "home",
            "type": "physical",
            "postalCode": "M1",
            "city": "Manchester",
            "country": "United Kingdom"
          }
        ],
        "telecom": [
          {
            "system": "phone",
            "value": "(029) 2018200"
          }
        ],
        "extension": [
          {
            "url": "http://hl7.org/fhir/StructureDefinition/patient-nationality",
            "valueCodeableConcept": {
              "coding": [
                {
                  "code": "GB",
                  "system": "http://hl7.org/fhir/ValueSet/country"
                }
              ]
            }
          }
        ],
        "text": {
          "status": "generated",
          "div": "<div xmlns=\"http://www.w3.org/1999/xhtml\"><table class=\"hl7__ips\"><tr><td>Bethany Begum</td><td>female</td><td>19-Jan-1976</td></tr></table></div>"
        },
        "gender": "female",
        "birthDate": "1976-01-19"
      }
    },
    {
      "fullUrl": "urn:uuid:9a32b1ab-4adb-4781-a99b-b5caa8898a6a",
      "resource": {
        "resourceType": "ServiceRequest",
        "id": "9a32b1ab-4adb-4781-a99b-b5caa8898a6a",
        "meta": {
          "profile": [
            "http://hl7.eu/fhir/laboratory/StructureDefinition/ServiceRequest-eu-lab"
          ]
        },
        "identifier": [
          {
            "system": "http://example.org",
            "value": "e9ea4e15-5ddf-4462-b691-9581c556a4b5"
          }
        ],
        "specimen": [
          {
            "reference": "urn:uuid:423a154e-c53b-4578-b256-06fa3dabe8b3"
          }
        ],
        "reasonCode": [
          {
            "coding": [
              {
                "code": "55822004",
                "system": "http://snomed.info/sct",
                "display": "Hyperlipidemia"
              }
            ]
          },
          {
            "coding": [
              {
                "code": "15777000",
                "system": "http://snomed.info/sct",
                "display": "Prediabetes"
              }
            ]
          },
          {
            "coding": [
              {
                "code": "40055000",
                "system": "http://snomed.info/sct",
                "display": "Chronic sinusitis"
              }
            ]
          }
        ],
        "status": "active",
        "intent": "order",
        "code": {
          "coding": [
            {
              "code": "108252007",
              "system": "http://snomed.info/sct",
              "display": "Laboratory procedure"
            }
          ]
        },
        "subject": {
          "reference": "urn:uuid:77ca0319-4234-49ac-be9d-0a096596b474",
          "display": "Bethany Begum"
        },
        "requester": {
          "reference": "urn:uuid:894cb405-ac0e-4765-bc8a-d9af3acf8bb9"
        }
      }
    },
    {
      "fullUrl": "urn:uuid:894cb405-ac0e-4765-bc8a-d9af3acf8bb9",
      "resource": {
        "resourceType": "PractitionerRole",
        "id": "894cb405-ac0e-4765-bc8a-d9af3acf8bb9",
        "meta": {
          "profile": [
            "http://hl7.eu/fhir/base/StructureDefinition/practitionerRole-eu"
          ]
        },
        "text": {
          "status": "generated",
          "div": "<div xmlns=\"http://www.w3.org/1999/xhtml\">Provider Role Id: 894cb405-ac0e-4765-bc8a-d9af3acf8bb9</div>"
        },
        "organization": {
          "reference": "urn:uuid:274d1305-3b5e-433a-9f31-93a240d53e2e"
        }
      }
    },
    {
      "fullUrl": "urn:uuid:274d1305-3b5e-433a-9f31-93a240d53e2e",
      "resource": {
        "resourceType": "Organization",
        "id": "274d1305-3b5e-433a-9f31-93a240d53e2e",
        "meta": {
          "profile": [
            "http://hl7.eu/fhir/base/StructureDefinition/organization-eu"
          ]
        },
        "identifier": [
          {
            "assigner": {
              "display": "HL7 Europe"
            },
            "system": "urn:oid:2.16.840.1.113883.2.51.999",
            "value": "71e5985b-0066-4e07-b856-4c3f2a15d356"
          }
        ],
        "address": [
          {
            "line": [
              "City Road 204"
            ],
            "city": "Manchester",
            "postalCode": "M3 3",
            "country": "United Kingdom"
          }
        ],
        "text": {
          "status": "generated",
          "div": "<div xmlns=\"http://www.w3.org/1999/xhtml\">Provider Organization: Cornbrook Medical Practice</div>"
        },
        "name": "Cornbrook Medical Practice"
      }
    },
    {
      "fullUrl": "urn:uuid:423a154e-c53b-4578-b256-06fa3dabe8b3",
      "resource": {
        "resourceType": "Specimen",
        "id": "423a154e-c53b-4578-b256-06fa3dabe8b3",
        "meta": {
          "profile": [
            "http://hl7.eu/fhir/laboratory/StructureDefinition/Specimen-eu-lab"
          ]
        },
        "collection": {
          "collectedDateTime": "2019-03-15"
        },
        "text": {
          "status": "generated",
          "div": "<div xmlns=\"http://www.w3.org/1999/xhtml\"><table class=\"hl7__eu__lab__report\"><tr><th>Specimen</th><th>Collection Date</th></tr><tr><td>Whole blood specimen (specimen)</td><td><span class=\"nb\">15-Mar-2019</span></td></tr></table></div>"
        },
        "type": {
          "coding": [
            {
              "code": "258580003",
              "system": "http://snomed.info/sct",
              "display": "Whole blood specimen (specimen)"
            }
          ]
        }
      }
    },
    {
      "fullUrl": "urn:uuid:5465aec3-a816-462f-8c46-b4f458d78e5e",
      "resource": {
        "resourceType": "Observation",
        "id": "5465aec3-a816-462f-8c46-b4f458d78e5e",
        "meta": {
          "profile": [
            "http://hl7.eu/fhir/laboratory/StructureDefinition/Observation-resultslab-eu-lab"
          ]
        },
        "performer": [
          {
            "display": "The Central European Lab"
          }
        ],
        "category": [
          {
            "coding": [
              {
                "system": "http://terminology.hl7.org/CodeSystem/observation-category",
                "code": "laboratory"
              }
            ]
          }
        ],
        "code": {
          "coding": [
            {
              "code": "4548-4",
              "system": "http://loinc.org",
              "display": "Hemoglobin A1c/Hemoglobin.total in Blood"
            }
          ],
          "text": "Hemoglobin A1c/Hemoglobin.total in Blood"
        },
        "valueQuantity": {
          "system": "http://unitsofmeasure.org",
          "value": 6.1,
          "unit": "%",
          "code": "%"
        },
        "referenceRange": [
          {
            "low": {
              "value": 4.8,
              "code": "%",
              "system": "http://unitsofmeasure.org"
            }
          },
          {
            "high": {
              "value": 5.7,
              "code": "%",
              "system": "http://unitsofmeasure.org"
            }
          }
        ],
        "interpretation": [
          {
            "coding": [
              {
                "code": "H",
                "system": "http://terminology.hl7.org/CodeSystem/v3-ObservationInterpretation",
                "display": "High"
              }
            ]
          }
        ],
        "text": {
          "status": "generated",
          "div": "<div xmlns=\"http://www.w3.org/1999/xhtml\"><table class=\"hl7__eu__lab__report\"><tr><th>Test</th><th>15-Mar-2019</th><th>Reference&#xA0;Range</th><th>Unit</th></tr><tr><td>Hemoglobin A1c/Hemoglobin.total in Blood</td><td>6.1</td><td>4.8 - 5.7</td><td>H</td><td>%</td></tr></table></div>"
        },
        "status": "final",
        "subject": {
          "reference": "urn:uuid:77ca0319-4234-49ac-be9d-0a096596b474",
          "display": "Bethany Begum"
        },
        "effectiveDateTime": "2019-03-15T11:40:40Z",
        "specimen": {
          "reference": "urn:uuid:423a154e-c53b-4578-b256-06fa3dabe8b3"
        }
      }
    },
    {
      "fullUrl": "urn:uuid:6fe17b47-efd9-4f71-ad54-35fb4cbcaac5",
      "resource": {
        "resourceType": "Observation",
        "id": "6fe17b47-efd9-4f71-ad54-35fb4cbcaac5",
        "meta": {
          "profile": [
            "http://hl7.eu/fhir/laboratory/StructureDefinition/Observation-resultslab-eu-lab"
          ]
        },
        "performer": [
          {
            "display": "The Central European Lab"
          }
        ],
        "category": [
          {
            "coding": [
              {
                "system": "http://terminology.hl7.org/CodeSystem/observation-category",
                "code": "laboratory"
              }
            ]
          }
        ],
        "code": {
          "coding": [
            {
              "code": "2339-0",
              "system": "http://loinc.org",
              "display": "Glucose [Mass/volume] in Blood"
            }
          ],
          "text": "Glucose [Mass/volume] in Blood"
        },
        "valueQuantity": {
          "system": "http://unitsofmeasure.org",
          "value": 91.6,
          "unit": "mg/dL",
          "code": "mg/dL"
        },
        "referenceRange": [
          {
            "low": {
              "value": 70,
              "code": "mg/dL",
              "system": "http://unitsofmeasure.org"
            }
          },
          {
            "high": {
              "value": 140,
              "code": "mg/dL",
              "system": "http://unitsofmeasure.org"
            }
          }
        ],
        "text": {
          "status": "generated",
          "div": "<div xmlns=\"http://www.w3.org/1999/xhtml\"><table class=\"hl7__eu__lab__report\"><tr><th>Test</th><th>15-Mar-2019</th><th>Reference&#xA0;Range</th><th>Unit</th></tr><tr><td>Glucose [Mass/volume] in Blood</td><td>91.6</td><td>70 - 140</td><td></td><td>mg/dL</td></tr></table></div>"
        },
        "status": "final",
        "subject": {
          "reference": "urn:uuid:77ca0319-4234-49ac-be9d-0a096596b474",
          "display": "Bethany Begum"
        },
        "effectiveDateTime": "2019-03-15T11:40:40Z",
        "specimen": {
          "reference": "urn:uuid:423a154e-c53b-4578-b256-06fa3dabe8b3"
        }
      }
    },
    {
      "fullUrl": "urn:uuid:ffd79bf4-932a-4082-a11d-7c2689a1abeb",
      "resource": {
        "resourceType": "Observation",
        "id": "ffd79bf4-932a-4082-a11d-7c2689a1abeb",
        "meta": {
          "profile": [
            "http://hl7.eu/fhir/laboratory/StructureDefinition/Observation-resultslab-eu-lab"
          ]
        },
        "performer": [
          {
            "display": "The Central European Lab"
          }
        ],
        "category": [
          {
            "coding": [
              {
                "system": "http://terminology.hl7.org/CodeSystem/observation-category",
                "code": "laboratory"
              }
            ]
          }
        ],
        "code": {
          "coding": [
            {
              "code": "6299-2",
              "system": "http://loinc.org",
              "display": "Urea nitrogen [Mass/volume] in Blood"
            }
          ],
          "text": "Urea nitrogen [Mass/volume] in Blood"
        },
        "valueQuantity": {
          "system": "http://unitsofmeasure.org",
          "value": 15.6,
          "unit": "mg/dL",
          "code": "mg/dL"
        },
        "referenceRange": [
          {
            "low": {
              "value": 7,
              "code": "mg/dL",
              "system": "http://unitsofmeasure.org"
            }
          },
          {
            "high": {
              "value": 25,
              "code": "mg/dL",
              "system": "http://unitsofmeasure.org"
            }
          }
        ],
        "text": {
          "status": "generated",
          "div": "<div xmlns=\"http://www.w3.org/1999/xhtml\"><table class=\"hl7__eu__lab__report\"><tr><th>Test</th><th>15-Mar-2019</th><th>Reference&#xA0;Range</th><th>Unit</th></tr><tr><td>Urea nitrogen [Mass/volume] in Blood</td><td>15.6</td><td>7 - 25</td><td></td><td>mg/dL</td></tr></table></div>"
        },
        "status": "final",
        "subject": {
          "reference": "urn:uuid:77ca0319-4234-49ac-be9d-0a096596b474",
          "display": "Bethany Begum"
        },
        "effectiveDateTime": "2019-03-15T11:40:40Z",
        "specimen": {
          "reference": "urn:uuid:423a154e-c53b-4578-b256-06fa3dabe8b3"
        }
      }
    },
    {
      "fullUrl": "urn:uuid:79719048-636e-47ef-abe7-a40ac864bc8d",
      "resource": {
        "resourceType": "Observation",
        "id": "79719048-636e-47ef-abe7-a40ac864bc8d",
        "meta": {
          "profile": [
            "http://hl7.eu/fhir/laboratory/StructureDefinition/Observation-resultslab-eu-lab"
          ]
        },
        "performer": [
          {
            "display": "The Central European Lab"
          }
        ],
        "category": [
          {
            "coding": [
              {
                "system": "http://terminology.hl7.org/CodeSystem/observation-category",
                "code": "laboratory"
              }
            ]
          }
        ],
        "code": {
          "coding": [
            {
              "code": "38483-4",
              "system": "http://loinc.org",
              "display": "Creatinine [Mass/volume] in Blood"
            }
          ],
          "text": "Creatinine [Mass/volume] in Blood"
        },
        "valueQuantity": {
          "system": "http://unitsofmeasure.org",
          "value": 0.8,
          "unit": "mg/dL",
          "code": "mg/dL"
        },
        "referenceRange": [
          {
            "low": {
              "value": 0.6,
              "code": "mg/dL",
              "system": "http://unitsofmeasure.org"
            }
          },
          {
            "high": {
              "value": 1.3,
              "code": "mg/dL",
              "system": "http://unitsofmeasure.org"
            }
          }
        ],
        "text": {
          "status": "generated",
          "div": "<div xmlns=\"http://www.w3.org/1999/xhtml\"><table class=\"hl7__eu__lab__report\"><tr><th>Test</th><th>15-Mar-2019</th><th>Reference&#xA0;Range</th><th>Unit</th></tr><tr><td>Creatinine [Mass/volume] in Blood</td><td>0.8</td><td>0.6 - 1.3</td><td></td><td>mg/dL</td></tr></table></div>"
        },
        "status": "final",
        "subject": {
          "reference": "urn:uuid:77ca0319-4234-49ac-be9d-0a096596b474",
          "display": "Bethany Begum"
        },
        "effectiveDateTime": "2019-03-15T11:40:40Z",
        "specimen": {
          "reference": "urn:uuid:423a154e-c53b-4578-b256-06fa3dabe8b3"
        }
      }
    },
    {
      "fullUrl": "urn:uuid:0836b31e-409c-4197-a345-3322c3f9e7be",
      "resource": {
        "resourceType": "Observation",
        "id": "0836b31e-409c-4197-a345-3322c3f9e7be",
        "meta": {
          "profile": [
            "http://hl7.eu/fhir/laboratory/StructureDefinition/Observation-resultslab-eu-lab"
          ]
        },
        "performer": [
          {
            "display": "The Central European Lab"
          }
        ],
        "category": [
          {
            "coding": [
              {
                "system": "http://terminology.hl7.org/CodeSystem/observation-category",
                "code": "laboratory"
              }
            ]
          }
        ],
        "code": {
          "coding": [
            {
              "code": "49765-1",
              "system": "http://loinc.org",
              "display": "Calcium [Mass/volume] in Blood"
            }
          ],
          "text": "Calcium [Mass/volume] in Blood"
        },
        "valueQuantity": {
          "system": "http://unitsofmeasure.org",
          "value": 9,
          "unit": "mg/dL",
          "code": "mg/dL"
        },
        "referenceRange": [
          {
            "low": {
              "value": 8.5,
              "code": "mg/dL",
              "system": "http://unitsofmeasure.org"
            }
          },
          {
            "high": {
              "value": 10.5,
              "code": "mg/dL",
              "system": "http://unitsofmeasure.org"
            }
          }
        ],
        "text": {
          "status": "generated",
          "div": "<div xmlns=\"http://www.w3.org/1999/xhtml\"><table class=\"hl7__eu__lab__report\"><tr><th>Test</th><th>15-Mar-2019</th><th>Reference&#xA0;Range</th><th>Unit</th></tr><tr><td>Calcium [Mass/volume] in Blood</td><td>9.0</td><td>8.5 - 10.5</td><td></td><td>mg/dL</td></tr></table></div>"
        },
        "status": "final",
        "subject": {
          "reference": "urn:uuid:77ca0319-4234-49ac-be9d-0a096596b474",
          "display": "Bethany Begum"
        },
        "effectiveDateTime": "2019-03-15T11:40:40Z",
        "specimen": {
          "reference": "urn:uuid:423a154e-c53b-4578-b256-06fa3dabe8b3"
        }
      }
    },
    {
      "fullUrl": "urn:uuid:f9eca3bc-015c-4468-987b-07e24472b292",
      "resource": {
        "resourceType": "Observation",
        "id": "f9eca3bc-015c-4468-987b-07e24472b292",
        "meta": {
          "profile": [
            "http://hl7.eu/fhir/laboratory/StructureDefinition/Observation-resultslab-eu-lab"
          ]
        },
        "performer": [
          {
            "display": "The Central European Lab"
          }
        ],
        "category": [
          {
            "coding": [
              {
                "system": "http://terminology.hl7.org/CodeSystem/observation-category",
                "code": "laboratory"
              }
            ]
          }
        ],
        "code": {
          "coding": [
            {
              "code": "2947-0",
              "system": "http://loinc.org",
              "display": "Sodium [Moles/volume] in Blood"
            }
          ],
          "text": "Sodium [Moles/volume] in Blood"
        },
        "valueQuantity": {
          "system": "http://unitsofmeasure.org",
          "value": 139,
          "unit": "mmol/L",
          "code": "mmol/L"
        },
        "referenceRange": [
          {
            "low": {
              "value": 135,
              "code": "mmol/L",
              "system": "http://unitsofmeasure.org"
            }
          },
          {
            "high": {
              "value": 145,
              "code": "mmol/L",
              "system": "http://unitsofmeasure.org"
            }
          }
        ],
        "text": {
          "status": "generated",
          "div": "<div xmlns=\"http://www.w3.org/1999/xhtml\"><table class=\"hl7__eu__lab__report\"><tr><th>Test</th><th>15-Mar-2019</th><th>Reference&#xA0;Range</th><th>Unit</th></tr><tr><td>Sodium [Moles/volume] in Blood</td><td>139.0</td><td>135 - 145</td><td></td><td>mmol/L</td></tr></table></div>"
        },
        "status": "final",
        "subject": {
          "reference": "urn:uuid:77ca0319-4234-49ac-be9d-0a096596b474",
          "display": "Bethany Begum"
        },
        "effectiveDateTime": "2019-03-15T11:40:40Z",
        "specimen": {
          "reference": "urn:uuid:423a154e-c53b-4578-b256-06fa3dabe8b3"
        }
      }
    },
    {
      "fullUrl": "urn:uuid:5a4f5fe0-92ab-4d01-81a0-d51c3f0a7996",
      "resource": {
        "resourceType": "Observation",
        "id": "5a4f5fe0-92ab-4d01-81a0-d51c3f0a7996",
        "meta": {
          "profile": [
            "http://hl7.eu/fhir/laboratory/StructureDefinition/Observation-resultslab-eu-lab"
          ]
        },
        "performer": [
          {
            "display": "The Central European Lab"
          }
        ],
        "category": [
          {
            "coding": [
              {
                "system": "http://terminology.hl7.org/CodeSystem/observation-category",
                "code": "laboratory"
              }
            ]
          }
        ],
        "code": {
          "coding": [
            {
              "code": "6298-4",
              "system": "http://loinc.org",
              "display": "Potassium [Moles/volume] in Blood"
            }
          ],
          "text": "Potassium [Moles/volume] in Blood"
        },
        "valueQuantity": {
          "system": "http://unitsofmeasure.org",
          "value": 5,
          "unit": "mmol/L",
          "code": "mmol/L"
        },
        "referenceRange": [
          {
            "low": {
              "value": 3.5,
              "code": "mmol/L",
              "system": "http://unitsofmeasure.org"
            }
          },
          {
            "high": {
              "value": 5.1,
              "code": "mmol/L",
              "system": "http://unitsofmeasure.org"
            }
          }
        ],
        "text": {
          "status": "generated",
          "div": "<div xmlns=\"http://www.w3.org/1999/xhtml\"><table class=\"hl7__eu__lab__report\"><tr><th>Test</th><th>15-Mar-2019</th><th>Reference&#xA0;Range</th><th>Unit</th></tr><tr><td>Potassium [Moles/volume] in Blood</td><td>5.0</td><td>3.5 - 5.1</td><td></td><td>mmol/L</td></tr></table></div>"
        },
        "status": "final",
        "subject": {
          "reference": "urn:uuid:77ca0319-4234-49ac-be9d-0a096596b474",
          "display": "Bethany Begum"
        },
        "effectiveDateTime": "2019-03-15T11:40:40Z",
        "specimen": {
          "reference": "urn:uuid:423a154e-c53b-4578-b256-06fa3dabe8b3"
        }
      }
    },
    {
      "fullUrl": "urn:uuid:d14c4693-5ebe-4008-a23b-2c537884ffa3",
      "resource": {
        "resourceType": "Observation",
        "id": "d14c4693-5ebe-4008-a23b-2c537884ffa3",
        "meta": {
          "profile": [
            "http://hl7.eu/fhir/laboratory/StructureDefinition/Observation-resultslab-eu-lab"
          ]
        },
        "performer": [
          {
            "display": "The Central European Lab"
          }
        ],
        "category": [
          {
            "coding": [
              {
                "system": "http://terminology.hl7.org/CodeSystem/observation-category",
                "code": "laboratory"
              }
            ]
          }
        ],
        "code": {
          "coding": [
            {
              "code": "2069-3",
              "system": "http://loinc.org",
              "display": "Chloride [Moles/volume] in Blood"
            }
          ],
          "text": "Chloride [Moles/volume] in Blood"
        },
        "valueQuantity": {
          "system": "http://unitsofmeasure.org",
          "value": 103.2,
          "unit": "mmol/L",
          "code": "mmol/L"
        },
        "referenceRange": [
          {
            "low": {
              "value": 98,
              "code": "mmol/L",
              "system": "http://unitsofmeasure.org"
            }
          },
          {
            "high": {
              "value": 108,
              "code": "mmol/L",
              "system": "http://unitsofmeasure.org"
            }
          }
        ],
        "text": {
          "status": "generated",
          "div": "<div xmlns=\"http://www.w3.org/1999/xhtml\"><table class=\"hl7__eu__lab__report\"><tr><th>Test</th><th>15-Mar-2019</th><th>Reference&#xA0;Range</th><th>Unit</th></tr><tr><td>Chloride [Moles/volume] in Blood</td><td>103.2</td><td>98 - 108</td><td></td><td>mmol/L</td></tr></table></div>"
        },
        "status": "final",
        "subject": {
          "reference": "urn:uuid:77ca0319-4234-49ac-be9d-0a096596b474",
          "display": "Bethany Begum"
        },
        "effectiveDateTime": "2019-03-15T11:40:40Z",
        "specimen": {
          "reference": "urn:uuid:423a154e-c53b-4578-b256-06fa3dabe8b3"
        }
      }
    },
    {
      "fullUrl": "urn:uuid:a05c4cef-fbcf-4cf2-9288-648abb56a9c8",
      "resource": {
        "resourceType": "Observation",
        "id": "a05c4cef-fbcf-4cf2-9288-648abb56a9c8",
        "meta": {
          "profile": [
            "http://hl7.eu/fhir/laboratory/StructureDefinition/Observation-resultslab-eu-lab"
          ]
        },
        "performer": [
          {
            "display": "The Central European Lab"
          }
        ],
        "category": [
          {
            "coding": [
              {
                "system": "http://terminology.hl7.org/CodeSystem/observation-category",
                "code": "laboratory"
              }
            ]
          }
        ],
        "code": {
          "coding": [
            {
              "code": "20565-8",
              "system": "http://loinc.org",
              "display": "Carbon dioxide, total [Moles/volume] in Blood"
            }
          ],
          "text": "Carbon dioxide, total [Moles/volume] in Blood"
        },
        "valueQuantity": {
          "system": "http://unitsofmeasure.org",
          "value": 27.4,
          "unit": "mmol/L",
          "code": "mmol/L"
        },
        "referenceRange": [
          {
            "low": {
              "value": 22,
              "code": "mmol/L",
              "system": "http://unitsofmeasure.org"
            }
          },
          {
            "high": {
              "value": 29,
              "code": "mmol/L",
              "system": "http://unitsofmeasure.org"
            }
          }
        ],
        "text": {
          "status": "generated",
          "div": "<div xmlns=\"http://www.w3.org/1999/xhtml\"><table class=\"hl7__eu__lab__report\"><tr><th>Test</th><th>15-Mar-2019</th><th>Reference&#xA0;Range</th><th>Unit</th></tr><tr><td>Carbon dioxide, total [Moles/volume] in Blood</td><td>27.4</td><td>22 - 29</td><td></td><td>mmol/L</td></tr></table></div>"
        },
        "status": "final",
        "subject": {
          "reference": "urn:uuid:77ca0319-4234-49ac-be9d-0a096596b474",
          "display": "Bethany Begum"
        },
        "effectiveDateTime": "2019-03-15T11:40:40Z",
        "specimen": {
          "reference": "urn:uuid:423a154e-c53b-4578-b256-06fa3dabe8b3"
        }
      }
    },
    {
      "fullUrl": "urn:uuid:d1e091ea-fe9a-4833-a141-8b9faa0d149b",
      "resource": {
        "resourceType": "Device",
        "id": "d1e091ea-fe9a-4833-a141-8b9faa0d149b",
        "deviceName": [
          {
            "name": "SYNDERAI Synthetic Generator",
            "type": "manufacturer-name"
          }
        ],
        "version": [
          {
            "value": "5.0"
          }
        ],
        "text": {
          "status": "generated",
          "div": "<div xmlns=\"http://www.w3.org/1999/xhtml\">SYNDERAI Synthetic Generator v5.0</div>"
        },
        "status": "active\"",
        "distinctIdentifier": "synderai-generator-50",
        "manufacturer": "SYNDERAI Project"
      }
    },
    {
      "fullUrl": "urn:uuid:9c8a3c2b-7d23-4d7b-afe1-b95b9ca982da",
      "resource": {
        "resourceType": "Provenance",
        "id": "9c8a3c2b-7d23-4d7b-afe1-b95b9ca982da",
        "target": [
          {
            "reference": "Patient/77ca0319-4234-49ac-be9d-0a096596b474"
          },
          {
            "reference": "Bundle/07c67b27-e37e-45da-a750-c527c45f2c77"
          },
          {
            "reference": "Composition/58570ec3-7ffe-4f49-bd8b-c29305d76e64"
          },
          {
            "reference": "PractitionerRole/531bc3c1-19d8-429c-b5eb-867ad0caa573"
          },
          {
            "reference": "Practitioner/231ec302-e440-416b-8b5b-8d9a112a457d"
          },
          {
            "reference": "PractitionerRole/894cb405-ac0e-4765-bc8a-d9af3acf8bb9"
          },
          {
            "reference": "Organization/274d1305-3b5e-433a-9f31-93a240d53e2e"
          }
        ],
        "activity": {
          "text": "Synthetic Example Data Generation"
        },
        "policy": [
          "https://synderai.net/synderai-synthetic-data-policy"
        ],
        "agent": [
          {
            "type": {
              "text": "author"
            },
            "who": {
              "reference": "Device/d1e091ea-fe9a-4833-a141-8b9faa0d149b"
            }
          }
        ],
        "reason": [
          {
            "text": "Interoperability Testing and Training (non-clinical use)"
          }
        ],
        "text": {
          "status": "generated",
          "div": "<div xmlns=\"http://www.w3.org/1999/xhtml\">Provenance for SYNDERAI Synthetic Example Data Resource</div>"
        },
        "recorded": "2019-03-15T12:40:40Z"
      }
    },
    {
      "fullUrl": "urn:uuid:531bc3c1-19d8-429c-b5eb-867ad0caa573",
      "resource": {
        "resourceType": "PractitionerRole",
        "id": "531bc3c1-19d8-429c-b5eb-867ad0caa573",
        "meta": {
          "profile": [
            "http://hl7.eu/fhir/base/StructureDefinition/practitionerRole-eu"
          ]
        },
        "text": {
          "status": "generated",
          "div": "<div xmlns=\"http://www.w3.org/1999/xhtml\">Laboratory Role Id: 531bc3c1-19d8-429c-b5eb-867ad0caa573</div>"
        },
        "practitioner": {
          "reference": "urn:uuid:231ec302-e440-416b-8b5b-8d9a112a457d"
        }
      }
    },
    {
      "fullUrl": "urn:uuid:231ec302-e440-416b-8b5b-8d9a112a457d",
      "resource": {
        "resourceType": "Practitioner",
        "id": "231ec302-e440-416b-8b5b-8d9a112a457d",
        "meta": {
          "profile": [
            "http://hl7.eu/fhir/base/StructureDefinition/practitioner-eu"
          ]
        },
        "identifier": [
          {
            "assigner": {
              "display": "HL7 Europe"
            },
            "system": "urn:oid:2.16.840.1.113883.2.51.999",
            "value": "c9f668fa-209e-4774-ab72-b94b2fbb12da"
          }
        ],
        "name": [
          {
            "prefix": [
              "dr"
            ],
            "given": [
              "Ex"
            ],
            "family": "Ample"
          }
        ],
        "address": [
          {
            "line": [
              "Laboratoire Central Européenne",
              "Boulevard du Jardin Botanique 32"
            ],
            "postalCode": "1000",
            "city": "Brussels",
            "country": "Belgium"
          }
        ],
        "text": {
          "status": "generated",
          "div": "<div xmlns=\"http://www.w3.org/1999/xhtml\">Laboratory: Laboratoire Central Européenne, 1000 Brussels, Belgium</div>"
        }
      }
    }
  ],
  "type": "document",
  "timestamp": "2019-03-15T12:40:40Z"
}
