{
  "resourceType": "Bundle",
  "id": "d7661fd6-8a39-4256-b031-2989ace3f0f2",
  "meta": {
    "profile": [
      "http://hl7.eu/fhir/laboratory/StructureDefinition/Bundle-eu-lab"
    ]
  },
  "identifier": {
    "assigner": {
      "display": "HL7 Europe"
    },
    "system": "urn:oid:2.16.840.1.113883.2.51.999",
    "value": "912be102-faa0-47af-9a17-7d0d00addc9e"
  },
  "entry": [
    {
      "fullUrl": "urn:uuid:22cf7500-04e2-411e-8ec7-deca658cad28",
      "resource": {
        "resourceType": "Composition",
        "id": "22cf7500-04e2-411e-8ec7-deca658cad28",
        "meta": {
          "profile": [
            "http://hl7.eu/fhir/laboratory/StructureDefinition/Composition-eu-lab"
          ]
        },
        "identifier": {
          "assigner": {
            "display": "HL7 Europe"
          },
          "system": "urn:oid:2.16.840.1.113883.2.51.999",
          "value": "faa77cdc-adfe-48f2-bead-80b9cc97020a"
        },
        "author": [
          {
            "reference": "urn:uuid:b45e15cc-84c7-45de-ad79-869fa833260c"
          }
        ],
        "category": [
          {
            "coding": [
              {
                "code": "26436-6",
                "system": "http://loinc.org",
                "display": "Laboratory studies (set)"
              }
            ]
          }
        ],
        "type": {
          "coding": [
            {
              "code": "11502-2",
              "system": "http://loinc.org",
              "display": "Laboratory report"
            }
          ],
          "text": "Laboratory Report"
        },
        "section": [
          {
            "code": {
              "coding": [
                {
                  "code": "26436-6",
                  "system": "http://loinc.org",
                  "display": "Laboratory studies (set)"
                }
              ],
              "text": "Laboratory studies"
            },
            "section": [
              {
                "code": {
                  "coding": [
                    {
                      "code": "$18719-5",
                      "system": "http://loinc.org",
                      "display": "Chemistry studies (set)"
                    }
                  ],
                  "text": "Chemistry"
                },
                "entry": [
                  {
                    "reference": "urn:uuid:6dbccb40-b86c-40c4-9b25-d4a9f1998e8f"
                  },
                  {
                    "reference": "urn:uuid:7aa5537c-7c4c-4c7e-b3b8-d9993030960a"
                  },
                  {
                    "reference": "urn:uuid:fe0dee09-69a4-48c7-96a6-2292bf1c1d8e"
                  },
                  {
                    "reference": "urn:uuid:6d822093-48fd-4603-9d54-6fa5aab369a2"
                  },
                  {
                    "reference": "urn:uuid:f86cd92f-5256-49a6-95c8-d45b12e0bc45"
                  },
                  {
                    "reference": "urn:uuid:4c5c6565-aca4-4dd1-bf24-336a2901f253"
                  },
                  {
                    "reference": "urn:uuid:d90323c1-076c-466c-9538-1ff54b204c10"
                  },
                  {
                    "reference": "urn:uuid:058adde9-b6b2-4235-ab8a-e46d67463bf5"
                  },
                  {
                    "reference": "urn:uuid:5c659a6d-d4eb-4ce2-9aa8-64fb3ada52f9"
                  },
                  {
                    "reference": "urn:uuid:83a94975-5c62-4bd8-8f75-a61c041f0346"
                  },
                  {
                    "reference": "urn:uuid:c9776da9-3a8a-4920-847b-8a227f91bf38"
                  },
                  {
                    "reference": "urn:uuid:1bc2a5d7-8f23-404d-892c-f34f8228a46f"
                  },
                  {
                    "reference": "urn:uuid:04b57f48-cd61-44ca-91a0-67420926d111"
                  },
                  {
                    "reference": "urn:uuid:1c5c30a1-ab5f-415d-a131-576e8b0dc015"
                  },
                  {
                    "reference": "urn:uuid:a4632231-9b1a-4ea3-80e0-cf2cc743023b"
                  },
                  {
                    "reference": "urn:uuid:f2c42c71-588f-421d-adc1-9cfe03deebcc"
                  },
                  {
                    "reference": "urn:uuid:9805a89c-5dc4-4cd8-93ca-303c2f7c8f17"
                  },
                  {
                    "reference": "urn:uuid:53d09191-77cb-4a1c-87c3-7e26db0197bb"
                  }
                ],
                "text": {
                  "status": "generated",
                  "div": "<div xmlns=\"http://www.w3.org/1999/xhtml\"><h3>Chemistry</h3><table class=\"hl7__eu__lab__report\"><thead><tr><th>Test</th><th>13-MAY-2021</th><th>Reference&#xA0;Range</th><th>Unit</th></tr></thead><tbody><tr><td>Glucose [Mass/volume] in Serum or Plasma</td><td>84.4</td><td>70 - 140</td><td>mg/dL</td></tr><tr><td>Urea nitrogen [Mass/volume] in Serum or Plasma</td><td>17.3</td><td>7 - 25</td><td>mg/dL</td></tr><tr><td>Creatinine [Mass/volume] in Serum or Plasma</td><td><strong>1.9 H</strong></td><td>0.9 - 1.3</td><td>mg/dL</td></tr><tr><td>Calcium [Mass/volume] in Serum or Plasma</td><td>8.6</td><td>8.5 - 10.5</td><td>mg/dL</td></tr><tr><td>Sodium [Moles/volume] in Serum or Plasma</td><td>143.5</td><td>135 - 145</td><td>mmol/L</td></tr><tr><td>Potassium [Moles/volume] in Serum or Plasma</td><td>3.9</td><td>3.5 - 5.3</td><td>mmol/L</td></tr><tr><td>Chloride [Moles/volume] in Serum or Plasma</td><td>102.1</td><td>98 - 107</td><td>mmol/L</td></tr><tr><td>Carbon dioxide, total [Moles/volume] in Serum or Plasma</td><td>26.6</td><td>22 - 29</td><td>mmol/L</td></tr><tr><td>Ketones [Presence] in Urine by Test strip</td><td>Urine ketone test = +</td><td></td><td></td></tr><tr><td>Hemoglobin A1c/Hemoglobin.total in Blood</td><td><strong>3.4 L</strong></td><td>4.5 - 6.4</td><td>%</td></tr><tr><td>Glucose [Mass/volume] in Blood</td><td>84.4</td><td>70 - 140</td><td>mg/dL</td></tr><tr><td>Urea nitrogen [Mass/volume] in Blood</td><td>17.3</td><td>7 - 25</td><td>mg/dL</td></tr><tr><td>Creatinine [Mass/volume] in Blood</td><td><strong>1.5 H</strong></td><td>0.9 - 1.3</td><td>mg/dL</td></tr><tr><td>Calcium [Mass/volume] in Blood</td><td>8.6</td><td>8.6 - 10.2</td><td>mg/dL</td></tr><tr><td>Sodium [Moles/volume] in Blood</td><td>143.5</td><td>135 - 145</td><td>mmol/L</td></tr><tr><td>Potassium [Moles/volume] in Blood</td><td>3.9</td><td>3.5 - 5.1</td><td>mmol/L</td></tr><tr><td>Chloride [Moles/volume] in Blood</td><td>102.1</td><td>98 - 108</td><td>mmol/L</td></tr><tr><td>Carbon dioxide, total [Moles/volume] in Blood</td><td>26.6</td><td>22 - 32</td><td>mmol/L</td></tr></tbody></table></div>"
                },
                "title": "Chemistry"
              },
              {
                "code": {
                  "coding": [
                    {
                      "code": "$18729-4",
                      "system": "http://loinc.org",
                      "display": "Urinalysis studies (set)"
                    }
                  ],
                  "text": "Urinalysis"
                },
                "entry": [
                  {
                    "reference": "urn:uuid:b795566d-ff1b-42a5-bd70-e2920d747187"
                  },
                  {
                    "reference": "urn:uuid:d2d8985a-c2ec-45e7-a3c1-1f934bdb166d"
                  },
                  {
                    "reference": "urn:uuid:a74b4a43-8791-40f1-9cdf-d8a4f64eca9e"
                  },
                  {
                    "reference": "urn:uuid:07c5edf6-85e7-47a5-84da-87d0b1f094f9"
                  },
                  {
                    "reference": "urn:uuid:44c8c9c9-5d83-4b47-95de-483618c319c5"
                  },
                  {
                    "reference": "urn:uuid:4d05d201-ffe3-44f8-b0b5-a1e5eec97953"
                  },
                  {
                    "reference": "urn:uuid:d3e74deb-9c96-44f9-834e-d3dfd9ea9844"
                  },
                  {
                    "reference": "urn:uuid:e04da61a-f571-4c8d-ba69-a2a284d40d10"
                  },
                  {
                    "reference": "urn:uuid:049c3758-542d-4be2-85c1-a9daae709b73"
                  },
                  {
                    "reference": "urn:uuid:b96216fd-710a-4e60-898e-66b2ed50a2d4"
                  },
                  {
                    "reference": "urn:uuid:e20d4235-d921-42f7-96c9-3e338406513c"
                  },
                  {
                    "reference": "urn:uuid:36aa8e4c-df6b-4d41-9804-e5faa613bbce"
                  }
                ],
                "text": {
                  "status": "generated",
                  "div": "<div xmlns=\"http://www.w3.org/1999/xhtml\"><h3>Urinalysis</h3><table class=\"hl7__eu__lab__report\"><thead><tr><th>Test</th><th>13-MAY-2021</th><th>Reference&#xA0;Range</th><th>Unit</th></tr></thead><tbody><tr><td>Glucose [Mass/volume] in Urine by Test strip</td><td><strong>1.5 H</strong></td><td>0.8 - 0</td><td>mg/dL</td></tr><tr><td>Glucose [Presence] in Urine by Test strip</td><td>++</td><td></td><td></td></tr><tr><td>Bilirubin.total [Mass/volume] in Urine by Test strip</td><td>1.2</td><td>0.2 - 1.5</td><td>mg/dL</td></tr><tr><td>Bilirubin.total [Presence] in Urine by Test strip</td><td>Finding of bilirubin in urine</td><td></td><td></td></tr><tr><td>Ketones [Mass/volume] in Urine by Test strip</td><td><strong>14.5 H</strong></td><td>0 - 4</td><td>mg/dL</td></tr><tr><td>Specific gravity of Urine by Test strip</td><td><strong>1.0 L</strong></td><td>1.01 - 1.03</td><td>{nominal}</td></tr><tr><td>pH of Urine by Test strip</td><td>6.3</td><td>4.5 - 7.5</td><td>pH</td></tr><tr><td>Protein [Mass/volume] in Urine by Test strip</td><td><strong>206.4 H</strong></td><td>0 - 150</td><td>mg/dL</td></tr><tr><td>Protein [Presence] in Urine by Test strip</td><td>Urine protein test = ++</td><td></td><td></td></tr><tr><td>Nitrite [Presence] in Urine by Test strip</td><td>Urine nitrite negative</td><td></td><td></td></tr><tr><td>Hemoglobin [Presence] in Urine by Test strip</td><td>Urine blood test = negative</td><td></td><td></td></tr><tr><td>Leukocyte esterase [Presence] in Urine by Test strip</td><td>Urine leukocyte test negative</td><td></td><td></td></tr></tbody></table></div>"
                },
                "title": "Urinalysis"
              },
              {
                "code": {
                  "coding": [
                    {
                      "code": "$LP7846-1",
                      "system": "http://loinc.org",
                      "display": "Specimen information"
                    }
                  ],
                  "text": "Specimen information"
                },
                "entry": [
                  {
                    "reference": "urn:uuid:81ca83e0-fb28-440d-aa47-baa3dd6c4515"
                  },
                  {
                    "reference": "urn:uuid:e573c123-bb36-40d1-a99e-f0258bda6818"
                  },
                  {
                    "reference": "urn:uuid:1898114a-5c93-4e7c-ac17-198525d864bf"
                  },
                  {
                    "reference": "urn:uuid:75656d4e-38ce-4125-bd21-02c33f337024"
                  }
                ],
                "text": {
                  "status": "generated",
                  "div": "<div xmlns=\"http://www.w3.org/1999/xhtml\"><h3>Specimen information</h3><table class=\"hl7__eu__lab__report\"><thead><tr><th>Test</th><th>13-MAY-2021</th><th>Specimen</th><th></th></tr></thead><tbody><tr><td>Appearance of Urine</td><td>Cloudy urine</td><td>Urine</td><td></td></tr><tr><td>Odor of Urine</td><td>Urine smell ammoniacal</td><td>Urine</td><td></td></tr><tr><td>Clarity of Urine</td><td>Translucent</td><td>Urine</td><td></td></tr><tr><td>Color of Urine</td><td>Brown color</td><td>Urine</td><td></td></tr></tbody></table></div>"
                },
                "title": "Specimen information"
              }
            ],
            "title": "Laboratory Report"
          },
          {
            "text": {
              "status": "generated",
              "div": "<div xmlns=\"http://www.w3.org/1999/xhtml\"><h3>Annotation</h3><table class=\"hl7__eu__lab__report\"><tr><th>Conclusion and Recommendations based on this report and previous findings known to us</th></tr><tr><td>The patient shows mildly elevated creatinine, suggesting possible renal impairment. Urinalysis reveals proteinuria, glycosuria, ketonuria, low specific gravity, and abnormal urine appearance, indicating possible renal dysfunction and metabolic derangement (e.g., dehydration, diabetes, or starvation). Hemoglobin A1c is low, arguing against chronic hyperglycemia. No evidence of urinary infection. Recommend further evaluation of renal function and metabolic status, and clinical correlation for underlying causes.</td></tr></table></div>"
            },
            "code": {
              "coding": [
                {
                  "system": "http://loinc.org",
                  "code": "48767-8",
                  "display": "Annotation comment"
                }
              ]
            },
            "title": "Annotation comment"
          }
        ],
        "status": "final",
        "subject": {
          "reference": "urn:uuid:1da7604b-469d-4695-838b-200002d7d7da",
          "display": "Pelayo Casal"
        },
        "date": "2021-05-13T07:38:59Z",
        "title": "Laboratory Report",
        "confidentiality": "N"
      }
    },
    {
      "fullUrl": "urn:uuid:c90b7bc6-5c17-4abf-bed7-6f5a884e844f",
      "resource": {
        "resourceType": "DiagnosticReport",
        "id": "c90b7bc6-5c17-4abf-bed7-6f5a884e844f",
        "meta": {
          "profile": [
            "http://hl7.eu/fhir/laboratory/StructureDefinition/DiagnosticReport-eu-lab"
          ]
        },
        "identifier": [
          {
            "assigner": {
              "display": "HL7 Europe"
            },
            "system": "urn:oid:2.16.840.1.113883.2.51.999",
            "value": "860393b1-8940-4f98-ac3a-1e9cf71a3256"
          }
        ],
        "extension": [
          {
            "url": "http://hl7.org/fhir/5.0/StructureDefinition/extension-DiagnosticReport.composition",
            "valueReference": {
              "reference": "urn:uuid:faa77cdc-adfe-48f2-bead-80b9cc97020a"
            }
          }
        ],
        "category": [
          {
            "coding": [
              {
                "code": "26436-6",
                "system": "http://loinc.org",
                "display": "Laboratory studies (set)"
              }
            ]
          }
        ],
        "specimen": [
          {
            "reference": "urn:uuid:931b2d55-5188-452f-bb21-d49738c5b8f9"
          },
          {
            "reference": "urn:uuid:5b1b81df-599e-4eb9-91c3-c10d0cac0987"
          },
          {
            "reference": "urn:uuid:4f209e59-94a6-4294-a6ec-6fea927ff7ed"
          }
        ],
        "result": [
          {
            "reference": "urn:uuid:6dbccb40-b86c-40c4-9b25-d4a9f1998e8f"
          },
          {
            "reference": "urn:uuid:7aa5537c-7c4c-4c7e-b3b8-d9993030960a"
          },
          {
            "reference": "urn:uuid:fe0dee09-69a4-48c7-96a6-2292bf1c1d8e"
          },
          {
            "reference": "urn:uuid:6d822093-48fd-4603-9d54-6fa5aab369a2"
          },
          {
            "reference": "urn:uuid:f86cd92f-5256-49a6-95c8-d45b12e0bc45"
          },
          {
            "reference": "urn:uuid:4c5c6565-aca4-4dd1-bf24-336a2901f253"
          },
          {
            "reference": "urn:uuid:d90323c1-076c-466c-9538-1ff54b204c10"
          },
          {
            "reference": "urn:uuid:058adde9-b6b2-4235-ab8a-e46d67463bf5"
          },
          {
            "reference": "urn:uuid:81ca83e0-fb28-440d-aa47-baa3dd6c4515"
          },
          {
            "reference": "urn:uuid:e573c123-bb36-40d1-a99e-f0258bda6818"
          },
          {
            "reference": "urn:uuid:1898114a-5c93-4e7c-ac17-198525d864bf"
          },
          {
            "reference": "urn:uuid:75656d4e-38ce-4125-bd21-02c33f337024"
          },
          {
            "reference": "urn:uuid:b795566d-ff1b-42a5-bd70-e2920d747187"
          },
          {
            "reference": "urn:uuid:d2d8985a-c2ec-45e7-a3c1-1f934bdb166d"
          },
          {
            "reference": "urn:uuid:a74b4a43-8791-40f1-9cdf-d8a4f64eca9e"
          },
          {
            "reference": "urn:uuid:07c5edf6-85e7-47a5-84da-87d0b1f094f9"
          },
          {
            "reference": "urn:uuid:44c8c9c9-5d83-4b47-95de-483618c319c5"
          },
          {
            "reference": "urn:uuid:5c659a6d-d4eb-4ce2-9aa8-64fb3ada52f9"
          },
          {
            "reference": "urn:uuid:4d05d201-ffe3-44f8-b0b5-a1e5eec97953"
          },
          {
            "reference": "urn:uuid:d3e74deb-9c96-44f9-834e-d3dfd9ea9844"
          },
          {
            "reference": "urn:uuid:e04da61a-f571-4c8d-ba69-a2a284d40d10"
          },
          {
            "reference": "urn:uuid:049c3758-542d-4be2-85c1-a9daae709b73"
          },
          {
            "reference": "urn:uuid:b96216fd-710a-4e60-898e-66b2ed50a2d4"
          },
          {
            "reference": "urn:uuid:e20d4235-d921-42f7-96c9-3e338406513c"
          },
          {
            "reference": "urn:uuid:36aa8e4c-df6b-4d41-9804-e5faa613bbce"
          },
          {
            "reference": "urn:uuid:83a94975-5c62-4bd8-8f75-a61c041f0346"
          },
          {
            "reference": "urn:uuid:c9776da9-3a8a-4920-847b-8a227f91bf38"
          },
          {
            "reference": "urn:uuid:1bc2a5d7-8f23-404d-892c-f34f8228a46f"
          },
          {
            "reference": "urn:uuid:04b57f48-cd61-44ca-91a0-67420926d111"
          },
          {
            "reference": "urn:uuid:1c5c30a1-ab5f-415d-a131-576e8b0dc015"
          },
          {
            "reference": "urn:uuid:a4632231-9b1a-4ea3-80e0-cf2cc743023b"
          },
          {
            "reference": "urn:uuid:f2c42c71-588f-421d-adc1-9cfe03deebcc"
          },
          {
            "reference": "urn:uuid:9805a89c-5dc4-4cd8-93ca-303c2f7c8f17"
          },
          {
            "reference": "urn:uuid:53d09191-77cb-4a1c-87c3-7e26db0197bb"
          }
        ],
        "status": "registered",
        "code": {
          "coding": [
            {
              "code": "11502-2",
              "system": "http://loinc.org",
              "display": "Laboratory report"
            }
          ]
        },
        "subject": {
          "reference": "urn:uuid:1da7604b-469d-4695-838b-200002d7d7da",
          "display": "Pelayo Casal"
        }
      }
    },
    {
      "fullUrl": "urn:uuid:1da7604b-469d-4695-838b-200002d7d7da",
      "resource": {
        "resourceType": "Patient",
        "id": "1da7604b-469d-4695-838b-200002d7d7da",
        "meta": {
          "security": [
            {
              "system": "http://terminology.hl7.org/CodeSystem/v3-ActReason",
              "code": "HTEST"
            },
            {
              "system": "http://terminology.hl7.org/CodeSystem/v3-ActReason",
              "code": "TRAIN"
            }
          ],
          "tag": [
            {
              "system": "https://synderai.net/fhir/CodeSystem/tags",
              "code": "synthetic",
              "display": "SYNDERAI Synthetic data"
            }
          ],
          "profile": [
            "http://hl7.eu/fhir/base/StructureDefinition/patient-eu-core"
          ]
        },
        "identifier": [
          {
            "type": {
              "coding": [
                {
                  "code": "PT",
                  "system": "http://terminology.hl7.org/CodeSystem/v2-0203"
                }
              ]
            },
            "system": "http://ec.europa.eu/identifier/eci",
            "value": "7707-510028-7"
          },
          {
            "type": {
              "coding": [
                {
                  "code": "MR",
                  "system": "http://terminology.hl7.org/CodeSystem/v2-0203"
                }
              ]
            },
            "system": "http://local.setting.eu/identifier",
            "value": "d88e82c6-df33-82d2-8538-f8b57da06491"
          }
        ],
        "name": [
          {
            "family": "Casal"
          },
          {
            "given": [
              "Pelayo"
            ]
          },
          {
            "text": "Pelayo Casal"
          }
        ],
        "address": [
          {
            "line": [
              "Callejón de Ignacio Pedrosa 67 Apt. 68 "
            ],
            "use": "home",
            "type": "physical",
            "postalCode": "35001",
            "city": "Las Palmas",
            "country": "Spain"
          }
        ],
        "telecom": [
          {
            "system": "phone",
            "value": "+34 875724898"
          }
        ],
        "extension": [
          {
            "url": "http://hl7.org/fhir/StructureDefinition/patient-nationality",
            "valueCodeableConcept": {
              "coding": [
                {
                  "code": "ES",
                  "system": "http://hl7.org/fhir/ValueSet/country"
                }
              ]
            }
          }
        ],
        "text": {
          "status": "generated",
          "div": "<div xmlns=\"http://www.w3.org/1999/xhtml\"><table class=\"hl7__ips\"><tr><td>Pelayo Casal</td><td>male</td><td>19-Apr-1940</td></tr></table></div>"
        },
        "gender": "male",
        "birthDate": "1940-04-19"
      }
    },
    {
      "fullUrl": "urn:uuid:399c4c0f-80ee-406f-9f06-cc12b9316dbf",
      "resource": {
        "resourceType": "ServiceRequest",
        "id": "399c4c0f-80ee-406f-9f06-cc12b9316dbf",
        "meta": {
          "profile": [
            "http://hl7.eu/fhir/laboratory/StructureDefinition/ServiceRequest-eu-lab"
          ]
        },
        "identifier": [
          {
            "system": "http://example.org",
            "value": "3e6e481e-dda4-431f-ac4e-2b60acf9da29"
          }
        ],
        "specimen": [
          {
            "reference": "urn:uuid:931b2d55-5188-452f-bb21-d49738c5b8f9"
          },
          {
            "reference": "urn:uuid:5b1b81df-599e-4eb9-91c3-c10d0cac0987"
          },
          {
            "reference": "urn:uuid:4f209e59-94a6-4294-a6ec-6fea927ff7ed"
          }
        ],
        "reasonCode": [
          {
            "coding": [
              {
                "code": "431856006",
                "system": "http://snomed.info/sct",
                "display": "Chronic kidney disease stage 2"
              }
            ]
          },
          {
            "coding": [
              {
                "code": "90781000119102",
                "system": "http://snomed.info/sct",
                "display": "Microalbuminuria due to type 2 diabetes mellitus"
              }
            ]
          },
          {
            "coding": [
              {
                "code": "127013003",
                "system": "http://snomed.info/sct",
                "display": "Disorder of kidney due to diabetes mellitus"
              }
            ]
          },
          {
            "coding": [
              {
                "code": "431855005",
                "system": "http://snomed.info/sct",
                "display": "Chronic kidney disease stage 1"
              }
            ]
          },
          {
            "coding": [
              {
                "code": "64859006",
                "system": "http://snomed.info/sct",
                "display": "Osteoporosis"
              }
            ]
          },
          {
            "coding": [
              {
                "code": "414545008",
                "system": "http://snomed.info/sct",
                "display": "Ischemic heart disease"
              }
            ]
          },
          {
            "coding": [
              {
                "code": "237602007",
                "system": "http://snomed.info/sct",
                "display": "Metabolic syndrome X"
              }
            ]
          },
          {
            "coding": [
              {
                "code": "59621000",
                "system": "http://snomed.info/sct",
                "display": "Essential hypertension"
              }
            ]
          },
          {
            "coding": [
              {
                "code": "271737000",
                "system": "http://snomed.info/sct",
                "display": "Anemia"
              }
            ]
          },
          {
            "coding": [
              {
                "code": "15777000",
                "system": "http://snomed.info/sct",
                "display": "Prediabetes"
              }
            ]
          }
        ],
        "status": "active",
        "intent": "order",
        "code": {
          "coding": [
            {
              "code": "108252007",
              "system": "http://snomed.info/sct",
              "display": "Laboratory procedure"
            }
          ]
        },
        "subject": {
          "reference": "urn:uuid:1da7604b-469d-4695-838b-200002d7d7da",
          "display": "Pelayo Casal"
        },
        "requester": {
          "reference": "urn:uuid:65ff43a1-2096-49b3-b36d-3398525d57f1"
        }
      }
    },
    {
      "fullUrl": "urn:uuid:65ff43a1-2096-49b3-b36d-3398525d57f1",
      "resource": {
        "resourceType": "PractitionerRole",
        "id": "65ff43a1-2096-49b3-b36d-3398525d57f1",
        "meta": {
          "profile": [
            "http://hl7.eu/fhir/base/StructureDefinition/practitionerRole-eu"
          ]
        },
        "text": {
          "status": "generated",
          "div": "<div xmlns=\"http://www.w3.org/1999/xhtml\">Provider Role Id: 65ff43a1-2096-49b3-b36d-3398525d57f1</div>"
        },
        "organization": {
          "reference": "urn:uuid:299c6fc7-c386-4648-b8ca-cfc62b8a4dbd"
        }
      }
    },
    {
      "fullUrl": "urn:uuid:299c6fc7-c386-4648-b8ca-cfc62b8a4dbd",
      "resource": {
        "resourceType": "Organization",
        "id": "299c6fc7-c386-4648-b8ca-cfc62b8a4dbd",
        "meta": {
          "profile": [
            "http://hl7.eu/fhir/base/StructureDefinition/organization-eu"
          ]
        },
        "identifier": [
          {
            "assigner": {
              "display": "HL7 Europe"
            },
            "system": "urn:oid:2.16.840.1.113883.2.51.999",
            "value": "45bb9a00-8273-4686-bfd6-a2a685017c56"
          }
        ],
        "address": [
          {
            "country": "Spain"
          }
        ],
        "text": {
          "status": "generated",
          "div": "<div xmlns=\"http://www.w3.org/1999/xhtml\">Provider Organization: Centro de Salud de Guanarteme</div>"
        },
        "name": "Centro de Salud de Guanarteme"
      }
    },
    {
      "fullUrl": "urn:uuid:931b2d55-5188-452f-bb21-d49738c5b8f9",
      "resource": {
        "resourceType": "Specimen",
        "id": "931b2d55-5188-452f-bb21-d49738c5b8f9",
        "meta": {
          "profile": [
            "http://hl7.eu/fhir/laboratory/StructureDefinition/Specimen-eu-lab"
          ]
        },
        "collection": {
          "collectedDateTime": "2021-05-13"
        },
        "text": {
          "status": "generated",
          "div": "<div xmlns=\"http://www.w3.org/1999/xhtml\"><table class=\"hl7__eu__lab__report\"><tr><th>Specimen</th><th>Collection Date</th></tr><tr><td>Acellular blood (serum or plasma) specimen</td><td><span class=\"nb\">13-May-2021</span></td></tr></table></div>"
        },
        "type": {
          "coding": [
            {
              "code": "122592007",
              "system": "http://snomed.info/sct",
              "display": "Acellular blood (serum or plasma) specimen"
            }
          ]
        }
      }
    },
    {
      "fullUrl": "urn:uuid:5b1b81df-599e-4eb9-91c3-c10d0cac0987",
      "resource": {
        "resourceType": "Specimen",
        "id": "5b1b81df-599e-4eb9-91c3-c10d0cac0987",
        "meta": {
          "profile": [
            "http://hl7.eu/fhir/laboratory/StructureDefinition/Specimen-eu-lab"
          ]
        },
        "collection": {
          "collectedDateTime": "2021-05-13"
        },
        "text": {
          "status": "generated",
          "div": "<div xmlns=\"http://www.w3.org/1999/xhtml\"><table class=\"hl7__eu__lab__report\"><tr><th>Specimen</th><th>Collection Date</th></tr><tr><td>Urine specimen</td><td><span class=\"nb\">13-May-2021</span></td></tr></table></div>"
        },
        "type": {
          "coding": [
            {
              "code": "122575003",
              "system": "http://snomed.info/sct",
              "display": "Urine specimen"
            }
          ]
        }
      }
    },
    {
      "fullUrl": "urn:uuid:4f209e59-94a6-4294-a6ec-6fea927ff7ed",
      "resource": {
        "resourceType": "Specimen",
        "id": "4f209e59-94a6-4294-a6ec-6fea927ff7ed",
        "meta": {
          "profile": [
            "http://hl7.eu/fhir/laboratory/StructureDefinition/Specimen-eu-lab"
          ]
        },
        "collection": {
          "collectedDateTime": "2021-05-13"
        },
        "text": {
          "status": "generated",
          "div": "<div xmlns=\"http://www.w3.org/1999/xhtml\"><table class=\"hl7__eu__lab__report\"><tr><th>Specimen</th><th>Collection Date</th></tr><tr><td>Whole blood specimen (specimen)</td><td><span class=\"nb\">13-May-2021</span></td></tr></table></div>"
        },
        "type": {
          "coding": [
            {
              "code": "258580003",
              "system": "http://snomed.info/sct",
              "display": "Whole blood specimen (specimen)"
            }
          ]
        }
      }
    },
    {
      "fullUrl": "urn:uuid:6dbccb40-b86c-40c4-9b25-d4a9f1998e8f",
      "resource": {
        "resourceType": "Observation",
        "id": "6dbccb40-b86c-40c4-9b25-d4a9f1998e8f",
        "meta": {
          "profile": [
            "http://hl7.eu/fhir/laboratory/StructureDefinition/Observation-resultslab-eu-lab"
          ]
        },
        "performer": [
          {
            "display": "The Central European Lab"
          }
        ],
        "category": [
          {
            "coding": [
              {
                "system": "http://terminology.hl7.org/CodeSystem/observation-category",
                "code": "laboratory"
              }
            ]
          }
        ],
        "code": {
          "coding": [
            {
              "code": "2345-7",
              "system": "http://loinc.org",
              "display": "Glucose [Mass/volume] in Serum or Plasma"
            }
          ],
          "text": "Glucose [Mass/volume] in Serum or Plasma"
        },
        "valueQuantity": {
          "system": "http://unitsofmeasure.org",
          "value": 84.4,
          "unit": "mg/dL",
          "code": "mg/dL"
        },
        "referenceRange": [
          {
            "low": {
              "value": 70,
              "code": "mg/dL",
              "system": "http://unitsofmeasure.org"
            }
          },
          {
            "high": {
              "value": 140,
              "code": "mg/dL",
              "system": "http://unitsofmeasure.org"
            }
          }
        ],
        "text": {
          "status": "generated",
          "div": "<div xmlns=\"http://www.w3.org/1999/xhtml\"><table class=\"hl7__eu__lab__report\"><tr><th>Test</th><th>13-May-2021</th><th>Reference&#xA0;Range</th><th>Unit</th></tr><tr><td>Glucose [Mass/volume] in Serum or Plasma</td><td>84.4</td><td>70 - 140</td><td></td><td>mg/dL</td></tr></table></div>"
        },
        "status": "final",
        "subject": {
          "reference": "urn:uuid:1da7604b-469d-4695-838b-200002d7d7da",
          "display": "Pelayo Casal"
        },
        "effectiveDateTime": "2021-05-13T05:38:59Z",
        "specimen": {
          "reference": "urn:uuid:931b2d55-5188-452f-bb21-d49738c5b8f9"
        }
      }
    },
    {
      "fullUrl": "urn:uuid:7aa5537c-7c4c-4c7e-b3b8-d9993030960a",
      "resource": {
        "resourceType": "Observation",
        "id": "7aa5537c-7c4c-4c7e-b3b8-d9993030960a",
        "meta": {
          "profile": [
            "http://hl7.eu/fhir/laboratory/StructureDefinition/Observation-resultslab-eu-lab"
          ]
        },
        "performer": [
          {
            "display": "The Central European Lab"
          }
        ],
        "category": [
          {
            "coding": [
              {
                "system": "http://terminology.hl7.org/CodeSystem/observation-category",
                "code": "laboratory"
              }
            ]
          }
        ],
        "code": {
          "coding": [
            {
              "code": "3094-0",
              "system": "http://loinc.org",
              "display": "Urea nitrogen [Mass/volume] in Serum or Plasma"
            }
          ],
          "text": "Urea nitrogen [Mass/volume] in Serum or Plasma"
        },
        "valueQuantity": {
          "system": "http://unitsofmeasure.org",
          "value": 17.3,
          "unit": "mg/dL",
          "code": "mg/dL"
        },
        "referenceRange": [
          {
            "low": {
              "value": 7,
              "code": "mg/dL",
              "system": "http://unitsofmeasure.org"
            }
          },
          {
            "high": {
              "value": 25,
              "code": "mg/dL",
              "system": "http://unitsofmeasure.org"
            }
          }
        ],
        "text": {
          "status": "generated",
          "div": "<div xmlns=\"http://www.w3.org/1999/xhtml\"><table class=\"hl7__eu__lab__report\"><tr><th>Test</th><th>13-May-2021</th><th>Reference&#xA0;Range</th><th>Unit</th></tr><tr><td>Urea nitrogen [Mass/volume] in Serum or Plasma</td><td>17.3</td><td>7 - 25</td><td></td><td>mg/dL</td></tr></table></div>"
        },
        "status": "final",
        "subject": {
          "reference": "urn:uuid:1da7604b-469d-4695-838b-200002d7d7da",
          "display": "Pelayo Casal"
        },
        "effectiveDateTime": "2021-05-13T05:38:59Z",
        "specimen": {
          "reference": "urn:uuid:931b2d55-5188-452f-bb21-d49738c5b8f9"
        }
      }
    },
    {
      "fullUrl": "urn:uuid:fe0dee09-69a4-48c7-96a6-2292bf1c1d8e",
      "resource": {
        "resourceType": "Observation",
        "id": "fe0dee09-69a4-48c7-96a6-2292bf1c1d8e",
        "meta": {
          "profile": [
            "http://hl7.eu/fhir/laboratory/StructureDefinition/Observation-resultslab-eu-lab"
          ]
        },
        "performer": [
          {
            "display": "The Central European Lab"
          }
        ],
        "category": [
          {
            "coding": [
              {
                "system": "http://terminology.hl7.org/CodeSystem/observation-category",
                "code": "laboratory"
              }
            ]
          }
        ],
        "code": {
          "coding": [
            {
              "code": "2160-0",
              "system": "http://loinc.org",
              "display": "Creatinine [Mass/volume] in Serum or Plasma"
            }
          ],
          "text": "Creatinine [Mass/volume] in Serum or Plasma"
        },
        "valueQuantity": {
          "system": "http://unitsofmeasure.org",
          "value": 1.9,
          "unit": "mg/dL",
          "code": "mg/dL"
        },
        "referenceRange": [
          {
            "low": {
              "value": 0.9,
              "code": "mg/dL",
              "system": "http://unitsofmeasure.org"
            }
          },
          {
            "high": {
              "value": 1.3,
              "code": "mg/dL",
              "system": "http://unitsofmeasure.org"
            }
          }
        ],
        "interpretation": [
          {
            "coding": [
              {
                "code": "H",
                "system": "http://terminology.hl7.org/CodeSystem/v3-ObservationInterpretation",
                "display": "High"
              }
            ]
          }
        ],
        "text": {
          "status": "generated",
          "div": "<div xmlns=\"http://www.w3.org/1999/xhtml\"><table class=\"hl7__eu__lab__report\"><tr><th>Test</th><th>13-May-2021</th><th>Reference&#xA0;Range</th><th>Unit</th></tr><tr><td>Creatinine [Mass/volume] in Serum or Plasma</td><td>1.9</td><td>0.9 - 1.3</td><td>H</td><td>mg/dL</td></tr></table></div>"
        },
        "status": "final",
        "subject": {
          "reference": "urn:uuid:1da7604b-469d-4695-838b-200002d7d7da",
          "display": "Pelayo Casal"
        },
        "effectiveDateTime": "2021-05-13T05:38:59Z",
        "specimen": {
          "reference": "urn:uuid:931b2d55-5188-452f-bb21-d49738c5b8f9"
        }
      }
    },
    {
      "fullUrl": "urn:uuid:6d822093-48fd-4603-9d54-6fa5aab369a2",
      "resource": {
        "resourceType": "Observation",
        "id": "6d822093-48fd-4603-9d54-6fa5aab369a2",
        "meta": {
          "profile": [
            "http://hl7.eu/fhir/laboratory/StructureDefinition/Observation-resultslab-eu-lab"
          ]
        },
        "performer": [
          {
            "display": "The Central European Lab"
          }
        ],
        "category": [
          {
            "coding": [
              {
                "system": "http://terminology.hl7.org/CodeSystem/observation-category",
                "code": "laboratory"
              }
            ]
          }
        ],
        "code": {
          "coding": [
            {
              "code": "17861-6",
              "system": "http://loinc.org",
              "display": "Calcium [Mass/volume] in Serum or Plasma"
            }
          ],
          "text": "Calcium [Mass/volume] in Serum or Plasma"
        },
        "valueQuantity": {
          "system": "http://unitsofmeasure.org",
          "value": 8.6,
          "unit": "mg/dL",
          "code": "mg/dL"
        },
        "referenceRange": [
          {
            "low": {
              "value": 8.5,
              "code": "mg/dL",
              "system": "http://unitsofmeasure.org"
            }
          },
          {
            "high": {
              "value": 10.5,
              "code": "mg/dL",
              "system": "http://unitsofmeasure.org"
            }
          }
        ],
        "text": {
          "status": "generated",
          "div": "<div xmlns=\"http://www.w3.org/1999/xhtml\"><table class=\"hl7__eu__lab__report\"><tr><th>Test</th><th>13-May-2021</th><th>Reference&#xA0;Range</th><th>Unit</th></tr><tr><td>Calcium [Mass/volume] in Serum or Plasma</td><td>8.6</td><td>8.5 - 10.5</td><td></td><td>mg/dL</td></tr></table></div>"
        },
        "status": "final",
        "subject": {
          "reference": "urn:uuid:1da7604b-469d-4695-838b-200002d7d7da",
          "display": "Pelayo Casal"
        },
        "effectiveDateTime": "2021-05-13T05:38:59Z",
        "specimen": {
          "reference": "urn:uuid:931b2d55-5188-452f-bb21-d49738c5b8f9"
        }
      }
    },
    {
      "fullUrl": "urn:uuid:f86cd92f-5256-49a6-95c8-d45b12e0bc45",
      "resource": {
        "resourceType": "Observation",
        "id": "f86cd92f-5256-49a6-95c8-d45b12e0bc45",
        "meta": {
          "profile": [
            "http://hl7.eu/fhir/laboratory/StructureDefinition/Observation-resultslab-eu-lab"
          ]
        },
        "performer": [
          {
            "display": "The Central European Lab"
          }
        ],
        "category": [
          {
            "coding": [
              {
                "system": "http://terminology.hl7.org/CodeSystem/observation-category",
                "code": "laboratory"
              }
            ]
          }
        ],
        "code": {
          "coding": [
            {
              "code": "2951-2",
              "system": "http://loinc.org",
              "display": "Sodium [Moles/volume] in Serum or Plasma"
            }
          ],
          "text": "Sodium [Moles/volume] in Serum or Plasma"
        },
        "valueQuantity": {
          "system": "http://unitsofmeasure.org",
          "value": 143.5,
          "unit": "mmol/L",
          "code": "mmol/L"
        },
        "referenceRange": [
          {
            "low": {
              "value": 135,
              "code": "mmol/L",
              "system": "http://unitsofmeasure.org"
            }
          },
          {
            "high": {
              "value": 145,
              "code": "mmol/L",
              "system": "http://unitsofmeasure.org"
            }
          }
        ],
        "text": {
          "status": "generated",
          "div": "<div xmlns=\"http://www.w3.org/1999/xhtml\"><table class=\"hl7__eu__lab__report\"><tr><th>Test</th><th>13-May-2021</th><th>Reference&#xA0;Range</th><th>Unit</th></tr><tr><td>Sodium [Moles/volume] in Serum or Plasma</td><td>143.5</td><td>135 - 145</td><td></td><td>mmol/L</td></tr></table></div>"
        },
        "status": "final",
        "subject": {
          "reference": "urn:uuid:1da7604b-469d-4695-838b-200002d7d7da",
          "display": "Pelayo Casal"
        },
        "effectiveDateTime": "2021-05-13T05:38:59Z",
        "specimen": {
          "reference": "urn:uuid:931b2d55-5188-452f-bb21-d49738c5b8f9"
        }
      }
    },
    {
      "fullUrl": "urn:uuid:4c5c6565-aca4-4dd1-bf24-336a2901f253",
      "resource": {
        "resourceType": "Observation",
        "id": "4c5c6565-aca4-4dd1-bf24-336a2901f253",
        "meta": {
          "profile": [
            "http://hl7.eu/fhir/laboratory/StructureDefinition/Observation-resultslab-eu-lab"
          ]
        },
        "performer": [
          {
            "display": "The Central European Lab"
          }
        ],
        "category": [
          {
            "coding": [
              {
                "system": "http://terminology.hl7.org/CodeSystem/observation-category",
                "code": "laboratory"
              }
            ]
          }
        ],
        "code": {
          "coding": [
            {
              "code": "2823-3",
              "system": "http://loinc.org",
              "display": "Potassium [Moles/volume] in Serum or Plasma"
            }
          ],
          "text": "Potassium [Moles/volume] in Serum or Plasma"
        },
        "valueQuantity": {
          "system": "http://unitsofmeasure.org",
          "value": 3.9,
          "unit": "mmol/L",
          "code": "mmol/L"
        },
        "referenceRange": [
          {
            "low": {
              "value": 3.5,
              "code": "mmol/L",
              "system": "http://unitsofmeasure.org"
            }
          },
          {
            "high": {
              "value": 5.3,
              "code": "mmol/L",
              "system": "http://unitsofmeasure.org"
            }
          }
        ],
        "text": {
          "status": "generated",
          "div": "<div xmlns=\"http://www.w3.org/1999/xhtml\"><table class=\"hl7__eu__lab__report\"><tr><th>Test</th><th>13-May-2021</th><th>Reference&#xA0;Range</th><th>Unit</th></tr><tr><td>Potassium [Moles/volume] in Serum or Plasma</td><td>3.9</td><td>3.5 - 5.3</td><td></td><td>mmol/L</td></tr></table></div>"
        },
        "status": "final",
        "subject": {
          "reference": "urn:uuid:1da7604b-469d-4695-838b-200002d7d7da",
          "display": "Pelayo Casal"
        },
        "effectiveDateTime": "2021-05-13T05:38:59Z",
        "specimen": {
          "reference": "urn:uuid:931b2d55-5188-452f-bb21-d49738c5b8f9"
        }
      }
    },
    {
      "fullUrl": "urn:uuid:d90323c1-076c-466c-9538-1ff54b204c10",
      "resource": {
        "resourceType": "Observation",
        "id": "d90323c1-076c-466c-9538-1ff54b204c10",
        "meta": {
          "profile": [
            "http://hl7.eu/fhir/laboratory/StructureDefinition/Observation-resultslab-eu-lab"
          ]
        },
        "performer": [
          {
            "display": "The Central European Lab"
          }
        ],
        "category": [
          {
            "coding": [
              {
                "system": "http://terminology.hl7.org/CodeSystem/observation-category",
                "code": "laboratory"
              }
            ]
          }
        ],
        "code": {
          "coding": [
            {
              "code": "2075-0",
              "system": "http://loinc.org",
              "display": "Chloride [Moles/volume] in Serum or Plasma"
            }
          ],
          "text": "Chloride [Moles/volume] in Serum or Plasma"
        },
        "valueQuantity": {
          "system": "http://unitsofmeasure.org",
          "value": 102.1,
          "unit": "mmol/L",
          "code": "mmol/L"
        },
        "referenceRange": [
          {
            "low": {
              "value": 98,
              "code": "mmol/L",
              "system": "http://unitsofmeasure.org"
            }
          },
          {
            "high": {
              "value": 107,
              "code": "mmol/L",
              "system": "http://unitsofmeasure.org"
            }
          }
        ],
        "text": {
          "status": "generated",
          "div": "<div xmlns=\"http://www.w3.org/1999/xhtml\"><table class=\"hl7__eu__lab__report\"><tr><th>Test</th><th>13-May-2021</th><th>Reference&#xA0;Range</th><th>Unit</th></tr><tr><td>Chloride [Moles/volume] in Serum or Plasma</td><td>102.1</td><td>98 - 107</td><td></td><td>mmol/L</td></tr></table></div>"
        },
        "status": "final",
        "subject": {
          "reference": "urn:uuid:1da7604b-469d-4695-838b-200002d7d7da",
          "display": "Pelayo Casal"
        },
        "effectiveDateTime": "2021-05-13T05:38:59Z",
        "specimen": {
          "reference": "urn:uuid:931b2d55-5188-452f-bb21-d49738c5b8f9"
        }
      }
    },
    {
      "fullUrl": "urn:uuid:058adde9-b6b2-4235-ab8a-e46d67463bf5",
      "resource": {
        "resourceType": "Observation",
        "id": "058adde9-b6b2-4235-ab8a-e46d67463bf5",
        "meta": {
          "profile": [
            "http://hl7.eu/fhir/laboratory/StructureDefinition/Observation-resultslab-eu-lab"
          ]
        },
        "performer": [
          {
            "display": "The Central European Lab"
          }
        ],
        "category": [
          {
            "coding": [
              {
                "system": "http://terminology.hl7.org/CodeSystem/observation-category",
                "code": "laboratory"
              }
            ]
          }
        ],
        "code": {
          "coding": [
            {
              "code": "2028-9",
              "system": "http://loinc.org",
              "display": "Carbon dioxide, total [Moles/volume] in Serum or Plasma"
            }
          ],
          "text": "Carbon dioxide, total [Moles/volume] in Serum or Plasma"
        },
        "valueQuantity": {
          "system": "http://unitsofmeasure.org",
          "value": 26.6,
          "unit": "mmol/L",
          "code": "mmol/L"
        },
        "referenceRange": [
          {
            "low": {
              "value": 22,
              "code": "mmol/L",
              "system": "http://unitsofmeasure.org"
            }
          },
          {
            "high": {
              "value": 29,
              "code": "mmol/L",
              "system": "http://unitsofmeasure.org"
            }
          }
        ],
        "text": {
          "status": "generated",
          "div": "<div xmlns=\"http://www.w3.org/1999/xhtml\"><table class=\"hl7__eu__lab__report\"><tr><th>Test</th><th>13-May-2021</th><th>Reference&#xA0;Range</th><th>Unit</th></tr><tr><td>Carbon dioxide, total [Moles/volume] in Serum or Plasma</td><td>26.6</td><td>22 - 29</td><td></td><td>mmol/L</td></tr></table></div>"
        },
        "status": "final",
        "subject": {
          "reference": "urn:uuid:1da7604b-469d-4695-838b-200002d7d7da",
          "display": "Pelayo Casal"
        },
        "effectiveDateTime": "2021-05-13T05:38:59Z",
        "specimen": {
          "reference": "urn:uuid:931b2d55-5188-452f-bb21-d49738c5b8f9"
        }
      }
    },
    {
      "fullUrl": "urn:uuid:81ca83e0-fb28-440d-aa47-baa3dd6c4515",
      "resource": {
        "resourceType": "Observation",
        "id": "81ca83e0-fb28-440d-aa47-baa3dd6c4515",
        "meta": {
          "profile": [
            "http://hl7.eu/fhir/laboratory/StructureDefinition/Observation-resultslab-eu-lab"
          ]
        },
        "performer": [
          {
            "display": "The Central European Lab"
          }
        ],
        "category": [
          {
            "coding": [
              {
                "system": "http://terminology.hl7.org/CodeSystem/observation-category",
                "code": "laboratory"
              }
            ]
          }
        ],
        "code": {
          "coding": [
            {
              "code": "5767-9",
              "system": "http://loinc.org",
              "display": "Appearance of Urine"
            }
          ],
          "text": "Appearance of Urine"
        },
        "text": {
          "status": "generated",
          "div": "<div xmlns=\"http://www.w3.org/1999/xhtml\"><table class=\"hl7__eu__lab__report\"><tr><th>Test</th><th>13-May-2021</th><th>Reference&#xA0;Range</th><th>Unit</th></tr><tr><td>Appearance of Urine</td></tr></table></div>"
        },
        "status": "final",
        "subject": {
          "reference": "urn:uuid:1da7604b-469d-4695-838b-200002d7d7da",
          "display": "Pelayo Casal"
        },
        "effectiveDateTime": "2021-05-13T05:38:59Z",
        "specimen": {
          "reference": "urn:uuid:5b1b81df-599e-4eb9-91c3-c10d0cac0987"
        }
      }
    },
    {
      "fullUrl": "urn:uuid:e573c123-bb36-40d1-a99e-f0258bda6818",
      "resource": {
        "resourceType": "Observation",
        "id": "e573c123-bb36-40d1-a99e-f0258bda6818",
        "meta": {
          "profile": [
            "http://hl7.eu/fhir/laboratory/StructureDefinition/Observation-resultslab-eu-lab"
          ]
        },
        "performer": [
          {
            "display": "The Central European Lab"
          }
        ],
        "category": [
          {
            "coding": [
              {
                "system": "http://terminology.hl7.org/CodeSystem/observation-category",
                "code": "laboratory"
              }
            ]
          }
        ],
        "code": {
          "coding": [
            {
              "code": "34533-0",
              "system": "http://loinc.org",
              "display": "Odor of Urine"
            }
          ],
          "text": "Odor of Urine"
        },
        "text": {
          "status": "generated",
          "div": "<div xmlns=\"http://www.w3.org/1999/xhtml\"><table class=\"hl7__eu__lab__report\"><tr><th>Test</th><th>13-May-2021</th><th>Reference&#xA0;Range</th><th>Unit</th></tr><tr><td>Odor of Urine</td></tr></table></div>"
        },
        "status": "final",
        "subject": {
          "reference": "urn:uuid:1da7604b-469d-4695-838b-200002d7d7da",
          "display": "Pelayo Casal"
        },
        "effectiveDateTime": "2021-05-13T05:38:59Z",
        "specimen": {
          "reference": "urn:uuid:5b1b81df-599e-4eb9-91c3-c10d0cac0987"
        }
      }
    },
    {
      "fullUrl": "urn:uuid:1898114a-5c93-4e7c-ac17-198525d864bf",
      "resource": {
        "resourceType": "Observation",
        "id": "1898114a-5c93-4e7c-ac17-198525d864bf",
        "meta": {
          "profile": [
            "http://hl7.eu/fhir/laboratory/StructureDefinition/Observation-resultslab-eu-lab"
          ]
        },
        "performer": [
          {
            "display": "The Central European Lab"
          }
        ],
        "category": [
          {
            "coding": [
              {
                "system": "http://terminology.hl7.org/CodeSystem/observation-category",
                "code": "laboratory"
              }
            ]
          }
        ],
        "code": {
          "coding": [
            {
              "code": "32167-9",
              "system": "http://loinc.org",
              "display": "Clarity of Urine"
            }
          ],
          "text": "Clarity of Urine"
        },
        "text": {
          "status": "generated",
          "div": "<div xmlns=\"http://www.w3.org/1999/xhtml\"><table class=\"hl7__eu__lab__report\"><tr><th>Test</th><th>13-May-2021</th><th>Reference&#xA0;Range</th><th>Unit</th></tr><tr><td>Clarity of Urine</td></tr></table></div>"
        },
        "status": "final",
        "subject": {
          "reference": "urn:uuid:1da7604b-469d-4695-838b-200002d7d7da",
          "display": "Pelayo Casal"
        },
        "effectiveDateTime": "2021-05-13T05:38:59Z",
        "specimen": {
          "reference": "urn:uuid:5b1b81df-599e-4eb9-91c3-c10d0cac0987"
        }
      }
    },
    {
      "fullUrl": "urn:uuid:75656d4e-38ce-4125-bd21-02c33f337024",
      "resource": {
        "resourceType": "Observation",
        "id": "75656d4e-38ce-4125-bd21-02c33f337024",
        "meta": {
          "profile": [
            "http://hl7.eu/fhir/laboratory/StructureDefinition/Observation-resultslab-eu-lab"
          ]
        },
        "performer": [
          {
            "display": "The Central European Lab"
          }
        ],
        "category": [
          {
            "coding": [
              {
                "system": "http://terminology.hl7.org/CodeSystem/observation-category",
                "code": "laboratory"
              }
            ]
          }
        ],
        "code": {
          "coding": [
            {
              "code": "5778-6",
              "system": "http://loinc.org",
              "display": "Color of Urine"
            }
          ],
          "text": "Color of Urine"
        },
        "text": {
          "status": "generated",
          "div": "<div xmlns=\"http://www.w3.org/1999/xhtml\"><table class=\"hl7__eu__lab__report\"><tr><th>Test</th><th>13-May-2021</th><th>Reference&#xA0;Range</th><th>Unit</th></tr><tr><td>Color of Urine</td></tr></table></div>"
        },
        "status": "final",
        "subject": {
          "reference": "urn:uuid:1da7604b-469d-4695-838b-200002d7d7da",
          "display": "Pelayo Casal"
        },
        "effectiveDateTime": "2021-05-13T05:38:59Z",
        "specimen": {
          "reference": "urn:uuid:5b1b81df-599e-4eb9-91c3-c10d0cac0987"
        }
      }
    },
    {
      "fullUrl": "urn:uuid:b795566d-ff1b-42a5-bd70-e2920d747187",
      "resource": {
        "resourceType": "Observation",
        "id": "b795566d-ff1b-42a5-bd70-e2920d747187",
        "meta": {
          "profile": [
            "http://hl7.eu/fhir/laboratory/StructureDefinition/Observation-resultslab-eu-lab"
          ]
        },
        "performer": [
          {
            "display": "The Central European Lab"
          }
        ],
        "category": [
          {
            "coding": [
              {
                "system": "http://terminology.hl7.org/CodeSystem/observation-category",
                "code": "laboratory"
              }
            ]
          }
        ],
        "code": {
          "coding": [
            {
              "code": "5792-7",
              "system": "http://loinc.org",
              "display": "Glucose [Mass/volume] in Urine by Test strip"
            }
          ],
          "text": "Glucose [Mass/volume] in Urine by Test strip"
        },
        "valueQuantity": {
          "system": "http://unitsofmeasure.org",
          "value": 1.5,
          "unit": "mg/dL",
          "code": "mg/dL"
        },
        "referenceRange": [
          {
            "low": {
              "value": 0.8,
              "code": "mg/dL",
              "system": "http://unitsofmeasure.org"
            }
          },
          {
            "high": {
              "value": 0,
              "code": "mg/dL",
              "system": "http://unitsofmeasure.org"
            }
          }
        ],
        "interpretation": [
          {
            "coding": [
              {
                "code": "H",
                "system": "http://terminology.hl7.org/CodeSystem/v3-ObservationInterpretation",
                "display": "High"
              }
            ]
          }
        ],
        "text": {
          "status": "generated",
          "div": "<div xmlns=\"http://www.w3.org/1999/xhtml\"><table class=\"hl7__eu__lab__report\"><tr><th>Test</th><th>13-May-2021</th><th>Reference&#xA0;Range</th><th>Unit</th></tr><tr><td>Glucose [Mass/volume] in Urine by Test strip</td><td>1.5</td><td>0.8 - 0</td><td>H</td><td>mg/dL</td></tr></table></div>"
        },
        "status": "final",
        "subject": {
          "reference": "urn:uuid:1da7604b-469d-4695-838b-200002d7d7da",
          "display": "Pelayo Casal"
        },
        "effectiveDateTime": "2021-05-13T05:38:59Z",
        "specimen": {
          "reference": "urn:uuid:5b1b81df-599e-4eb9-91c3-c10d0cac0987"
        }
      }
    },
    {
      "fullUrl": "urn:uuid:d2d8985a-c2ec-45e7-a3c1-1f934bdb166d",
      "resource": {
        "resourceType": "Observation",
        "id": "d2d8985a-c2ec-45e7-a3c1-1f934bdb166d",
        "meta": {
          "profile": [
            "http://hl7.eu/fhir/laboratory/StructureDefinition/Observation-resultslab-eu-lab"
          ]
        },
        "performer": [
          {
            "display": "The Central European Lab"
          }
        ],
        "category": [
          {
            "coding": [
              {
                "system": "http://terminology.hl7.org/CodeSystem/observation-category",
                "code": "laboratory"
              }
            ]
          }
        ],
        "code": {
          "coding": [
            {
              "code": "25428-4",
              "system": "http://loinc.org",
              "display": "Glucose [Presence] in Urine by Test strip"
            }
          ],
          "text": "Glucose [Presence] in Urine by Test strip"
        },
        "text": {
          "status": "generated",
          "div": "<div xmlns=\"http://www.w3.org/1999/xhtml\"><table class=\"hl7__eu__lab__report\"><tr><th>Test</th><th>13-May-2021</th><th>Reference&#xA0;Range</th><th>Unit</th></tr><tr><td>Glucose [Presence] in Urine by Test strip</td></tr></table></div>"
        },
        "status": "final",
        "subject": {
          "reference": "urn:uuid:1da7604b-469d-4695-838b-200002d7d7da",
          "display": "Pelayo Casal"
        },
        "effectiveDateTime": "2021-05-13T05:38:59Z",
        "specimen": {
          "reference": "urn:uuid:5b1b81df-599e-4eb9-91c3-c10d0cac0987"
        }
      }
    },
    {
      "fullUrl": "urn:uuid:a74b4a43-8791-40f1-9cdf-d8a4f64eca9e",
      "resource": {
        "resourceType": "Observation",
        "id": "a74b4a43-8791-40f1-9cdf-d8a4f64eca9e",
        "meta": {
          "profile": [
            "http://hl7.eu/fhir/laboratory/StructureDefinition/Observation-resultslab-eu-lab"
          ]
        },
        "performer": [
          {
            "display": "The Central European Lab"
          }
        ],
        "category": [
          {
            "coding": [
              {
                "system": "http://terminology.hl7.org/CodeSystem/observation-category",
                "code": "laboratory"
              }
            ]
          }
        ],
        "code": {
          "coding": [
            {
              "code": "20505-4",
              "system": "http://loinc.org",
              "display": "Bilirubin.total [Mass/volume] in Urine by Test strip"
            }
          ],
          "text": "Bilirubin.total [Mass/volume] in Urine by Test strip"
        },
        "valueQuantity": {
          "system": "http://unitsofmeasure.org",
          "value": 1.2,
          "unit": "mg/dL",
          "code": "mg/dL"
        },
        "referenceRange": [
          {
            "low": {
              "value": 0.2,
              "code": "mg/dL",
              "system": "http://unitsofmeasure.org"
            }
          },
          {
            "high": {
              "value": 1.5,
              "code": "mg/dL",
              "system": "http://unitsofmeasure.org"
            }
          }
        ],
        "text": {
          "status": "generated",
          "div": "<div xmlns=\"http://www.w3.org/1999/xhtml\"><table class=\"hl7__eu__lab__report\"><tr><th>Test</th><th>13-May-2021</th><th>Reference&#xA0;Range</th><th>Unit</th></tr><tr><td>Bilirubin.total [Mass/volume] in Urine by Test strip</td><td>1.2</td><td>0.2 - 1.5</td><td></td><td>mg/dL</td></tr></table></div>"
        },
        "status": "final",
        "subject": {
          "reference": "urn:uuid:1da7604b-469d-4695-838b-200002d7d7da",
          "display": "Pelayo Casal"
        },
        "effectiveDateTime": "2021-05-13T05:38:59Z",
        "specimen": {
          "reference": "urn:uuid:5b1b81df-599e-4eb9-91c3-c10d0cac0987"
        }
      }
    },
    {
      "fullUrl": "urn:uuid:07c5edf6-85e7-47a5-84da-87d0b1f094f9",
      "resource": {
        "resourceType": "Observation",
        "id": "07c5edf6-85e7-47a5-84da-87d0b1f094f9",
        "meta": {
          "profile": [
            "http://hl7.eu/fhir/laboratory/StructureDefinition/Observation-resultslab-eu-lab"
          ]
        },
        "performer": [
          {
            "display": "The Central European Lab"
          }
        ],
        "category": [
          {
            "coding": [
              {
                "system": "http://terminology.hl7.org/CodeSystem/observation-category",
                "code": "laboratory"
              }
            ]
          }
        ],
        "code": {
          "coding": [
            {
              "code": "5770-3",
              "system": "http://loinc.org",
              "display": "Bilirubin.total [Presence] in Urine by Test strip"
            }
          ],
          "text": "Bilirubin.total [Presence] in Urine by Test strip"
        },
        "text": {
          "status": "generated",
          "div": "<div xmlns=\"http://www.w3.org/1999/xhtml\"><table class=\"hl7__eu__lab__report\"><tr><th>Test</th><th>13-May-2021</th><th>Reference&#xA0;Range</th><th>Unit</th></tr><tr><td>Bilirubin.total [Presence] in Urine by Test strip</td></tr></table></div>"
        },
        "status": "final",
        "subject": {
          "reference": "urn:uuid:1da7604b-469d-4695-838b-200002d7d7da",
          "display": "Pelayo Casal"
        },
        "effectiveDateTime": "2021-05-13T05:38:59Z",
        "specimen": {
          "reference": "urn:uuid:5b1b81df-599e-4eb9-91c3-c10d0cac0987"
        }
      }
    },
    {
      "fullUrl": "urn:uuid:44c8c9c9-5d83-4b47-95de-483618c319c5",
      "resource": {
        "resourceType": "Observation",
        "id": "44c8c9c9-5d83-4b47-95de-483618c319c5",
        "meta": {
          "profile": [
            "http://hl7.eu/fhir/laboratory/StructureDefinition/Observation-resultslab-eu-lab"
          ]
        },
        "performer": [
          {
            "display": "The Central European Lab"
          }
        ],
        "category": [
          {
            "coding": [
              {
                "system": "http://terminology.hl7.org/CodeSystem/observation-category",
                "code": "laboratory"
              }
            ]
          }
        ],
        "code": {
          "coding": [
            {
              "code": "5797-6",
              "system": "http://loinc.org",
              "display": "Ketones [Mass/volume] in Urine by Test strip"
            }
          ],
          "text": "Ketones [Mass/volume] in Urine by Test strip"
        },
        "valueQuantity": {
          "system": "http://unitsofmeasure.org",
          "value": 14.5,
          "unit": "mg/dL",
          "code": "mg/dL"
        },
        "referenceRange": [
          {
            "low": {
              "value": 0,
              "code": "mg/dL",
              "system": "http://unitsofmeasure.org"
            }
          },
          {
            "high": {
              "value": 4,
              "code": "mg/dL",
              "system": "http://unitsofmeasure.org"
            }
          }
        ],
        "interpretation": [
          {
            "coding": [
              {
                "code": "H",
                "system": "http://terminology.hl7.org/CodeSystem/v3-ObservationInterpretation",
                "display": "High"
              }
            ]
          }
        ],
        "text": {
          "status": "generated",
          "div": "<div xmlns=\"http://www.w3.org/1999/xhtml\"><table class=\"hl7__eu__lab__report\"><tr><th>Test</th><th>13-May-2021</th><th>Reference&#xA0;Range</th><th>Unit</th></tr><tr><td>Ketones [Mass/volume] in Urine by Test strip</td><td>14.5</td><td>0 - 4</td><td>H</td><td>mg/dL</td></tr></table></div>"
        },
        "status": "final",
        "subject": {
          "reference": "urn:uuid:1da7604b-469d-4695-838b-200002d7d7da",
          "display": "Pelayo Casal"
        },
        "effectiveDateTime": "2021-05-13T05:38:59Z",
        "specimen": {
          "reference": "urn:uuid:5b1b81df-599e-4eb9-91c3-c10d0cac0987"
        }
      }
    },
    {
      "fullUrl": "urn:uuid:5c659a6d-d4eb-4ce2-9aa8-64fb3ada52f9",
      "resource": {
        "resourceType": "Observation",
        "id": "5c659a6d-d4eb-4ce2-9aa8-64fb3ada52f9",
        "meta": {
          "profile": [
            "http://hl7.eu/fhir/laboratory/StructureDefinition/Observation-resultslab-eu-lab"
          ]
        },
        "performer": [
          {
            "display": "The Central European Lab"
          }
        ],
        "category": [
          {
            "coding": [
              {
                "system": "http://terminology.hl7.org/CodeSystem/observation-category",
                "code": "laboratory"
              }
            ]
          }
        ],
        "code": {
          "coding": [
            {
              "code": "2514-8",
              "system": "http://loinc.org",
              "display": "Ketones [Presence] in Urine by Test strip"
            }
          ],
          "text": "Ketones [Presence] in Urine by Test strip"
        },
        "text": {
          "status": "generated",
          "div": "<div xmlns=\"http://www.w3.org/1999/xhtml\"><table class=\"hl7__eu__lab__report\"><tr><th>Test</th><th>13-May-2021</th><th>Reference&#xA0;Range</th><th>Unit</th></tr><tr><td>Ketones [Presence] in Urine by Test strip</td></tr></table></div>"
        },
        "status": "final",
        "subject": {
          "reference": "urn:uuid:1da7604b-469d-4695-838b-200002d7d7da",
          "display": "Pelayo Casal"
        },
        "effectiveDateTime": "2021-05-13T05:38:59Z",
        "specimen": {
          "reference": "urn:uuid:5b1b81df-599e-4eb9-91c3-c10d0cac0987"
        }
      }
    },
    {
      "fullUrl": "urn:uuid:4d05d201-ffe3-44f8-b0b5-a1e5eec97953",
      "resource": {
        "resourceType": "Observation",
        "id": "4d05d201-ffe3-44f8-b0b5-a1e5eec97953",
        "meta": {
          "profile": [
            "http://hl7.eu/fhir/laboratory/StructureDefinition/Observation-resultslab-eu-lab"
          ]
        },
        "performer": [
          {
            "display": "The Central European Lab"
          }
        ],
        "category": [
          {
            "coding": [
              {
                "system": "http://terminology.hl7.org/CodeSystem/observation-category",
                "code": "laboratory"
              }
            ]
          }
        ],
        "code": {
          "coding": [
            {
              "code": "5811-5",
              "system": "http://loinc.org",
              "display": "Specific gravity of Urine by Test strip"
            }
          ],
          "text": "Specific gravity of Urine by Test strip"
        },
        "valueQuantity": {
          "system": "http://unitsofmeasure.org",
          "value": 1,
          "unit": "{nominal}",
          "code": "{nominal}"
        },
        "referenceRange": [
          {
            "low": {
              "value": 1.01,
              "code": "g/mL",
              "system": "http://unitsofmeasure.org"
            }
          },
          {
            "high": {
              "value": 1.03,
              "code": "g/mL",
              "system": "http://unitsofmeasure.org"
            }
          }
        ],
        "interpretation": [
          {
            "coding": [
              {
                "code": "L",
                "system": "http://terminology.hl7.org/CodeSystem/v3-ObservationInterpretation",
                "display": "Low"
              }
            ]
          }
        ],
        "text": {
          "status": "generated",
          "div": "<div xmlns=\"http://www.w3.org/1999/xhtml\"><table class=\"hl7__eu__lab__report\"><tr><th>Test</th><th>13-May-2021</th><th>Reference&#xA0;Range</th><th>Unit</th></tr><tr><td>Specific gravity of Urine by Test strip</td><td>1.0</td><td>1.01 - 1.03</td><td>L</td><td>{nominal}</td></tr></table></div>"
        },
        "status": "final",
        "subject": {
          "reference": "urn:uuid:1da7604b-469d-4695-838b-200002d7d7da",
          "display": "Pelayo Casal"
        },
        "effectiveDateTime": "2021-05-13T05:38:59Z",
        "specimen": {
          "reference": "urn:uuid:5b1b81df-599e-4eb9-91c3-c10d0cac0987"
        }
      }
    },
    {
      "fullUrl": "urn:uuid:d3e74deb-9c96-44f9-834e-d3dfd9ea9844",
      "resource": {
        "resourceType": "Observation",
        "id": "d3e74deb-9c96-44f9-834e-d3dfd9ea9844",
        "meta": {
          "profile": [
            "http://hl7.eu/fhir/laboratory/StructureDefinition/Observation-resultslab-eu-lab"
          ]
        },
        "performer": [
          {
            "display": "The Central European Lab"
          }
        ],
        "category": [
          {
            "coding": [
              {
                "system": "http://terminology.hl7.org/CodeSystem/observation-category",
                "code": "laboratory"
              }
            ]
          }
        ],
        "code": {
          "coding": [
            {
              "code": "5803-2",
              "system": "http://loinc.org",
              "display": "pH of Urine by Test strip"
            }
          ],
          "text": "pH of Urine by Test strip"
        },
        "valueQuantity": {
          "system": "http://unitsofmeasure.org",
          "value": 6.3,
          "unit": "pH",
          "code": "pH"
        },
        "referenceRange": [
          {
            "low": {
              "value": 4.5,
              "code": "pH",
              "system": "http://unitsofmeasure.org"
            }
          },
          {
            "high": {
              "value": 7.5,
              "code": "pH",
              "system": "http://unitsofmeasure.org"
            }
          }
        ],
        "text": {
          "status": "generated",
          "div": "<div xmlns=\"http://www.w3.org/1999/xhtml\"><table class=\"hl7__eu__lab__report\"><tr><th>Test</th><th>13-May-2021</th><th>Reference&#xA0;Range</th><th>Unit</th></tr><tr><td>pH of Urine by Test strip</td><td>6.3</td><td>4.5 - 7.5</td><td></td><td>pH</td></tr></table></div>"
        },
        "status": "final",
        "subject": {
          "reference": "urn:uuid:1da7604b-469d-4695-838b-200002d7d7da",
          "display": "Pelayo Casal"
        },
        "effectiveDateTime": "2021-05-13T05:38:59Z",
        "specimen": {
          "reference": "urn:uuid:5b1b81df-599e-4eb9-91c3-c10d0cac0987"
        }
      }
    },
    {
      "fullUrl": "urn:uuid:e04da61a-f571-4c8d-ba69-a2a284d40d10",
      "resource": {
        "resourceType": "Observation",
        "id": "e04da61a-f571-4c8d-ba69-a2a284d40d10",
        "meta": {
          "profile": [
            "http://hl7.eu/fhir/laboratory/StructureDefinition/Observation-resultslab-eu-lab"
          ]
        },
        "performer": [
          {
            "display": "The Central European Lab"
          }
        ],
        "category": [
          {
            "coding": [
              {
                "system": "http://terminology.hl7.org/CodeSystem/observation-category",
                "code": "laboratory"
              }
            ]
          }
        ],
        "code": {
          "coding": [
            {
              "code": "5804-0",
              "system": "http://loinc.org",
              "display": "Protein [Mass/volume] in Urine by Test strip"
            }
          ],
          "text": "Protein [Mass/volume] in Urine by Test strip"
        },
        "valueQuantity": {
          "system": "http://unitsofmeasure.org",
          "value": 206.4,
          "unit": "mg/dL",
          "code": "mg/dL"
        },
        "referenceRange": [
          {
            "low": {
              "value": 0,
              "code": "mg/dL",
              "system": "http://unitsofmeasure.org"
            }
          },
          {
            "high": {
              "value": 150,
              "code": "mg/dL",
              "system": "http://unitsofmeasure.org"
            }
          }
        ],
        "interpretation": [
          {
            "coding": [
              {
                "code": "H",
                "system": "http://terminology.hl7.org/CodeSystem/v3-ObservationInterpretation",
                "display": "High"
              }
            ]
          }
        ],
        "text": {
          "status": "generated",
          "div": "<div xmlns=\"http://www.w3.org/1999/xhtml\"><table class=\"hl7__eu__lab__report\"><tr><th>Test</th><th>13-May-2021</th><th>Reference&#xA0;Range</th><th>Unit</th></tr><tr><td>Protein [Mass/volume] in Urine by Test strip</td><td>206.4</td><td>0 - 150</td><td>H</td><td>mg/dL</td></tr></table></div>"
        },
        "status": "final",
        "subject": {
          "reference": "urn:uuid:1da7604b-469d-4695-838b-200002d7d7da",
          "display": "Pelayo Casal"
        },
        "effectiveDateTime": "2021-05-13T05:38:59Z",
        "specimen": {
          "reference": "urn:uuid:5b1b81df-599e-4eb9-91c3-c10d0cac0987"
        }
      }
    },
    {
      "fullUrl": "urn:uuid:049c3758-542d-4be2-85c1-a9daae709b73",
      "resource": {
        "resourceType": "Observation",
        "id": "049c3758-542d-4be2-85c1-a9daae709b73",
        "meta": {
          "profile": [
            "http://hl7.eu/fhir/laboratory/StructureDefinition/Observation-resultslab-eu-lab"
          ]
        },
        "performer": [
          {
            "display": "The Central European Lab"
          }
        ],
        "category": [
          {
            "coding": [
              {
                "system": "http://terminology.hl7.org/CodeSystem/observation-category",
                "code": "laboratory"
              }
            ]
          }
        ],
        "code": {
          "coding": [
            {
              "code": "20454-5",
              "system": "http://loinc.org",
              "display": "Protein [Presence] in Urine by Test strip"
            }
          ],
          "text": "Protein [Presence] in Urine by Test strip"
        },
        "text": {
          "status": "generated",
          "div": "<div xmlns=\"http://www.w3.org/1999/xhtml\"><table class=\"hl7__eu__lab__report\"><tr><th>Test</th><th>13-May-2021</th><th>Reference&#xA0;Range</th><th>Unit</th></tr><tr><td>Protein [Presence] in Urine by Test strip</td></tr></table></div>"
        },
        "status": "final",
        "subject": {
          "reference": "urn:uuid:1da7604b-469d-4695-838b-200002d7d7da",
          "display": "Pelayo Casal"
        },
        "effectiveDateTime": "2021-05-13T05:38:59Z",
        "specimen": {
          "reference": "urn:uuid:5b1b81df-599e-4eb9-91c3-c10d0cac0987"
        }
      }
    },
    {
      "fullUrl": "urn:uuid:b96216fd-710a-4e60-898e-66b2ed50a2d4",
      "resource": {
        "resourceType": "Observation",
        "id": "b96216fd-710a-4e60-898e-66b2ed50a2d4",
        "meta": {
          "profile": [
            "http://hl7.eu/fhir/laboratory/StructureDefinition/Observation-resultslab-eu-lab"
          ]
        },
        "performer": [
          {
            "display": "The Central European Lab"
          }
        ],
        "category": [
          {
            "coding": [
              {
                "system": "http://terminology.hl7.org/CodeSystem/observation-category",
                "code": "laboratory"
              }
            ]
          }
        ],
        "code": {
          "coding": [
            {
              "code": "5802-4",
              "system": "http://loinc.org",
              "display": "Nitrite [Presence] in Urine by Test strip"
            }
          ],
          "text": "Nitrite [Presence] in Urine by Test strip"
        },
        "text": {
          "status": "generated",
          "div": "<div xmlns=\"http://www.w3.org/1999/xhtml\"><table class=\"hl7__eu__lab__report\"><tr><th>Test</th><th>13-May-2021</th><th>Reference&#xA0;Range</th><th>Unit</th></tr><tr><td>Nitrite [Presence] in Urine by Test strip</td></tr></table></div>"
        },
        "status": "final",
        "subject": {
          "reference": "urn:uuid:1da7604b-469d-4695-838b-200002d7d7da",
          "display": "Pelayo Casal"
        },
        "effectiveDateTime": "2021-05-13T05:38:59Z",
        "specimen": {
          "reference": "urn:uuid:5b1b81df-599e-4eb9-91c3-c10d0cac0987"
        }
      }
    },
    {
      "fullUrl": "urn:uuid:e20d4235-d921-42f7-96c9-3e338406513c",
      "resource": {
        "resourceType": "Observation",
        "id": "e20d4235-d921-42f7-96c9-3e338406513c",
        "meta": {
          "profile": [
            "http://hl7.eu/fhir/laboratory/StructureDefinition/Observation-resultslab-eu-lab"
          ]
        },
        "performer": [
          {
            "display": "The Central European Lab"
          }
        ],
        "category": [
          {
            "coding": [
              {
                "system": "http://terminology.hl7.org/CodeSystem/observation-category",
                "code": "laboratory"
              }
            ]
          }
        ],
        "code": {
          "coding": [
            {
              "code": "5794-3",
              "system": "http://loinc.org",
              "display": "Hemoglobin [Presence] in Urine by Test strip"
            }
          ],
          "text": "Hemoglobin [Presence] in Urine by Test strip"
        },
        "text": {
          "status": "generated",
          "div": "<div xmlns=\"http://www.w3.org/1999/xhtml\"><table class=\"hl7__eu__lab__report\"><tr><th>Test</th><th>13-May-2021</th><th>Reference&#xA0;Range</th><th>Unit</th></tr><tr><td>Hemoglobin [Presence] in Urine by Test strip</td></tr></table></div>"
        },
        "status": "final",
        "subject": {
          "reference": "urn:uuid:1da7604b-469d-4695-838b-200002d7d7da",
          "display": "Pelayo Casal"
        },
        "effectiveDateTime": "2021-05-13T05:38:59Z",
        "specimen": {
          "reference": "urn:uuid:5b1b81df-599e-4eb9-91c3-c10d0cac0987"
        }
      }
    },
    {
      "fullUrl": "urn:uuid:36aa8e4c-df6b-4d41-9804-e5faa613bbce",
      "resource": {
        "resourceType": "Observation",
        "id": "36aa8e4c-df6b-4d41-9804-e5faa613bbce",
        "meta": {
          "profile": [
            "http://hl7.eu/fhir/laboratory/StructureDefinition/Observation-resultslab-eu-lab"
          ]
        },
        "performer": [
          {
            "display": "The Central European Lab"
          }
        ],
        "category": [
          {
            "coding": [
              {
                "system": "http://terminology.hl7.org/CodeSystem/observation-category",
                "code": "laboratory"
              }
            ]
          }
        ],
        "code": {
          "coding": [
            {
              "code": "5799-2",
              "system": "http://loinc.org",
              "display": "Leukocyte esterase [Presence] in Urine by Test strip"
            }
          ],
          "text": "Leukocyte esterase [Presence] in Urine by Test strip"
        },
        "text": {
          "status": "generated",
          "div": "<div xmlns=\"http://www.w3.org/1999/xhtml\"><table class=\"hl7__eu__lab__report\"><tr><th>Test</th><th>13-May-2021</th><th>Reference&#xA0;Range</th><th>Unit</th></tr><tr><td>Leukocyte esterase [Presence] in Urine by Test strip</td></tr></table></div>"
        },
        "status": "final",
        "subject": {
          "reference": "urn:uuid:1da7604b-469d-4695-838b-200002d7d7da",
          "display": "Pelayo Casal"
        },
        "effectiveDateTime": "2021-05-13T05:38:59Z",
        "specimen": {
          "reference": "urn:uuid:5b1b81df-599e-4eb9-91c3-c10d0cac0987"
        }
      }
    },
    {
      "fullUrl": "urn:uuid:83a94975-5c62-4bd8-8f75-a61c041f0346",
      "resource": {
        "resourceType": "Observation",
        "id": "83a94975-5c62-4bd8-8f75-a61c041f0346",
        "meta": {
          "profile": [
            "http://hl7.eu/fhir/laboratory/StructureDefinition/Observation-resultslab-eu-lab"
          ]
        },
        "performer": [
          {
            "display": "The Central European Lab"
          }
        ],
        "category": [
          {
            "coding": [
              {
                "system": "http://terminology.hl7.org/CodeSystem/observation-category",
                "code": "laboratory"
              }
            ]
          }
        ],
        "code": {
          "coding": [
            {
              "code": "4548-4",
              "system": "http://loinc.org",
              "display": "Hemoglobin A1c/Hemoglobin.total in Blood"
            }
          ],
          "text": "Hemoglobin A1c/Hemoglobin.total in Blood"
        },
        "valueQuantity": {
          "system": "http://unitsofmeasure.org",
          "value": 3.4,
          "unit": "%",
          "code": "%"
        },
        "referenceRange": [
          {
            "low": {
              "value": 4.5,
              "code": "%",
              "system": "http://unitsofmeasure.org"
            }
          },
          {
            "high": {
              "value": 6.4,
              "code": "%",
              "system": "http://unitsofmeasure.org"
            }
          }
        ],
        "interpretation": [
          {
            "coding": [
              {
                "code": "L",
                "system": "http://terminology.hl7.org/CodeSystem/v3-ObservationInterpretation",
                "display": "Low"
              }
            ]
          }
        ],
        "text": {
          "status": "generated",
          "div": "<div xmlns=\"http://www.w3.org/1999/xhtml\"><table class=\"hl7__eu__lab__report\"><tr><th>Test</th><th>13-May-2021</th><th>Reference&#xA0;Range</th><th>Unit</th></tr><tr><td>Hemoglobin A1c/Hemoglobin.total in Blood</td><td>3.4</td><td>4.5 - 6.4</td><td>L</td><td>%</td></tr></table></div>"
        },
        "status": "final",
        "subject": {
          "reference": "urn:uuid:1da7604b-469d-4695-838b-200002d7d7da",
          "display": "Pelayo Casal"
        },
        "effectiveDateTime": "2021-05-13T05:38:59Z",
        "specimen": {
          "reference": "urn:uuid:4f209e59-94a6-4294-a6ec-6fea927ff7ed"
        }
      }
    },
    {
      "fullUrl": "urn:uuid:c9776da9-3a8a-4920-847b-8a227f91bf38",
      "resource": {
        "resourceType": "Observation",
        "id": "c9776da9-3a8a-4920-847b-8a227f91bf38",
        "meta": {
          "profile": [
            "http://hl7.eu/fhir/laboratory/StructureDefinition/Observation-resultslab-eu-lab"
          ]
        },
        "performer": [
          {
            "display": "The Central European Lab"
          }
        ],
        "category": [
          {
            "coding": [
              {
                "system": "http://terminology.hl7.org/CodeSystem/observation-category",
                "code": "laboratory"
              }
            ]
          }
        ],
        "code": {
          "coding": [
            {
              "code": "2339-0",
              "system": "http://loinc.org",
              "display": "Glucose [Mass/volume] in Blood"
            }
          ],
          "text": "Glucose [Mass/volume] in Blood"
        },
        "valueQuantity": {
          "system": "http://unitsofmeasure.org",
          "value": 84.4,
          "unit": "mg/dL",
          "code": "mg/dL"
        },
        "referenceRange": [
          {
            "low": {
              "value": 70,
              "code": "mg/dL",
              "system": "http://unitsofmeasure.org"
            }
          },
          {
            "high": {
              "value": 140,
              "code": "mg/dL",
              "system": "http://unitsofmeasure.org"
            }
          }
        ],
        "text": {
          "status": "generated",
          "div": "<div xmlns=\"http://www.w3.org/1999/xhtml\"><table class=\"hl7__eu__lab__report\"><tr><th>Test</th><th>13-May-2021</th><th>Reference&#xA0;Range</th><th>Unit</th></tr><tr><td>Glucose [Mass/volume] in Blood</td><td>84.4</td><td>70 - 140</td><td></td><td>mg/dL</td></tr></table></div>"
        },
        "status": "final",
        "subject": {
          "reference": "urn:uuid:1da7604b-469d-4695-838b-200002d7d7da",
          "display": "Pelayo Casal"
        },
        "effectiveDateTime": "2021-05-13T05:38:59Z",
        "specimen": {
          "reference": "urn:uuid:4f209e59-94a6-4294-a6ec-6fea927ff7ed"
        }
      }
    },
    {
      "fullUrl": "urn:uuid:1bc2a5d7-8f23-404d-892c-f34f8228a46f",
      "resource": {
        "resourceType": "Observation",
        "id": "1bc2a5d7-8f23-404d-892c-f34f8228a46f",
        "meta": {
          "profile": [
            "http://hl7.eu/fhir/laboratory/StructureDefinition/Observation-resultslab-eu-lab"
          ]
        },
        "performer": [
          {
            "display": "The Central European Lab"
          }
        ],
        "category": [
          {
            "coding": [
              {
                "system": "http://terminology.hl7.org/CodeSystem/observation-category",
                "code": "laboratory"
              }
            ]
          }
        ],
        "code": {
          "coding": [
            {
              "code": "6299-2",
              "system": "http://loinc.org",
              "display": "Urea nitrogen [Mass/volume] in Blood"
            }
          ],
          "text": "Urea nitrogen [Mass/volume] in Blood"
        },
        "valueQuantity": {
          "system": "http://unitsofmeasure.org",
          "value": 17.3,
          "unit": "mg/dL",
          "code": "mg/dL"
        },
        "referenceRange": [
          {
            "low": {
              "value": 7,
              "code": "mg/dL",
              "system": "http://unitsofmeasure.org"
            }
          },
          {
            "high": {
              "value": 25,
              "code": "mg/dL",
              "system": "http://unitsofmeasure.org"
            }
          }
        ],
        "text": {
          "status": "generated",
          "div": "<div xmlns=\"http://www.w3.org/1999/xhtml\"><table class=\"hl7__eu__lab__report\"><tr><th>Test</th><th>13-May-2021</th><th>Reference&#xA0;Range</th><th>Unit</th></tr><tr><td>Urea nitrogen [Mass/volume] in Blood</td><td>17.3</td><td>7 - 25</td><td></td><td>mg/dL</td></tr></table></div>"
        },
        "status": "final",
        "subject": {
          "reference": "urn:uuid:1da7604b-469d-4695-838b-200002d7d7da",
          "display": "Pelayo Casal"
        },
        "effectiveDateTime": "2021-05-13T05:38:59Z",
        "specimen": {
          "reference": "urn:uuid:4f209e59-94a6-4294-a6ec-6fea927ff7ed"
        }
      }
    },
    {
      "fullUrl": "urn:uuid:04b57f48-cd61-44ca-91a0-67420926d111",
      "resource": {
        "resourceType": "Observation",
        "id": "04b57f48-cd61-44ca-91a0-67420926d111",
        "meta": {
          "profile": [
            "http://hl7.eu/fhir/laboratory/StructureDefinition/Observation-resultslab-eu-lab"
          ]
        },
        "performer": [
          {
            "display": "The Central European Lab"
          }
        ],
        "category": [
          {
            "coding": [
              {
                "system": "http://terminology.hl7.org/CodeSystem/observation-category",
                "code": "laboratory"
              }
            ]
          }
        ],
        "code": {
          "coding": [
            {
              "code": "38483-4",
              "system": "http://loinc.org",
              "display": "Creatinine [Mass/volume] in Blood"
            }
          ],
          "text": "Creatinine [Mass/volume] in Blood"
        },
        "valueQuantity": {
          "system": "http://unitsofmeasure.org",
          "value": 1.5,
          "unit": "mg/dL",
          "code": "mg/dL"
        },
        "referenceRange": [
          {
            "low": {
              "value": 0.9,
              "code": "mg/dL",
              "system": "http://unitsofmeasure.org"
            }
          },
          {
            "high": {
              "value": 1.3,
              "code": "mg/dL",
              "system": "http://unitsofmeasure.org"
            }
          }
        ],
        "interpretation": [
          {
            "coding": [
              {
                "code": "H",
                "system": "http://terminology.hl7.org/CodeSystem/v3-ObservationInterpretation",
                "display": "High"
              }
            ]
          }
        ],
        "text": {
          "status": "generated",
          "div": "<div xmlns=\"http://www.w3.org/1999/xhtml\"><table class=\"hl7__eu__lab__report\"><tr><th>Test</th><th>13-May-2021</th><th>Reference&#xA0;Range</th><th>Unit</th></tr><tr><td>Creatinine [Mass/volume] in Blood</td><td>1.5</td><td>0.9 - 1.3</td><td>H</td><td>mg/dL</td></tr></table></div>"
        },
        "status": "final",
        "subject": {
          "reference": "urn:uuid:1da7604b-469d-4695-838b-200002d7d7da",
          "display": "Pelayo Casal"
        },
        "effectiveDateTime": "2021-05-13T05:38:59Z",
        "specimen": {
          "reference": "urn:uuid:4f209e59-94a6-4294-a6ec-6fea927ff7ed"
        }
      }
    },
    {
      "fullUrl": "urn:uuid:1c5c30a1-ab5f-415d-a131-576e8b0dc015",
      "resource": {
        "resourceType": "Observation",
        "id": "1c5c30a1-ab5f-415d-a131-576e8b0dc015",
        "meta": {
          "profile": [
            "http://hl7.eu/fhir/laboratory/StructureDefinition/Observation-resultslab-eu-lab"
          ]
        },
        "performer": [
          {
            "display": "The Central European Lab"
          }
        ],
        "category": [
          {
            "coding": [
              {
                "system": "http://terminology.hl7.org/CodeSystem/observation-category",
                "code": "laboratory"
              }
            ]
          }
        ],
        "code": {
          "coding": [
            {
              "code": "49765-1",
              "system": "http://loinc.org",
              "display": "Calcium [Mass/volume] in Blood"
            }
          ],
          "text": "Calcium [Mass/volume] in Blood"
        },
        "valueQuantity": {
          "system": "http://unitsofmeasure.org",
          "value": 8.6,
          "unit": "mg/dL",
          "code": "mg/dL"
        },
        "referenceRange": [
          {
            "low": {
              "value": 8.6,
              "code": "mg/dL",
              "system": "http://unitsofmeasure.org"
            }
          },
          {
            "high": {
              "value": 10.2,
              "code": "mg/dL",
              "system": "http://unitsofmeasure.org"
            }
          }
        ],
        "text": {
          "status": "generated",
          "div": "<div xmlns=\"http://www.w3.org/1999/xhtml\"><table class=\"hl7__eu__lab__report\"><tr><th>Test</th><th>13-May-2021</th><th>Reference&#xA0;Range</th><th>Unit</th></tr><tr><td>Calcium [Mass/volume] in Blood</td><td>8.6</td><td>8.6 - 10.2</td><td></td><td>mg/dL</td></tr></table></div>"
        },
        "status": "final",
        "subject": {
          "reference": "urn:uuid:1da7604b-469d-4695-838b-200002d7d7da",
          "display": "Pelayo Casal"
        },
        "effectiveDateTime": "2021-05-13T05:38:59Z",
        "specimen": {
          "reference": "urn:uuid:4f209e59-94a6-4294-a6ec-6fea927ff7ed"
        }
      }
    },
    {
      "fullUrl": "urn:uuid:a4632231-9b1a-4ea3-80e0-cf2cc743023b",
      "resource": {
        "resourceType": "Observation",
        "id": "a4632231-9b1a-4ea3-80e0-cf2cc743023b",
        "meta": {
          "profile": [
            "http://hl7.eu/fhir/laboratory/StructureDefinition/Observation-resultslab-eu-lab"
          ]
        },
        "performer": [
          {
            "display": "The Central European Lab"
          }
        ],
        "category": [
          {
            "coding": [
              {
                "system": "http://terminology.hl7.org/CodeSystem/observation-category",
                "code": "laboratory"
              }
            ]
          }
        ],
        "code": {
          "coding": [
            {
              "code": "2947-0",
              "system": "http://loinc.org",
              "display": "Sodium [Moles/volume] in Blood"
            }
          ],
          "text": "Sodium [Moles/volume] in Blood"
        },
        "valueQuantity": {
          "system": "http://unitsofmeasure.org",
          "value": 143.5,
          "unit": "mmol/L",
          "code": "mmol/L"
        },
        "referenceRange": [
          {
            "low": {
              "value": 135,
              "code": "mmol/L",
              "system": "http://unitsofmeasure.org"
            }
          },
          {
            "high": {
              "value": 145,
              "code": "mmol/L",
              "system": "http://unitsofmeasure.org"
            }
          }
        ],
        "text": {
          "status": "generated",
          "div": "<div xmlns=\"http://www.w3.org/1999/xhtml\"><table class=\"hl7__eu__lab__report\"><tr><th>Test</th><th>13-May-2021</th><th>Reference&#xA0;Range</th><th>Unit</th></tr><tr><td>Sodium [Moles/volume] in Blood</td><td>143.5</td><td>135 - 145</td><td></td><td>mmol/L</td></tr></table></div>"
        },
        "status": "final",
        "subject": {
          "reference": "urn:uuid:1da7604b-469d-4695-838b-200002d7d7da",
          "display": "Pelayo Casal"
        },
        "effectiveDateTime": "2021-05-13T05:38:59Z",
        "specimen": {
          "reference": "urn:uuid:4f209e59-94a6-4294-a6ec-6fea927ff7ed"
        }
      }
    },
    {
      "fullUrl": "urn:uuid:f2c42c71-588f-421d-adc1-9cfe03deebcc",
      "resource": {
        "resourceType": "Observation",
        "id": "f2c42c71-588f-421d-adc1-9cfe03deebcc",
        "meta": {
          "profile": [
            "http://hl7.eu/fhir/laboratory/StructureDefinition/Observation-resultslab-eu-lab"
          ]
        },
        "performer": [
          {
            "display": "The Central European Lab"
          }
        ],
        "category": [
          {
            "coding": [
              {
                "system": "http://terminology.hl7.org/CodeSystem/observation-category",
                "code": "laboratory"
              }
            ]
          }
        ],
        "code": {
          "coding": [
            {
              "code": "6298-4",
              "system": "http://loinc.org",
              "display": "Potassium [Moles/volume] in Blood"
            }
          ],
          "text": "Potassium [Moles/volume] in Blood"
        },
        "valueQuantity": {
          "system": "http://unitsofmeasure.org",
          "value": 3.9,
          "unit": "mmol/L",
          "code": "mmol/L"
        },
        "referenceRange": [
          {
            "low": {
              "value": 3.5,
              "code": "mmol/L",
              "system": "http://unitsofmeasure.org"
            }
          },
          {
            "high": {
              "value": 5.1,
              "code": "mmol/L",
              "system": "http://unitsofmeasure.org"
            }
          }
        ],
        "text": {
          "status": "generated",
          "div": "<div xmlns=\"http://www.w3.org/1999/xhtml\"><table class=\"hl7__eu__lab__report\"><tr><th>Test</th><th>13-May-2021</th><th>Reference&#xA0;Range</th><th>Unit</th></tr><tr><td>Potassium [Moles/volume] in Blood</td><td>3.9</td><td>3.5 - 5.1</td><td></td><td>mmol/L</td></tr></table></div>"
        },
        "status": "final",
        "subject": {
          "reference": "urn:uuid:1da7604b-469d-4695-838b-200002d7d7da",
          "display": "Pelayo Casal"
        },
        "effectiveDateTime": "2021-05-13T05:38:59Z",
        "specimen": {
          "reference": "urn:uuid:4f209e59-94a6-4294-a6ec-6fea927ff7ed"
        }
      }
    },
    {
      "fullUrl": "urn:uuid:9805a89c-5dc4-4cd8-93ca-303c2f7c8f17",
      "resource": {
        "resourceType": "Observation",
        "id": "9805a89c-5dc4-4cd8-93ca-303c2f7c8f17",
        "meta": {
          "profile": [
            "http://hl7.eu/fhir/laboratory/StructureDefinition/Observation-resultslab-eu-lab"
          ]
        },
        "performer": [
          {
            "display": "The Central European Lab"
          }
        ],
        "category": [
          {
            "coding": [
              {
                "system": "http://terminology.hl7.org/CodeSystem/observation-category",
                "code": "laboratory"
              }
            ]
          }
        ],
        "code": {
          "coding": [
            {
              "code": "2069-3",
              "system": "http://loinc.org",
              "display": "Chloride [Moles/volume] in Blood"
            }
          ],
          "text": "Chloride [Moles/volume] in Blood"
        },
        "valueQuantity": {
          "system": "http://unitsofmeasure.org",
          "value": 102.1,
          "unit": "mmol/L",
          "code": "mmol/L"
        },
        "referenceRange": [
          {
            "low": {
              "value": 98,
              "code": "mmol/L",
              "system": "http://unitsofmeasure.org"
            }
          },
          {
            "high": {
              "value": 108,
              "code": "mmol/L",
              "system": "http://unitsofmeasure.org"
            }
          }
        ],
        "text": {
          "status": "generated",
          "div": "<div xmlns=\"http://www.w3.org/1999/xhtml\"><table class=\"hl7__eu__lab__report\"><tr><th>Test</th><th>13-May-2021</th><th>Reference&#xA0;Range</th><th>Unit</th></tr><tr><td>Chloride [Moles/volume] in Blood</td><td>102.1</td><td>98 - 108</td><td></td><td>mmol/L</td></tr></table></div>"
        },
        "status": "final",
        "subject": {
          "reference": "urn:uuid:1da7604b-469d-4695-838b-200002d7d7da",
          "display": "Pelayo Casal"
        },
        "effectiveDateTime": "2021-05-13T05:38:59Z",
        "specimen": {
          "reference": "urn:uuid:4f209e59-94a6-4294-a6ec-6fea927ff7ed"
        }
      }
    },
    {
      "fullUrl": "urn:uuid:53d09191-77cb-4a1c-87c3-7e26db0197bb",
      "resource": {
        "resourceType": "Observation",
        "id": "53d09191-77cb-4a1c-87c3-7e26db0197bb",
        "meta": {
          "profile": [
            "http://hl7.eu/fhir/laboratory/StructureDefinition/Observation-resultslab-eu-lab"
          ]
        },
        "performer": [
          {
            "display": "The Central European Lab"
          }
        ],
        "category": [
          {
            "coding": [
              {
                "system": "http://terminology.hl7.org/CodeSystem/observation-category",
                "code": "laboratory"
              }
            ]
          }
        ],
        "code": {
          "coding": [
            {
              "code": "20565-8",
              "system": "http://loinc.org",
              "display": "Carbon dioxide, total [Moles/volume] in Blood"
            }
          ],
          "text": "Carbon dioxide, total [Moles/volume] in Blood"
        },
        "valueQuantity": {
          "system": "http://unitsofmeasure.org",
          "value": 26.6,
          "unit": "mmol/L",
          "code": "mmol/L"
        },
        "referenceRange": [
          {
            "low": {
              "value": 22,
              "code": "mmol/L",
              "system": "http://unitsofmeasure.org"
            }
          },
          {
            "high": {
              "value": 32,
              "code": "mmol/L",
              "system": "http://unitsofmeasure.org"
            }
          }
        ],
        "text": {
          "status": "generated",
          "div": "<div xmlns=\"http://www.w3.org/1999/xhtml\"><table class=\"hl7__eu__lab__report\"><tr><th>Test</th><th>13-May-2021</th><th>Reference&#xA0;Range</th><th>Unit</th></tr><tr><td>Carbon dioxide, total [Moles/volume] in Blood</td><td>26.6</td><td>22 - 32</td><td></td><td>mmol/L</td></tr></table></div>"
        },
        "status": "final",
        "subject": {
          "reference": "urn:uuid:1da7604b-469d-4695-838b-200002d7d7da",
          "display": "Pelayo Casal"
        },
        "effectiveDateTime": "2021-05-13T05:38:59Z",
        "specimen": {
          "reference": "urn:uuid:4f209e59-94a6-4294-a6ec-6fea927ff7ed"
        }
      }
    },
    {
      "fullUrl": "urn:uuid:99e5da3b-cde0-4fb3-8d71-21db4208b8b5",
      "resource": {
        "resourceType": "Device",
        "id": "99e5da3b-cde0-4fb3-8d71-21db4208b8b5",
        "deviceName": [
          {
            "name": "SYNDERAI Synthetic Generator",
            "type": "manufacturer-name"
          }
        ],
        "version": [
          {
            "value": "5.0"
          }
        ],
        "text": {
          "status": "generated",
          "div": "<div xmlns=\"http://www.w3.org/1999/xhtml\">SYNDERAI Synthetic Generator v5.0</div>"
        },
        "status": "active\"",
        "distinctIdentifier": "synderai-generator-50",
        "manufacturer": "SYNDERAI Project"
      }
    },
    {
      "fullUrl": "urn:uuid:cbb9619a-7d54-487d-99ea-37253d63c781",
      "resource": {
        "resourceType": "Provenance",
        "id": "cbb9619a-7d54-487d-99ea-37253d63c781",
        "target": [
          {
            "reference": "Patient/1da7604b-469d-4695-838b-200002d7d7da"
          },
          {
            "reference": "Bundle/d7661fd6-8a39-4256-b031-2989ace3f0f2"
          },
          {
            "reference": "Composition/22cf7500-04e2-411e-8ec7-deca658cad28"
          },
          {
            "reference": "PractitionerRole/b45e15cc-84c7-45de-ad79-869fa833260c"
          },
          {
            "reference": "Practitioner/aa5c4612-aace-4965-8269-006434514d15"
          },
          {
            "reference": "PractitionerRole/65ff43a1-2096-49b3-b36d-3398525d57f1"
          },
          {
            "reference": "Organization/299c6fc7-c386-4648-b8ca-cfc62b8a4dbd"
          }
        ],
        "activity": {
          "text": "Synthetic Example Data Generation"
        },
        "policy": [
          "https://synderai.net/synderai-synthetic-data-policy"
        ],
        "agent": [
          {
            "type": {
              "text": "author"
            },
            "who": {
              "reference": "Device/99e5da3b-cde0-4fb3-8d71-21db4208b8b5"
            }
          }
        ],
        "reason": [
          {
            "text": "Interoperability Testing and Training (non-clinical use)"
          }
        ],
        "text": {
          "status": "generated",
          "div": "<div xmlns=\"http://www.w3.org/1999/xhtml\">Provenance for SYNDERAI Synthetic Example Data Resource</div>"
        },
        "recorded": "2021-05-13T07:38:59Z"
      }
    },
    {
      "fullUrl": "urn:uuid:b45e15cc-84c7-45de-ad79-869fa833260c",
      "resource": {
        "resourceType": "PractitionerRole",
        "id": "b45e15cc-84c7-45de-ad79-869fa833260c",
        "meta": {
          "profile": [
            "http://hl7.eu/fhir/base/StructureDefinition/practitionerRole-eu"
          ]
        },
        "text": {
          "status": "generated",
          "div": "<div xmlns=\"http://www.w3.org/1999/xhtml\">Laboratory Role Id: b45e15cc-84c7-45de-ad79-869fa833260c</div>"
        },
        "practitioner": {
          "reference": "urn:uuid:aa5c4612-aace-4965-8269-006434514d15"
        }
      }
    },
    {
      "fullUrl": "urn:uuid:aa5c4612-aace-4965-8269-006434514d15",
      "resource": {
        "resourceType": "Practitioner",
        "id": "aa5c4612-aace-4965-8269-006434514d15",
        "meta": {
          "profile": [
            "http://hl7.eu/fhir/base/StructureDefinition/practitioner-eu"
          ]
        },
        "identifier": [
          {
            "assigner": {
              "display": "HL7 Europe"
            },
            "system": "urn:oid:2.16.840.1.113883.2.51.999",
            "value": "5f0a1cee-0fd7-48f7-9eac-ef5b2eb1a903"
          }
        ],
        "name": [
          {
            "prefix": [
              "dr"
            ],
            "given": [
              "Ex"
            ],
            "family": "Ample"
          }
        ],
        "address": [
          {
            "line": [
              "Laboratoire Central Européenne",
              "Boulevard du Jardin Botanique 32"
            ],
            "postalCode": "1000",
            "city": "Brussels",
            "country": "Belgium"
          }
        ],
        "text": {
          "status": "generated",
          "div": "<div xmlns=\"http://www.w3.org/1999/xhtml\">Laboratory: Laboratoire Central Européenne, 1000 Brussels, Belgium</div>"
        }
      }
    }
  ],
  "type": "document",
  "timestamp": "2021-05-13T07:38:59Z"
}
