{
  "resourceType": "Bundle",
  "id": "617395e2-6d2a-4feb-8353-0c6dfd3b8fb0",
  "meta": {
    "profile": [
      "http://hl7.eu/fhir/laboratory/StructureDefinition/Bundle-eu-lab"
    ]
  },
  "identifier": {
    "assigner": {
      "display": "HL7 Europe"
    },
    "system": "urn:oid:2.16.840.1.113883.2.51.999",
    "value": "4b5ddf14-85b2-4447-9ad3-4acb1813fc31"
  },
  "entry": [
    {
      "fullUrl": "urn:uuid:083d7f90-1be0-4669-9f0c-b1cfabdd57d7",
      "resource": {
        "resourceType": "Composition",
        "id": "083d7f90-1be0-4669-9f0c-b1cfabdd57d7",
        "meta": {
          "profile": [
            "http://hl7.eu/fhir/laboratory/StructureDefinition/Composition-eu-lab"
          ]
        },
        "identifier": {
          "assigner": {
            "display": "HL7 Europe"
          },
          "system": "urn:oid:2.16.840.1.113883.2.51.999",
          "value": "233a9b81-5219-49e4-b480-0141fef83fa3"
        },
        "author": [
          {
            "reference": "urn:uuid:370391d2-0204-4432-ae6d-36a7c79670e4"
          }
        ],
        "category": [
          {
            "coding": [
              {
                "code": "26436-6",
                "system": "http://loinc.org",
                "display": "Laboratory studies (set)"
              }
            ]
          }
        ],
        "type": {
          "coding": [
            {
              "code": "11502-2",
              "system": "http://loinc.org",
              "display": "Laboratory report"
            }
          ],
          "text": "Laboratory Report"
        },
        "section": [
          {
            "code": {
              "coding": [
                {
                  "code": "26436-6",
                  "system": "http://loinc.org",
                  "display": "Laboratory studies (set)"
                }
              ],
              "text": "Laboratory studies"
            },
            "section": [
              {
                "code": {
                  "coding": [
                    {
                      "code": "$18723-7",
                      "system": "http://loinc.org",
                      "display": "Hematology studies (set)"
                    }
                  ],
                  "text": "Hematology"
                },
                "entry": [
                  {
                    "reference": "urn:uuid:08d3fd56-8906-49fd-9b85-5afd74b9894d"
                  },
                  {
                    "reference": "urn:uuid:3f9a0237-971b-4f0a-8aef-b90eb84870f0"
                  },
                  {
                    "reference": "urn:uuid:a7849184-034d-4258-9a88-b5cb2c7cd091"
                  },
                  {
                    "reference": "urn:uuid:a073f526-a06c-4a7b-aa8f-36964ad7619b"
                  },
                  {
                    "reference": "urn:uuid:3b615d72-47d1-496a-b5b9-fc85b445b623"
                  },
                  {
                    "reference": "urn:uuid:7cf7adc5-30f6-4701-98ec-5eeaef09a3e1"
                  },
                  {
                    "reference": "urn:uuid:bcafb281-3b7c-4eff-a29c-47bbb86b541f"
                  },
                  {
                    "reference": "urn:uuid:b69c0c73-0d17-44fe-9cfa-7208853574ec"
                  },
                  {
                    "reference": "urn:uuid:7f283b6a-8525-4155-8e4c-1ae68e8ba802"
                  },
                  {
                    "reference": "urn:uuid:249d1fc2-8b5e-4092-91d7-e27accc5f2ac"
                  },
                  {
                    "reference": "urn:uuid:2c54dc0f-ecb2-498e-ae55-e3623a5d4549"
                  }
                ],
                "text": {
                  "status": "generated",
                  "div": "<div xmlns=\"http://www.w3.org/1999/xhtml\"><h3>Hematology</h3><table class=\"hl7__eu__lab__report\"><thead><tr><th>Test</th><th>12-MAR-2019</th><th>Reference&#xA0;Range</th><th>Unit</th></tr></thead><tbody><tr><td>Leukocytes [#/volume] in Blood by Automated count</td><td>4.3</td><td>3.5 - 10.5</td><td>10*3/uL</td></tr><tr><td>Erythrocytes [#/volume] in Blood by Automated count</td><td>4.0</td><td>4 - 5</td><td>10*6/uL</td></tr><tr><td>Hemoglobin [Mass/volume] in Blood</td><td><strong>15.6 H</strong></td><td>12.1 - 15.5</td><td>g/dL</td></tr><tr><td>Hematocrit [Volume Fraction] of Blood by Automated count</td><td><strong>35.2 L</strong></td><td>36.1 - 44.3</td><td>%</td></tr><tr><td>MCV [Entitic volume] by Automated count</td><td>82.9</td><td>82 - 98</td><td>fL</td></tr><tr><td>MCH [Entitic mass] by Automated count</td><td>32.5</td><td>27 - 33</td><td>pg</td></tr><tr><td>MCHC [Mass/volume] by Automated count</td><td>34.0</td><td>32 - 37</td><td>g/dL</td></tr><tr><td>Erythrocyte distribution width [Entitic volume] by Automated count</td><td>41.2</td><td>36 - 55</td><td>fL</td></tr><tr><td>Platelets [#/volume] in Blood by Automated count</td><td>201.5</td><td>150 - 400</td><td>10*3/uL</td></tr><tr><td>Platelet distribution width [Entitic volume] in Blood by Automated count</td><td><strong>157.0 H</strong></td><td>11.6 - 17.4</td><td>fL</td></tr><tr><td>Platelet mean volume [Entitic volume] in Blood by Automated count</td><td>11.4</td><td>7.2 - 13.5</td><td>fL</td></tr></tbody></table></div>"
                },
                "title": "Hematology"
              },
              {
                "code": {
                  "coding": [
                    {
                      "code": "$18719-5",
                      "system": "http://loinc.org",
                      "display": "Chemistry studies (set)"
                    }
                  ],
                  "text": "Chemistry"
                },
                "entry": [
                  {
                    "reference": "urn:uuid:2c112995-097f-4a1c-a971-35cc64f9eff6"
                  },
                  {
                    "reference": "urn:uuid:d742e34e-8860-4bf2-81ee-1cee2ad9eeb0"
                  },
                  {
                    "reference": "urn:uuid:dc4fd1eb-8be6-4195-8ee1-bf5e55437adf"
                  },
                  {
                    "reference": "urn:uuid:7e41a863-0b83-41b0-a1c1-e9e74b53db83"
                  },
                  {
                    "reference": "urn:uuid:eab017dd-b37e-4b75-8f83-469574d0b65a"
                  },
                  {
                    "reference": "urn:uuid:102fe602-5396-4130-951c-eeeda1860b9e"
                  },
                  {
                    "reference": "urn:uuid:9bd16384-3978-46d3-ad44-6db629466297"
                  },
                  {
                    "reference": "urn:uuid:e1738459-08dd-4cdf-9a0f-8422ec433095"
                  },
                  {
                    "reference": "urn:uuid:ef52acf1-3810-48a8-8db1-76476816c55a"
                  }
                ],
                "text": {
                  "status": "generated",
                  "div": "<div xmlns=\"http://www.w3.org/1999/xhtml\"><h3>Chemistry</h3><table class=\"hl7__eu__lab__report\"><thead><tr><th>Test</th><th>12-MAR-2019</th><th>Reference&#xA0;Range</th><th>Unit</th></tr></thead><tbody><tr><td>Hemoglobin A1c/Hemoglobin.total in Blood</td><td><strong>6.4 H</strong></td><td>4.8 - 5.7</td><td>%</td></tr><tr><td>Glucose [Mass/volume] in Blood</td><td>82.6</td><td>70 - 100</td><td>mg/dL</td></tr><tr><td>Urea nitrogen [Mass/volume] in Blood</td><td>15.0</td><td>7 - 20</td><td>mg/dL</td></tr><tr><td>Creatinine [Mass/volume] in Blood</td><td>0.7</td><td>0.6 - 1.1</td><td>mg/dL</td></tr><tr><td>Calcium [Mass/volume] in Blood</td><td>8.6</td><td>8.5 - 10.5</td><td>mg/dL</td></tr><tr><td>Sodium [Moles/volume] in Blood</td><td>142.5</td><td>135 - 145</td><td>mmol/L</td></tr><tr><td>Potassium [Moles/volume] in Blood</td><td>4.0</td><td>3.5 - 5.1</td><td>mmol/L</td></tr><tr><td>Chloride [Moles/volume] in Blood</td><td>107.4</td><td>98 - 110</td><td>mmol/L</td></tr><tr><td>Carbon dioxide, total [Moles/volume] in Blood</td><td>25.8</td><td>22 - 29</td><td>mmol/L</td></tr></tbody></table></div>"
                },
                "title": "Chemistry"
              }
            ],
            "title": "Laboratory Report"
          },
          {
            "text": {
              "status": "generated",
              "div": "<div xmlns=\"http://www.w3.org/1999/xhtml\"><h3>Annotation</h3><table class=\"hl7__eu__lab__report\"><tr><th>Conclusion and Recommendations based on this report and previous findings known to us</th></tr><tr><td>The patient shows an elevated HbA1c (6.4%), indicating impaired glucose metabolism or possible prediabetes, despite normal fasting glucose. Hemoglobin is slightly above normal, while hematocrit is mildly decreased, which may suggest mild hemoconcentration or lab variation. All other parameters, including renal function, electrolytes, and blood counts, are within normal limits. Recommend clinical correlation for glycemic status and possible follow-up for HbA1c.</td></tr></table></div>"
            },
            "code": {
              "coding": [
                {
                  "system": "http://loinc.org",
                  "code": "48767-8",
                  "display": "Annotation comment"
                }
              ]
            },
            "title": "Annotation comment"
          }
        ],
        "status": "final",
        "subject": {
          "reference": "urn:uuid:88ad68c4-b0ad-4d58-8e3d-653fc1f52372",
          "display": "Marina Norbiato"
        },
        "date": "2019-03-12T06:31:43Z",
        "title": "Laboratory Report",
        "confidentiality": "N"
      }
    },
    {
      "fullUrl": "urn:uuid:a85709b4-869a-4e4e-93ac-bc4c4b1ee126",
      "resource": {
        "resourceType": "DiagnosticReport",
        "id": "a85709b4-869a-4e4e-93ac-bc4c4b1ee126",
        "meta": {
          "profile": [
            "http://hl7.eu/fhir/laboratory/StructureDefinition/DiagnosticReport-eu-lab"
          ]
        },
        "identifier": [
          {
            "assigner": {
              "display": "HL7 Europe"
            },
            "system": "urn:oid:2.16.840.1.113883.2.51.999",
            "value": "e4324603-9c1d-4150-becc-e088f92a1890"
          }
        ],
        "extension": [
          {
            "url": "http://hl7.org/fhir/5.0/StructureDefinition/extension-DiagnosticReport.composition",
            "valueReference": {
              "reference": "urn:uuid:233a9b81-5219-49e4-b480-0141fef83fa3"
            }
          }
        ],
        "category": [
          {
            "coding": [
              {
                "code": "26436-6",
                "system": "http://loinc.org",
                "display": "Laboratory studies (set)"
              }
            ]
          }
        ],
        "specimen": [
          {
            "reference": "urn:uuid:d3146379-29e9-4639-92b8-d2bd8dbf2938"
          },
          {
            "reference": "urn:uuid:d3146379-29e9-4639-92b8-d2bd8dbf2938"
          }
        ],
        "result": [
          {
            "reference": "urn:uuid:2c112995-097f-4a1c-a971-35cc64f9eff6"
          },
          {
            "reference": "urn:uuid:d742e34e-8860-4bf2-81ee-1cee2ad9eeb0"
          },
          {
            "reference": "urn:uuid:dc4fd1eb-8be6-4195-8ee1-bf5e55437adf"
          },
          {
            "reference": "urn:uuid:7e41a863-0b83-41b0-a1c1-e9e74b53db83"
          },
          {
            "reference": "urn:uuid:eab017dd-b37e-4b75-8f83-469574d0b65a"
          },
          {
            "reference": "urn:uuid:102fe602-5396-4130-951c-eeeda1860b9e"
          },
          {
            "reference": "urn:uuid:9bd16384-3978-46d3-ad44-6db629466297"
          },
          {
            "reference": "urn:uuid:e1738459-08dd-4cdf-9a0f-8422ec433095"
          },
          {
            "reference": "urn:uuid:ef52acf1-3810-48a8-8db1-76476816c55a"
          },
          {
            "reference": "urn:uuid:08d3fd56-8906-49fd-9b85-5afd74b9894d"
          },
          {
            "reference": "urn:uuid:3f9a0237-971b-4f0a-8aef-b90eb84870f0"
          },
          {
            "reference": "urn:uuid:a7849184-034d-4258-9a88-b5cb2c7cd091"
          },
          {
            "reference": "urn:uuid:a073f526-a06c-4a7b-aa8f-36964ad7619b"
          },
          {
            "reference": "urn:uuid:3b615d72-47d1-496a-b5b9-fc85b445b623"
          },
          {
            "reference": "urn:uuid:7cf7adc5-30f6-4701-98ec-5eeaef09a3e1"
          },
          {
            "reference": "urn:uuid:bcafb281-3b7c-4eff-a29c-47bbb86b541f"
          },
          {
            "reference": "urn:uuid:b69c0c73-0d17-44fe-9cfa-7208853574ec"
          },
          {
            "reference": "urn:uuid:7f283b6a-8525-4155-8e4c-1ae68e8ba802"
          },
          {
            "reference": "urn:uuid:249d1fc2-8b5e-4092-91d7-e27accc5f2ac"
          },
          {
            "reference": "urn:uuid:2c54dc0f-ecb2-498e-ae55-e3623a5d4549"
          }
        ],
        "status": "registered",
        "code": {
          "coding": [
            {
              "code": "11502-2",
              "system": "http://loinc.org",
              "display": "Laboratory report"
            }
          ]
        },
        "subject": {
          "reference": "urn:uuid:88ad68c4-b0ad-4d58-8e3d-653fc1f52372",
          "display": "Marina Norbiato"
        }
      }
    },
    {
      "fullUrl": "urn:uuid:88ad68c4-b0ad-4d58-8e3d-653fc1f52372",
      "resource": {
        "resourceType": "Patient",
        "id": "88ad68c4-b0ad-4d58-8e3d-653fc1f52372",
        "meta": {
          "security": [
            {
              "system": "http://terminology.hl7.org/CodeSystem/v3-ActReason",
              "code": "HTEST"
            },
            {
              "system": "http://terminology.hl7.org/CodeSystem/v3-ActReason",
              "code": "TRAIN"
            }
          ],
          "tag": [
            {
              "system": "https://synderai.net/fhir/CodeSystem/tags",
              "code": "synthetic",
              "display": "SYNDERAI Synthetic data"
            }
          ],
          "profile": [
            "http://hl7.eu/fhir/base/StructureDefinition/patient-eu-core"
          ]
        },
        "identifier": [
          {
            "type": {
              "coding": [
                {
                  "code": "PT",
                  "system": "http://terminology.hl7.org/CodeSystem/v2-0203"
                }
              ]
            },
            "system": "http://ec.europa.eu/identifier/eci",
            "value": "5004-598122-7"
          },
          {
            "type": {
              "coding": [
                {
                  "code": "MR",
                  "system": "http://terminology.hl7.org/CodeSystem/v2-0203"
                }
              ]
            },
            "system": "http://local.setting.eu/identifier",
            "value": "35cd3e66-58a0-050b-9928-8805facaac98"
          }
        ],
        "name": [
          {
            "family": "Norbiato"
          },
          {
            "given": [
              "Marina"
            ]
          },
          {
            "text": "Marina Norbiato"
          }
        ],
        "address": [
          {
            "line": [
              "Via Squarcione, 2 Piano 6"
            ],
            "use": "home",
            "type": "physical",
            "postalCode": "25080",
            "city": "Remedello Di Sotto",
            "country": "Italy"
          }
        ],
        "telecom": [
          {
            "system": "phone",
            "value": "016359725"
          }
        ],
        "extension": [
          {
            "url": "http://hl7.org/fhir/StructureDefinition/patient-nationality",
            "valueCodeableConcept": {
              "coding": [
                {
                  "code": "IT",
                  "system": "http://hl7.org/fhir/ValueSet/country"
                }
              ]
            }
          }
        ],
        "text": {
          "status": "generated",
          "div": "<div xmlns=\"http://www.w3.org/1999/xhtml\"><table class=\"hl7__ips\"><tr><td>Marina Norbiato</td><td>female</td><td>30-Aug-1999</td></tr></table></div>"
        },
        "gender": "female",
        "birthDate": "1999-08-30"
      }
    },
    {
      "fullUrl": "urn:uuid:f87f6b93-e2a7-461e-b778-552732f83899",
      "resource": {
        "resourceType": "ServiceRequest",
        "id": "f87f6b93-e2a7-461e-b778-552732f83899",
        "meta": {
          "profile": [
            "http://hl7.eu/fhir/laboratory/StructureDefinition/ServiceRequest-eu-lab"
          ]
        },
        "identifier": [
          {
            "system": "http://example.org",
            "value": "d601a16c-e21a-478d-a90a-f75b3b264135"
          }
        ],
        "specimen": [
          {
            "reference": "urn:uuid:d3146379-29e9-4639-92b8-d2bd8dbf2938"
          }
        ],
        "reasonCode": [
          {
            "coding": [
              {
                "code": "15777000",
                "system": "http://snomed.info/sct",
                "display": "Prediabetes"
              }
            ]
          }
        ],
        "status": "active",
        "intent": "order",
        "code": {
          "coding": [
            {
              "code": "108252007",
              "system": "http://snomed.info/sct",
              "display": "Laboratory procedure"
            }
          ]
        },
        "subject": {
          "reference": "urn:uuid:88ad68c4-b0ad-4d58-8e3d-653fc1f52372",
          "display": "Marina Norbiato"
        },
        "requester": {
          "reference": "urn:uuid:74d9455a-a757-45f7-81d7-ef11b71dafa0"
        }
      }
    },
    {
      "fullUrl": "urn:uuid:74d9455a-a757-45f7-81d7-ef11b71dafa0",
      "resource": {
        "resourceType": "PractitionerRole",
        "id": "74d9455a-a757-45f7-81d7-ef11b71dafa0",
        "meta": {
          "profile": [
            "http://hl7.eu/fhir/base/StructureDefinition/practitionerRole-eu"
          ]
        },
        "text": {
          "status": "generated",
          "div": "<div xmlns=\"http://www.w3.org/1999/xhtml\">Provider Role Id: 74d9455a-a757-45f7-81d7-ef11b71dafa0</div>"
        },
        "organization": {
          "reference": "urn:uuid:18f3349a-13f2-4598-8820-44c48ecc3050"
        }
      }
    },
    {
      "fullUrl": "urn:uuid:18f3349a-13f2-4598-8820-44c48ecc3050",
      "resource": {
        "resourceType": "Organization",
        "id": "18f3349a-13f2-4598-8820-44c48ecc3050",
        "meta": {
          "profile": [
            "http://hl7.eu/fhir/base/StructureDefinition/organization-eu"
          ]
        },
        "identifier": [
          {
            "assigner": {
              "display": "HL7 Europe"
            },
            "system": "urn:oid:2.16.840.1.113883.2.51.999",
            "value": "0cfd34e4-0b8d-461d-972b-5415acbb119c"
          }
        ],
        "address": [
          {
            "line": [
              "Piazzetta Donatori di sangue 1"
            ],
            "city": "Leno",
            "postalCode": "25024",
            "country": "Italy"
          }
        ],
        "text": {
          "status": "generated",
          "div": "<div xmlns=\"http://www.w3.org/1999/xhtml\">Provider Organization: Ospedale di Leno</div>"
        },
        "name": "Ospedale di Leno"
      }
    },
    {
      "fullUrl": "urn:uuid:d3146379-29e9-4639-92b8-d2bd8dbf2938",
      "resource": {
        "resourceType": "Specimen",
        "id": "d3146379-29e9-4639-92b8-d2bd8dbf2938",
        "meta": {
          "profile": [
            "http://hl7.eu/fhir/laboratory/StructureDefinition/Specimen-eu-lab"
          ]
        },
        "collection": {
          "collectedDateTime": "2019-03-12"
        },
        "text": {
          "status": "generated",
          "div": "<div xmlns=\"http://www.w3.org/1999/xhtml\"><table class=\"hl7__eu__lab__report\"><tr><th>Specimen</th><th>Collection Date</th></tr><tr><td>Whole blood specimen (specimen)</td><td><span class=\"nb\">12-Mar-2019</span></td></tr></table></div>"
        },
        "type": {
          "coding": [
            {
              "code": "258580003",
              "system": "http://snomed.info/sct",
              "display": "Whole blood specimen (specimen)"
            }
          ]
        }
      }
    },
    {
      "fullUrl": "urn:uuid:d3146379-29e9-4639-92b8-d2bd8dbf2938",
      "resource": {
        "resourceType": "Specimen",
        "id": "d3146379-29e9-4639-92b8-d2bd8dbf2938",
        "meta": {
          "profile": [
            "http://hl7.eu/fhir/laboratory/StructureDefinition/Specimen-eu-lab"
          ]
        },
        "collection": {
          "collectedDateTime": "2019-03-12"
        },
        "text": {
          "status": "generated",
          "div": "<div xmlns=\"http://www.w3.org/1999/xhtml\"><table class=\"hl7__eu__lab__report\"><tr><th>Specimen</th><th>Collection Date</th></tr><tr><td>Whole blood specimen (specimen)</td><td><span class=\"nb\">12-Mar-2019</span></td></tr></table></div>"
        },
        "type": {
          "coding": [
            {
              "code": "258580003",
              "system": "http://snomed.info/sct",
              "display": "Whole blood specimen (specimen)"
            }
          ]
        }
      }
    },
    {
      "fullUrl": "urn:uuid:2c112995-097f-4a1c-a971-35cc64f9eff6",
      "resource": {
        "resourceType": "Observation",
        "id": "2c112995-097f-4a1c-a971-35cc64f9eff6",
        "meta": {
          "profile": [
            "http://hl7.eu/fhir/laboratory/StructureDefinition/Observation-resultslab-eu-lab"
          ]
        },
        "performer": [
          {
            "display": "The Central European Lab"
          }
        ],
        "category": [
          {
            "coding": [
              {
                "system": "http://terminology.hl7.org/CodeSystem/observation-category",
                "code": "laboratory"
              }
            ]
          }
        ],
        "code": {
          "coding": [
            {
              "code": "4548-4",
              "system": "http://loinc.org",
              "display": "Hemoglobin A1c/Hemoglobin.total in Blood"
            }
          ],
          "text": "Hemoglobin A1c/Hemoglobin.total in Blood"
        },
        "valueQuantity": {
          "system": "http://unitsofmeasure.org",
          "value": 6.4,
          "unit": "%",
          "code": "%"
        },
        "referenceRange": [
          {
            "low": {
              "value": 4.8,
              "code": "%",
              "system": "http://unitsofmeasure.org"
            }
          },
          {
            "high": {
              "value": 5.7,
              "code": "%",
              "system": "http://unitsofmeasure.org"
            }
          }
        ],
        "interpretation": [
          {
            "coding": [
              {
                "code": "H",
                "system": "http://terminology.hl7.org/CodeSystem/v3-ObservationInterpretation",
                "display": "High"
              }
            ]
          }
        ],
        "text": {
          "status": "generated",
          "div": "<div xmlns=\"http://www.w3.org/1999/xhtml\"><table class=\"hl7__eu__lab__report\"><tr><th>Test</th><th>12-Mar-2019</th><th>Reference&#xA0;Range</th><th>Unit</th></tr><tr><td>Hemoglobin A1c/Hemoglobin.total in Blood</td><td>6.4</td><td>4.8 - 5.7</td><td>H</td><td>%</td></tr></table></div>"
        },
        "status": "final",
        "subject": {
          "reference": "urn:uuid:88ad68c4-b0ad-4d58-8e3d-653fc1f52372",
          "display": "Marina Norbiato"
        },
        "effectiveDateTime": "2019-03-12T05:31:43Z",
        "specimen": {
          "reference": "urn:uuid:d3146379-29e9-4639-92b8-d2bd8dbf2938"
        }
      }
    },
    {
      "fullUrl": "urn:uuid:d742e34e-8860-4bf2-81ee-1cee2ad9eeb0",
      "resource": {
        "resourceType": "Observation",
        "id": "d742e34e-8860-4bf2-81ee-1cee2ad9eeb0",
        "meta": {
          "profile": [
            "http://hl7.eu/fhir/laboratory/StructureDefinition/Observation-resultslab-eu-lab"
          ]
        },
        "performer": [
          {
            "display": "The Central European Lab"
          }
        ],
        "category": [
          {
            "coding": [
              {
                "system": "http://terminology.hl7.org/CodeSystem/observation-category",
                "code": "laboratory"
              }
            ]
          }
        ],
        "code": {
          "coding": [
            {
              "code": "2339-0",
              "system": "http://loinc.org",
              "display": "Glucose [Mass/volume] in Blood"
            }
          ],
          "text": "Glucose [Mass/volume] in Blood"
        },
        "valueQuantity": {
          "system": "http://unitsofmeasure.org",
          "value": 82.6,
          "unit": "mg/dL",
          "code": "mg/dL"
        },
        "referenceRange": [
          {
            "low": {
              "value": 70,
              "code": "mg/dL",
              "system": "http://unitsofmeasure.org"
            }
          },
          {
            "high": {
              "value": 100,
              "code": "mg/dL",
              "system": "http://unitsofmeasure.org"
            }
          }
        ],
        "text": {
          "status": "generated",
          "div": "<div xmlns=\"http://www.w3.org/1999/xhtml\"><table class=\"hl7__eu__lab__report\"><tr><th>Test</th><th>12-Mar-2019</th><th>Reference&#xA0;Range</th><th>Unit</th></tr><tr><td>Glucose [Mass/volume] in Blood</td><td>82.6</td><td>70 - 100</td><td></td><td>mg/dL</td></tr></table></div>"
        },
        "status": "final",
        "subject": {
          "reference": "urn:uuid:88ad68c4-b0ad-4d58-8e3d-653fc1f52372",
          "display": "Marina Norbiato"
        },
        "effectiveDateTime": "2019-03-12T05:31:43Z",
        "specimen": {
          "reference": "urn:uuid:d3146379-29e9-4639-92b8-d2bd8dbf2938"
        }
      }
    },
    {
      "fullUrl": "urn:uuid:dc4fd1eb-8be6-4195-8ee1-bf5e55437adf",
      "resource": {
        "resourceType": "Observation",
        "id": "dc4fd1eb-8be6-4195-8ee1-bf5e55437adf",
        "meta": {
          "profile": [
            "http://hl7.eu/fhir/laboratory/StructureDefinition/Observation-resultslab-eu-lab"
          ]
        },
        "performer": [
          {
            "display": "The Central European Lab"
          }
        ],
        "category": [
          {
            "coding": [
              {
                "system": "http://terminology.hl7.org/CodeSystem/observation-category",
                "code": "laboratory"
              }
            ]
          }
        ],
        "code": {
          "coding": [
            {
              "code": "6299-2",
              "system": "http://loinc.org",
              "display": "Urea nitrogen [Mass/volume] in Blood"
            }
          ],
          "text": "Urea nitrogen [Mass/volume] in Blood"
        },
        "valueQuantity": {
          "system": "http://unitsofmeasure.org",
          "value": 15,
          "unit": "mg/dL",
          "code": "mg/dL"
        },
        "referenceRange": [
          {
            "low": {
              "value": 7,
              "code": "mg/dL",
              "system": "http://unitsofmeasure.org"
            }
          },
          {
            "high": {
              "value": 20,
              "code": "mg/dL",
              "system": "http://unitsofmeasure.org"
            }
          }
        ],
        "text": {
          "status": "generated",
          "div": "<div xmlns=\"http://www.w3.org/1999/xhtml\"><table class=\"hl7__eu__lab__report\"><tr><th>Test</th><th>12-Mar-2019</th><th>Reference&#xA0;Range</th><th>Unit</th></tr><tr><td>Urea nitrogen [Mass/volume] in Blood</td><td>15.0</td><td>7 - 20</td><td></td><td>mg/dL</td></tr></table></div>"
        },
        "status": "final",
        "subject": {
          "reference": "urn:uuid:88ad68c4-b0ad-4d58-8e3d-653fc1f52372",
          "display": "Marina Norbiato"
        },
        "effectiveDateTime": "2019-03-12T05:31:43Z",
        "specimen": {
          "reference": "urn:uuid:d3146379-29e9-4639-92b8-d2bd8dbf2938"
        }
      }
    },
    {
      "fullUrl": "urn:uuid:7e41a863-0b83-41b0-a1c1-e9e74b53db83",
      "resource": {
        "resourceType": "Observation",
        "id": "7e41a863-0b83-41b0-a1c1-e9e74b53db83",
        "meta": {
          "profile": [
            "http://hl7.eu/fhir/laboratory/StructureDefinition/Observation-resultslab-eu-lab"
          ]
        },
        "performer": [
          {
            "display": "The Central European Lab"
          }
        ],
        "category": [
          {
            "coding": [
              {
                "system": "http://terminology.hl7.org/CodeSystem/observation-category",
                "code": "laboratory"
              }
            ]
          }
        ],
        "code": {
          "coding": [
            {
              "code": "38483-4",
              "system": "http://loinc.org",
              "display": "Creatinine [Mass/volume] in Blood"
            }
          ],
          "text": "Creatinine [Mass/volume] in Blood"
        },
        "valueQuantity": {
          "system": "http://unitsofmeasure.org",
          "value": 0.7,
          "unit": "mg/dL",
          "code": "mg/dL"
        },
        "referenceRange": [
          {
            "low": {
              "value": 0.6,
              "code": "mg/dL",
              "system": "http://unitsofmeasure.org"
            }
          },
          {
            "high": {
              "value": 1.1,
              "code": "mg/dL",
              "system": "http://unitsofmeasure.org"
            }
          }
        ],
        "text": {
          "status": "generated",
          "div": "<div xmlns=\"http://www.w3.org/1999/xhtml\"><table class=\"hl7__eu__lab__report\"><tr><th>Test</th><th>12-Mar-2019</th><th>Reference&#xA0;Range</th><th>Unit</th></tr><tr><td>Creatinine [Mass/volume] in Blood</td><td>0.7</td><td>0.6 - 1.1</td><td></td><td>mg/dL</td></tr></table></div>"
        },
        "status": "final",
        "subject": {
          "reference": "urn:uuid:88ad68c4-b0ad-4d58-8e3d-653fc1f52372",
          "display": "Marina Norbiato"
        },
        "effectiveDateTime": "2019-03-12T05:31:43Z",
        "specimen": {
          "reference": "urn:uuid:d3146379-29e9-4639-92b8-d2bd8dbf2938"
        }
      }
    },
    {
      "fullUrl": "urn:uuid:eab017dd-b37e-4b75-8f83-469574d0b65a",
      "resource": {
        "resourceType": "Observation",
        "id": "eab017dd-b37e-4b75-8f83-469574d0b65a",
        "meta": {
          "profile": [
            "http://hl7.eu/fhir/laboratory/StructureDefinition/Observation-resultslab-eu-lab"
          ]
        },
        "performer": [
          {
            "display": "The Central European Lab"
          }
        ],
        "category": [
          {
            "coding": [
              {
                "system": "http://terminology.hl7.org/CodeSystem/observation-category",
                "code": "laboratory"
              }
            ]
          }
        ],
        "code": {
          "coding": [
            {
              "code": "49765-1",
              "system": "http://loinc.org",
              "display": "Calcium [Mass/volume] in Blood"
            }
          ],
          "text": "Calcium [Mass/volume] in Blood"
        },
        "valueQuantity": {
          "system": "http://unitsofmeasure.org",
          "value": 8.6,
          "unit": "mg/dL",
          "code": "mg/dL"
        },
        "referenceRange": [
          {
            "low": {
              "value": 8.5,
              "code": "mg/dL",
              "system": "http://unitsofmeasure.org"
            }
          },
          {
            "high": {
              "value": 10.5,
              "code": "mg/dL",
              "system": "http://unitsofmeasure.org"
            }
          }
        ],
        "text": {
          "status": "generated",
          "div": "<div xmlns=\"http://www.w3.org/1999/xhtml\"><table class=\"hl7__eu__lab__report\"><tr><th>Test</th><th>12-Mar-2019</th><th>Reference&#xA0;Range</th><th>Unit</th></tr><tr><td>Calcium [Mass/volume] in Blood</td><td>8.6</td><td>8.5 - 10.5</td><td></td><td>mg/dL</td></tr></table></div>"
        },
        "status": "final",
        "subject": {
          "reference": "urn:uuid:88ad68c4-b0ad-4d58-8e3d-653fc1f52372",
          "display": "Marina Norbiato"
        },
        "effectiveDateTime": "2019-03-12T05:31:43Z",
        "specimen": {
          "reference": "urn:uuid:d3146379-29e9-4639-92b8-d2bd8dbf2938"
        }
      }
    },
    {
      "fullUrl": "urn:uuid:102fe602-5396-4130-951c-eeeda1860b9e",
      "resource": {
        "resourceType": "Observation",
        "id": "102fe602-5396-4130-951c-eeeda1860b9e",
        "meta": {
          "profile": [
            "http://hl7.eu/fhir/laboratory/StructureDefinition/Observation-resultslab-eu-lab"
          ]
        },
        "performer": [
          {
            "display": "The Central European Lab"
          }
        ],
        "category": [
          {
            "coding": [
              {
                "system": "http://terminology.hl7.org/CodeSystem/observation-category",
                "code": "laboratory"
              }
            ]
          }
        ],
        "code": {
          "coding": [
            {
              "code": "2947-0",
              "system": "http://loinc.org",
              "display": "Sodium [Moles/volume] in Blood"
            }
          ],
          "text": "Sodium [Moles/volume] in Blood"
        },
        "valueQuantity": {
          "system": "http://unitsofmeasure.org",
          "value": 142.5,
          "unit": "mmol/L",
          "code": "mmol/L"
        },
        "referenceRange": [
          {
            "low": {
              "value": 135,
              "code": "mmol/L",
              "system": "http://unitsofmeasure.org"
            }
          },
          {
            "high": {
              "value": 145,
              "code": "mmol/L",
              "system": "http://unitsofmeasure.org"
            }
          }
        ],
        "text": {
          "status": "generated",
          "div": "<div xmlns=\"http://www.w3.org/1999/xhtml\"><table class=\"hl7__eu__lab__report\"><tr><th>Test</th><th>12-Mar-2019</th><th>Reference&#xA0;Range</th><th>Unit</th></tr><tr><td>Sodium [Moles/volume] in Blood</td><td>142.5</td><td>135 - 145</td><td></td><td>mmol/L</td></tr></table></div>"
        },
        "status": "final",
        "subject": {
          "reference": "urn:uuid:88ad68c4-b0ad-4d58-8e3d-653fc1f52372",
          "display": "Marina Norbiato"
        },
        "effectiveDateTime": "2019-03-12T05:31:43Z",
        "specimen": {
          "reference": "urn:uuid:d3146379-29e9-4639-92b8-d2bd8dbf2938"
        }
      }
    },
    {
      "fullUrl": "urn:uuid:9bd16384-3978-46d3-ad44-6db629466297",
      "resource": {
        "resourceType": "Observation",
        "id": "9bd16384-3978-46d3-ad44-6db629466297",
        "meta": {
          "profile": [
            "http://hl7.eu/fhir/laboratory/StructureDefinition/Observation-resultslab-eu-lab"
          ]
        },
        "performer": [
          {
            "display": "The Central European Lab"
          }
        ],
        "category": [
          {
            "coding": [
              {
                "system": "http://terminology.hl7.org/CodeSystem/observation-category",
                "code": "laboratory"
              }
            ]
          }
        ],
        "code": {
          "coding": [
            {
              "code": "6298-4",
              "system": "http://loinc.org",
              "display": "Potassium [Moles/volume] in Blood"
            }
          ],
          "text": "Potassium [Moles/volume] in Blood"
        },
        "valueQuantity": {
          "system": "http://unitsofmeasure.org",
          "value": 4,
          "unit": "mmol/L",
          "code": "mmol/L"
        },
        "referenceRange": [
          {
            "low": {
              "value": 3.5,
              "code": "mmol/L",
              "system": "http://unitsofmeasure.org"
            }
          },
          {
            "high": {
              "value": 5.1,
              "code": "mmol/L",
              "system": "http://unitsofmeasure.org"
            }
          }
        ],
        "text": {
          "status": "generated",
          "div": "<div xmlns=\"http://www.w3.org/1999/xhtml\"><table class=\"hl7__eu__lab__report\"><tr><th>Test</th><th>12-Mar-2019</th><th>Reference&#xA0;Range</th><th>Unit</th></tr><tr><td>Potassium [Moles/volume] in Blood</td><td>4.0</td><td>3.5 - 5.1</td><td></td><td>mmol/L</td></tr></table></div>"
        },
        "status": "final",
        "subject": {
          "reference": "urn:uuid:88ad68c4-b0ad-4d58-8e3d-653fc1f52372",
          "display": "Marina Norbiato"
        },
        "effectiveDateTime": "2019-03-12T05:31:43Z",
        "specimen": {
          "reference": "urn:uuid:d3146379-29e9-4639-92b8-d2bd8dbf2938"
        }
      }
    },
    {
      "fullUrl": "urn:uuid:e1738459-08dd-4cdf-9a0f-8422ec433095",
      "resource": {
        "resourceType": "Observation",
        "id": "e1738459-08dd-4cdf-9a0f-8422ec433095",
        "meta": {
          "profile": [
            "http://hl7.eu/fhir/laboratory/StructureDefinition/Observation-resultslab-eu-lab"
          ]
        },
        "performer": [
          {
            "display": "The Central European Lab"
          }
        ],
        "category": [
          {
            "coding": [
              {
                "system": "http://terminology.hl7.org/CodeSystem/observation-category",
                "code": "laboratory"
              }
            ]
          }
        ],
        "code": {
          "coding": [
            {
              "code": "2069-3",
              "system": "http://loinc.org",
              "display": "Chloride [Moles/volume] in Blood"
            }
          ],
          "text": "Chloride [Moles/volume] in Blood"
        },
        "valueQuantity": {
          "system": "http://unitsofmeasure.org",
          "value": 107.4,
          "unit": "mmol/L",
          "code": "mmol/L"
        },
        "referenceRange": [
          {
            "low": {
              "value": 98,
              "code": "mmol/L",
              "system": "http://unitsofmeasure.org"
            }
          },
          {
            "high": {
              "value": 110,
              "code": "mmol/L",
              "system": "http://unitsofmeasure.org"
            }
          }
        ],
        "text": {
          "status": "generated",
          "div": "<div xmlns=\"http://www.w3.org/1999/xhtml\"><table class=\"hl7__eu__lab__report\"><tr><th>Test</th><th>12-Mar-2019</th><th>Reference&#xA0;Range</th><th>Unit</th></tr><tr><td>Chloride [Moles/volume] in Blood</td><td>107.4</td><td>98 - 110</td><td></td><td>mmol/L</td></tr></table></div>"
        },
        "status": "final",
        "subject": {
          "reference": "urn:uuid:88ad68c4-b0ad-4d58-8e3d-653fc1f52372",
          "display": "Marina Norbiato"
        },
        "effectiveDateTime": "2019-03-12T05:31:43Z",
        "specimen": {
          "reference": "urn:uuid:d3146379-29e9-4639-92b8-d2bd8dbf2938"
        }
      }
    },
    {
      "fullUrl": "urn:uuid:ef52acf1-3810-48a8-8db1-76476816c55a",
      "resource": {
        "resourceType": "Observation",
        "id": "ef52acf1-3810-48a8-8db1-76476816c55a",
        "meta": {
          "profile": [
            "http://hl7.eu/fhir/laboratory/StructureDefinition/Observation-resultslab-eu-lab"
          ]
        },
        "performer": [
          {
            "display": "The Central European Lab"
          }
        ],
        "category": [
          {
            "coding": [
              {
                "system": "http://terminology.hl7.org/CodeSystem/observation-category",
                "code": "laboratory"
              }
            ]
          }
        ],
        "code": {
          "coding": [
            {
              "code": "20565-8",
              "system": "http://loinc.org",
              "display": "Carbon dioxide, total [Moles/volume] in Blood"
            }
          ],
          "text": "Carbon dioxide, total [Moles/volume] in Blood"
        },
        "valueQuantity": {
          "system": "http://unitsofmeasure.org",
          "value": 25.8,
          "unit": "mmol/L",
          "code": "mmol/L"
        },
        "referenceRange": [
          {
            "low": {
              "value": 22,
              "code": "mmol/L",
              "system": "http://unitsofmeasure.org"
            }
          },
          {
            "high": {
              "value": 29,
              "code": "mmol/L",
              "system": "http://unitsofmeasure.org"
            }
          }
        ],
        "text": {
          "status": "generated",
          "div": "<div xmlns=\"http://www.w3.org/1999/xhtml\"><table class=\"hl7__eu__lab__report\"><tr><th>Test</th><th>12-Mar-2019</th><th>Reference&#xA0;Range</th><th>Unit</th></tr><tr><td>Carbon dioxide, total [Moles/volume] in Blood</td><td>25.8</td><td>22 - 29</td><td></td><td>mmol/L</td></tr></table></div>"
        },
        "status": "final",
        "subject": {
          "reference": "urn:uuid:88ad68c4-b0ad-4d58-8e3d-653fc1f52372",
          "display": "Marina Norbiato"
        },
        "effectiveDateTime": "2019-03-12T05:31:43Z",
        "specimen": {
          "reference": "urn:uuid:d3146379-29e9-4639-92b8-d2bd8dbf2938"
        }
      }
    },
    {
      "fullUrl": "urn:uuid:08d3fd56-8906-49fd-9b85-5afd74b9894d",
      "resource": {
        "resourceType": "Observation",
        "id": "08d3fd56-8906-49fd-9b85-5afd74b9894d",
        "meta": {
          "profile": [
            "http://hl7.eu/fhir/laboratory/StructureDefinition/Observation-resultslab-eu-lab"
          ]
        },
        "performer": [
          {
            "display": "The Central European Lab"
          }
        ],
        "category": [
          {
            "coding": [
              {
                "system": "http://terminology.hl7.org/CodeSystem/observation-category",
                "code": "laboratory"
              }
            ]
          }
        ],
        "code": {
          "coding": [
            {
              "code": "6690-2",
              "system": "http://loinc.org",
              "display": "Leukocytes [#/volume] in Blood by Automated count"
            }
          ],
          "text": "Leukocytes [#/volume] in Blood by Automated count"
        },
        "valueQuantity": {
          "system": "http://unitsofmeasure.org",
          "value": 4.3,
          "unit": "10*3/uL",
          "code": "10*3/uL"
        },
        "referenceRange": [
          {
            "low": {
              "value": 3.5,
              "code": "10*3/uL",
              "system": "http://unitsofmeasure.org"
            }
          },
          {
            "high": {
              "value": 10.5,
              "code": "10*3/uL",
              "system": "http://unitsofmeasure.org"
            }
          }
        ],
        "text": {
          "status": "generated",
          "div": "<div xmlns=\"http://www.w3.org/1999/xhtml\"><table class=\"hl7__eu__lab__report\"><tr><th>Test</th><th>12-Mar-2019</th><th>Reference&#xA0;Range</th><th>Unit</th></tr><tr><td>Leukocytes [#/volume] in Blood by Automated count</td><td>4.3</td><td>3.5 - 10.5</td><td></td><td>10*3/uL</td></tr></table></div>"
        },
        "status": "final",
        "subject": {
          "reference": "urn:uuid:88ad68c4-b0ad-4d58-8e3d-653fc1f52372",
          "display": "Marina Norbiato"
        },
        "effectiveDateTime": "2019-03-12T05:31:43Z",
        "specimen": {
          "reference": "urn:uuid:d3146379-29e9-4639-92b8-d2bd8dbf2938"
        }
      }
    },
    {
      "fullUrl": "urn:uuid:3f9a0237-971b-4f0a-8aef-b90eb84870f0",
      "resource": {
        "resourceType": "Observation",
        "id": "3f9a0237-971b-4f0a-8aef-b90eb84870f0",
        "meta": {
          "profile": [
            "http://hl7.eu/fhir/laboratory/StructureDefinition/Observation-resultslab-eu-lab"
          ]
        },
        "performer": [
          {
            "display": "The Central European Lab"
          }
        ],
        "category": [
          {
            "coding": [
              {
                "system": "http://terminology.hl7.org/CodeSystem/observation-category",
                "code": "laboratory"
              }
            ]
          }
        ],
        "code": {
          "coding": [
            {
              "code": "789-8",
              "system": "http://loinc.org",
              "display": "Erythrocytes [#/volume] in Blood by Automated count"
            }
          ],
          "text": "Erythrocytes [#/volume] in Blood by Automated count"
        },
        "valueQuantity": {
          "system": "http://unitsofmeasure.org",
          "value": 4,
          "unit": "10*6/uL",
          "code": "10*6/uL"
        },
        "referenceRange": [
          {
            "low": {
              "value": 4,
              "code": "10*6/uL",
              "system": "http://unitsofmeasure.org"
            }
          },
          {
            "high": {
              "value": 5,
              "code": "10*6/uL",
              "system": "http://unitsofmeasure.org"
            }
          }
        ],
        "text": {
          "status": "generated",
          "div": "<div xmlns=\"http://www.w3.org/1999/xhtml\"><table class=\"hl7__eu__lab__report\"><tr><th>Test</th><th>12-Mar-2019</th><th>Reference&#xA0;Range</th><th>Unit</th></tr><tr><td>Erythrocytes [#/volume] in Blood by Automated count</td><td>4.0</td><td>4 - 5</td><td></td><td>10*6/uL</td></tr></table></div>"
        },
        "status": "final",
        "subject": {
          "reference": "urn:uuid:88ad68c4-b0ad-4d58-8e3d-653fc1f52372",
          "display": "Marina Norbiato"
        },
        "effectiveDateTime": "2019-03-12T05:31:43Z",
        "specimen": {
          "reference": "urn:uuid:d3146379-29e9-4639-92b8-d2bd8dbf2938"
        }
      }
    },
    {
      "fullUrl": "urn:uuid:a7849184-034d-4258-9a88-b5cb2c7cd091",
      "resource": {
        "resourceType": "Observation",
        "id": "a7849184-034d-4258-9a88-b5cb2c7cd091",
        "meta": {
          "profile": [
            "http://hl7.eu/fhir/laboratory/StructureDefinition/Observation-resultslab-eu-lab"
          ]
        },
        "performer": [
          {
            "display": "The Central European Lab"
          }
        ],
        "category": [
          {
            "coding": [
              {
                "system": "http://terminology.hl7.org/CodeSystem/observation-category",
                "code": "laboratory"
              }
            ]
          }
        ],
        "code": {
          "coding": [
            {
              "code": "718-7",
              "system": "http://loinc.org",
              "display": "Hemoglobin [Mass/volume] in Blood"
            }
          ],
          "text": "Hemoglobin [Mass/volume] in Blood"
        },
        "valueQuantity": {
          "system": "http://unitsofmeasure.org",
          "value": 15.6,
          "unit": "g/dL",
          "code": "g/dL"
        },
        "referenceRange": [
          {
            "low": {
              "value": 12.1,
              "code": "g/dL",
              "system": "http://unitsofmeasure.org"
            }
          },
          {
            "high": {
              "value": 15.5,
              "code": "g/dL",
              "system": "http://unitsofmeasure.org"
            }
          }
        ],
        "interpretation": [
          {
            "coding": [
              {
                "code": "H",
                "system": "http://terminology.hl7.org/CodeSystem/v3-ObservationInterpretation",
                "display": "High"
              }
            ]
          }
        ],
        "text": {
          "status": "generated",
          "div": "<div xmlns=\"http://www.w3.org/1999/xhtml\"><table class=\"hl7__eu__lab__report\"><tr><th>Test</th><th>12-Mar-2019</th><th>Reference&#xA0;Range</th><th>Unit</th></tr><tr><td>Hemoglobin [Mass/volume] in Blood</td><td>15.6</td><td>12.1 - 15.5</td><td>H</td><td>g/dL</td></tr></table></div>"
        },
        "status": "final",
        "subject": {
          "reference": "urn:uuid:88ad68c4-b0ad-4d58-8e3d-653fc1f52372",
          "display": "Marina Norbiato"
        },
        "effectiveDateTime": "2019-03-12T05:31:43Z",
        "specimen": {
          "reference": "urn:uuid:d3146379-29e9-4639-92b8-d2bd8dbf2938"
        }
      }
    },
    {
      "fullUrl": "urn:uuid:a073f526-a06c-4a7b-aa8f-36964ad7619b",
      "resource": {
        "resourceType": "Observation",
        "id": "a073f526-a06c-4a7b-aa8f-36964ad7619b",
        "meta": {
          "profile": [
            "http://hl7.eu/fhir/laboratory/StructureDefinition/Observation-resultslab-eu-lab"
          ]
        },
        "performer": [
          {
            "display": "The Central European Lab"
          }
        ],
        "category": [
          {
            "coding": [
              {
                "system": "http://terminology.hl7.org/CodeSystem/observation-category",
                "code": "laboratory"
              }
            ]
          }
        ],
        "code": {
          "coding": [
            {
              "code": "4544-3",
              "system": "http://loinc.org",
              "display": "Hematocrit [Volume Fraction] of Blood by Automated count"
            }
          ],
          "text": "Hematocrit [Volume Fraction] of Blood by Automated count"
        },
        "valueQuantity": {
          "system": "http://unitsofmeasure.org",
          "value": 35.2,
          "unit": "%",
          "code": "%"
        },
        "referenceRange": [
          {
            "low": {
              "value": 36.1,
              "code": "%",
              "system": "http://unitsofmeasure.org"
            }
          },
          {
            "high": {
              "value": 44.3,
              "code": "%",
              "system": "http://unitsofmeasure.org"
            }
          }
        ],
        "interpretation": [
          {
            "coding": [
              {
                "code": "L",
                "system": "http://terminology.hl7.org/CodeSystem/v3-ObservationInterpretation",
                "display": "Low"
              }
            ]
          }
        ],
        "text": {
          "status": "generated",
          "div": "<div xmlns=\"http://www.w3.org/1999/xhtml\"><table class=\"hl7__eu__lab__report\"><tr><th>Test</th><th>12-Mar-2019</th><th>Reference&#xA0;Range</th><th>Unit</th></tr><tr><td>Hematocrit [Volume Fraction] of Blood by Automated count</td><td>35.2</td><td>36.1 - 44.3</td><td>L</td><td>%</td></tr></table></div>"
        },
        "status": "final",
        "subject": {
          "reference": "urn:uuid:88ad68c4-b0ad-4d58-8e3d-653fc1f52372",
          "display": "Marina Norbiato"
        },
        "effectiveDateTime": "2019-03-12T05:31:43Z",
        "specimen": {
          "reference": "urn:uuid:d3146379-29e9-4639-92b8-d2bd8dbf2938"
        }
      }
    },
    {
      "fullUrl": "urn:uuid:3b615d72-47d1-496a-b5b9-fc85b445b623",
      "resource": {
        "resourceType": "Observation",
        "id": "3b615d72-47d1-496a-b5b9-fc85b445b623",
        "meta": {
          "profile": [
            "http://hl7.eu/fhir/laboratory/StructureDefinition/Observation-resultslab-eu-lab"
          ]
        },
        "performer": [
          {
            "display": "The Central European Lab"
          }
        ],
        "category": [
          {
            "coding": [
              {
                "system": "http://terminology.hl7.org/CodeSystem/observation-category",
                "code": "laboratory"
              }
            ]
          }
        ],
        "code": {
          "coding": [
            {
              "code": "787-2",
              "system": "http://loinc.org",
              "display": "MCV [Entitic volume] by Automated count"
            }
          ],
          "text": "MCV [Entitic volume] by Automated count"
        },
        "valueQuantity": {
          "system": "http://unitsofmeasure.org",
          "value": 82.9,
          "unit": "fL",
          "code": "fL"
        },
        "referenceRange": [
          {
            "low": {
              "value": 82,
              "code": "fL",
              "system": "http://unitsofmeasure.org"
            }
          },
          {
            "high": {
              "value": 98,
              "code": "fL",
              "system": "http://unitsofmeasure.org"
            }
          }
        ],
        "text": {
          "status": "generated",
          "div": "<div xmlns=\"http://www.w3.org/1999/xhtml\"><table class=\"hl7__eu__lab__report\"><tr><th>Test</th><th>12-Mar-2019</th><th>Reference&#xA0;Range</th><th>Unit</th></tr><tr><td>MCV [Entitic volume] by Automated count</td><td>82.9</td><td>82 - 98</td><td></td><td>fL</td></tr></table></div>"
        },
        "status": "final",
        "subject": {
          "reference": "urn:uuid:88ad68c4-b0ad-4d58-8e3d-653fc1f52372",
          "display": "Marina Norbiato"
        },
        "effectiveDateTime": "2019-03-12T05:31:43Z",
        "specimen": {
          "reference": "urn:uuid:d3146379-29e9-4639-92b8-d2bd8dbf2938"
        }
      }
    },
    {
      "fullUrl": "urn:uuid:7cf7adc5-30f6-4701-98ec-5eeaef09a3e1",
      "resource": {
        "resourceType": "Observation",
        "id": "7cf7adc5-30f6-4701-98ec-5eeaef09a3e1",
        "meta": {
          "profile": [
            "http://hl7.eu/fhir/laboratory/StructureDefinition/Observation-resultslab-eu-lab"
          ]
        },
        "performer": [
          {
            "display": "The Central European Lab"
          }
        ],
        "category": [
          {
            "coding": [
              {
                "system": "http://terminology.hl7.org/CodeSystem/observation-category",
                "code": "laboratory"
              }
            ]
          }
        ],
        "code": {
          "coding": [
            {
              "code": "785-6",
              "system": "http://loinc.org",
              "display": "MCH [Entitic mass] by Automated count"
            }
          ],
          "text": "MCH [Entitic mass] by Automated count"
        },
        "valueQuantity": {
          "system": "http://unitsofmeasure.org",
          "value": 32.5,
          "unit": "pg",
          "code": "pg"
        },
        "referenceRange": [
          {
            "low": {
              "value": 27,
              "code": "pg",
              "system": "http://unitsofmeasure.org"
            }
          },
          {
            "high": {
              "value": 33,
              "code": "pg",
              "system": "http://unitsofmeasure.org"
            }
          }
        ],
        "text": {
          "status": "generated",
          "div": "<div xmlns=\"http://www.w3.org/1999/xhtml\"><table class=\"hl7__eu__lab__report\"><tr><th>Test</th><th>12-Mar-2019</th><th>Reference&#xA0;Range</th><th>Unit</th></tr><tr><td>MCH [Entitic mass] by Automated count</td><td>32.5</td><td>27 - 33</td><td></td><td>pg</td></tr></table></div>"
        },
        "status": "final",
        "subject": {
          "reference": "urn:uuid:88ad68c4-b0ad-4d58-8e3d-653fc1f52372",
          "display": "Marina Norbiato"
        },
        "effectiveDateTime": "2019-03-12T05:31:43Z",
        "specimen": {
          "reference": "urn:uuid:d3146379-29e9-4639-92b8-d2bd8dbf2938"
        }
      }
    },
    {
      "fullUrl": "urn:uuid:bcafb281-3b7c-4eff-a29c-47bbb86b541f",
      "resource": {
        "resourceType": "Observation",
        "id": "bcafb281-3b7c-4eff-a29c-47bbb86b541f",
        "meta": {
          "profile": [
            "http://hl7.eu/fhir/laboratory/StructureDefinition/Observation-resultslab-eu-lab"
          ]
        },
        "performer": [
          {
            "display": "The Central European Lab"
          }
        ],
        "category": [
          {
            "coding": [
              {
                "system": "http://terminology.hl7.org/CodeSystem/observation-category",
                "code": "laboratory"
              }
            ]
          }
        ],
        "code": {
          "coding": [
            {
              "code": "786-4",
              "system": "http://loinc.org",
              "display": "MCHC [Mass/volume] by Automated count"
            }
          ],
          "text": "MCHC [Mass/volume] by Automated count"
        },
        "valueQuantity": {
          "system": "http://unitsofmeasure.org",
          "value": 34,
          "unit": "g/dL",
          "code": "g/dL"
        },
        "referenceRange": [
          {
            "low": {
              "value": 32,
              "code": "g/dL",
              "system": "http://unitsofmeasure.org"
            }
          },
          {
            "high": {
              "value": 37,
              "code": "g/dL",
              "system": "http://unitsofmeasure.org"
            }
          }
        ],
        "text": {
          "status": "generated",
          "div": "<div xmlns=\"http://www.w3.org/1999/xhtml\"><table class=\"hl7__eu__lab__report\"><tr><th>Test</th><th>12-Mar-2019</th><th>Reference&#xA0;Range</th><th>Unit</th></tr><tr><td>MCHC [Mass/volume] by Automated count</td><td>34.0</td><td>32 - 37</td><td></td><td>g/dL</td></tr></table></div>"
        },
        "status": "final",
        "subject": {
          "reference": "urn:uuid:88ad68c4-b0ad-4d58-8e3d-653fc1f52372",
          "display": "Marina Norbiato"
        },
        "effectiveDateTime": "2019-03-12T05:31:43Z",
        "specimen": {
          "reference": "urn:uuid:d3146379-29e9-4639-92b8-d2bd8dbf2938"
        }
      }
    },
    {
      "fullUrl": "urn:uuid:b69c0c73-0d17-44fe-9cfa-7208853574ec",
      "resource": {
        "resourceType": "Observation",
        "id": "b69c0c73-0d17-44fe-9cfa-7208853574ec",
        "meta": {
          "profile": [
            "http://hl7.eu/fhir/laboratory/StructureDefinition/Observation-resultslab-eu-lab"
          ]
        },
        "performer": [
          {
            "display": "The Central European Lab"
          }
        ],
        "category": [
          {
            "coding": [
              {
                "system": "http://terminology.hl7.org/CodeSystem/observation-category",
                "code": "laboratory"
              }
            ]
          }
        ],
        "code": {
          "coding": [
            {
              "code": "21000-5",
              "system": "http://loinc.org",
              "display": "Erythrocyte distribution width [Entitic volume] by Automated count"
            }
          ],
          "text": "Erythrocyte distribution width [Entitic volume] by Automated count"
        },
        "valueQuantity": {
          "system": "http://unitsofmeasure.org",
          "value": 41.2,
          "unit": "fL",
          "code": "fL"
        },
        "referenceRange": [
          {
            "low": {
              "value": 36,
              "code": "fL",
              "system": "http://unitsofmeasure.org"
            }
          },
          {
            "high": {
              "value": 55,
              "code": "fL",
              "system": "http://unitsofmeasure.org"
            }
          }
        ],
        "text": {
          "status": "generated",
          "div": "<div xmlns=\"http://www.w3.org/1999/xhtml\"><table class=\"hl7__eu__lab__report\"><tr><th>Test</th><th>12-Mar-2019</th><th>Reference&#xA0;Range</th><th>Unit</th></tr><tr><td>Erythrocyte distribution width [Entitic volume] by Automated count</td><td>41.2</td><td>36 - 55</td><td></td><td>fL</td></tr></table></div>"
        },
        "status": "final",
        "subject": {
          "reference": "urn:uuid:88ad68c4-b0ad-4d58-8e3d-653fc1f52372",
          "display": "Marina Norbiato"
        },
        "effectiveDateTime": "2019-03-12T05:31:43Z",
        "specimen": {
          "reference": "urn:uuid:d3146379-29e9-4639-92b8-d2bd8dbf2938"
        }
      }
    },
    {
      "fullUrl": "urn:uuid:7f283b6a-8525-4155-8e4c-1ae68e8ba802",
      "resource": {
        "resourceType": "Observation",
        "id": "7f283b6a-8525-4155-8e4c-1ae68e8ba802",
        "meta": {
          "profile": [
            "http://hl7.eu/fhir/laboratory/StructureDefinition/Observation-resultslab-eu-lab"
          ]
        },
        "performer": [
          {
            "display": "The Central European Lab"
          }
        ],
        "category": [
          {
            "coding": [
              {
                "system": "http://terminology.hl7.org/CodeSystem/observation-category",
                "code": "laboratory"
              }
            ]
          }
        ],
        "code": {
          "coding": [
            {
              "code": "777-3",
              "system": "http://loinc.org",
              "display": "Platelets [#/volume] in Blood by Automated count"
            }
          ],
          "text": "Platelets [#/volume] in Blood by Automated count"
        },
        "valueQuantity": {
          "system": "http://unitsofmeasure.org",
          "value": 201.5,
          "unit": "10*3/uL",
          "code": "10*3/uL"
        },
        "referenceRange": [
          {
            "low": {
              "value": 150,
              "code": "10*3/uL",
              "system": "http://unitsofmeasure.org"
            }
          },
          {
            "high": {
              "value": 400,
              "code": "10*3/uL",
              "system": "http://unitsofmeasure.org"
            }
          }
        ],
        "text": {
          "status": "generated",
          "div": "<div xmlns=\"http://www.w3.org/1999/xhtml\"><table class=\"hl7__eu__lab__report\"><tr><th>Test</th><th>12-Mar-2019</th><th>Reference&#xA0;Range</th><th>Unit</th></tr><tr><td>Platelets [#/volume] in Blood by Automated count</td><td>201.5</td><td>150 - 400</td><td></td><td>10*3/uL</td></tr></table></div>"
        },
        "status": "final",
        "subject": {
          "reference": "urn:uuid:88ad68c4-b0ad-4d58-8e3d-653fc1f52372",
          "display": "Marina Norbiato"
        },
        "effectiveDateTime": "2019-03-12T05:31:43Z",
        "specimen": {
          "reference": "urn:uuid:d3146379-29e9-4639-92b8-d2bd8dbf2938"
        }
      }
    },
    {
      "fullUrl": "urn:uuid:249d1fc2-8b5e-4092-91d7-e27accc5f2ac",
      "resource": {
        "resourceType": "Observation",
        "id": "249d1fc2-8b5e-4092-91d7-e27accc5f2ac",
        "meta": {
          "profile": [
            "http://hl7.eu/fhir/laboratory/StructureDefinition/Observation-resultslab-eu-lab"
          ]
        },
        "performer": [
          {
            "display": "The Central European Lab"
          }
        ],
        "category": [
          {
            "coding": [
              {
                "system": "http://terminology.hl7.org/CodeSystem/observation-category",
                "code": "laboratory"
              }
            ]
          }
        ],
        "code": {
          "coding": [
            {
              "code": "32207-3",
              "system": "http://loinc.org",
              "display": "Platelet distribution width [Entitic volume] in Blood by Automated count"
            }
          ],
          "text": "Platelet distribution width [Entitic volume] in Blood by Automated count"
        },
        "valueQuantity": {
          "system": "http://unitsofmeasure.org",
          "value": 157,
          "unit": "fL",
          "code": "fL"
        },
        "referenceRange": [
          {
            "low": {
              "value": 11.6,
              "code": "fL",
              "system": "http://unitsofmeasure.org"
            }
          },
          {
            "high": {
              "value": 17.4,
              "code": "fL",
              "system": "http://unitsofmeasure.org"
            }
          }
        ],
        "interpretation": [
          {
            "coding": [
              {
                "code": "H",
                "system": "http://terminology.hl7.org/CodeSystem/v3-ObservationInterpretation",
                "display": "High"
              }
            ]
          }
        ],
        "text": {
          "status": "generated",
          "div": "<div xmlns=\"http://www.w3.org/1999/xhtml\"><table class=\"hl7__eu__lab__report\"><tr><th>Test</th><th>12-Mar-2019</th><th>Reference&#xA0;Range</th><th>Unit</th></tr><tr><td>Platelet distribution width [Entitic volume] in Blood by Automated count</td><td>157.0</td><td>11.6 - 17.4</td><td>H</td><td>fL</td></tr></table></div>"
        },
        "status": "final",
        "subject": {
          "reference": "urn:uuid:88ad68c4-b0ad-4d58-8e3d-653fc1f52372",
          "display": "Marina Norbiato"
        },
        "effectiveDateTime": "2019-03-12T05:31:43Z",
        "specimen": {
          "reference": "urn:uuid:d3146379-29e9-4639-92b8-d2bd8dbf2938"
        }
      }
    },
    {
      "fullUrl": "urn:uuid:2c54dc0f-ecb2-498e-ae55-e3623a5d4549",
      "resource": {
        "resourceType": "Observation",
        "id": "2c54dc0f-ecb2-498e-ae55-e3623a5d4549",
        "meta": {
          "profile": [
            "http://hl7.eu/fhir/laboratory/StructureDefinition/Observation-resultslab-eu-lab"
          ]
        },
        "performer": [
          {
            "display": "The Central European Lab"
          }
        ],
        "category": [
          {
            "coding": [
              {
                "system": "http://terminology.hl7.org/CodeSystem/observation-category",
                "code": "laboratory"
              }
            ]
          }
        ],
        "code": {
          "coding": [
            {
              "code": "32623-1",
              "system": "http://loinc.org",
              "display": "Platelet mean volume [Entitic volume] in Blood by Automated count"
            }
          ],
          "text": "Platelet mean volume [Entitic volume] in Blood by Automated count"
        },
        "valueQuantity": {
          "system": "http://unitsofmeasure.org",
          "value": 11.4,
          "unit": "fL",
          "code": "fL"
        },
        "referenceRange": [
          {
            "low": {
              "value": 7.2,
              "code": "fL",
              "system": "http://unitsofmeasure.org"
            }
          },
          {
            "high": {
              "value": 13.5,
              "code": "fL",
              "system": "http://unitsofmeasure.org"
            }
          }
        ],
        "text": {
          "status": "generated",
          "div": "<div xmlns=\"http://www.w3.org/1999/xhtml\"><table class=\"hl7__eu__lab__report\"><tr><th>Test</th><th>12-Mar-2019</th><th>Reference&#xA0;Range</th><th>Unit</th></tr><tr><td>Platelet mean volume [Entitic volume] in Blood by Automated count</td><td>11.4</td><td>7.2 - 13.5</td><td></td><td>fL</td></tr></table></div>"
        },
        "status": "final",
        "subject": {
          "reference": "urn:uuid:88ad68c4-b0ad-4d58-8e3d-653fc1f52372",
          "display": "Marina Norbiato"
        },
        "effectiveDateTime": "2019-03-12T05:31:43Z",
        "specimen": {
          "reference": "urn:uuid:d3146379-29e9-4639-92b8-d2bd8dbf2938"
        }
      }
    },
    {
      "fullUrl": "urn:uuid:865aeaea-65e8-4735-8744-7f4c8afbd178",
      "resource": {
        "resourceType": "Device",
        "id": "865aeaea-65e8-4735-8744-7f4c8afbd178",
        "deviceName": [
          {
            "name": "SYNDERAI Synthetic Generator",
            "type": "manufacturer-name"
          }
        ],
        "version": [
          {
            "value": "5.0"
          }
        ],
        "text": {
          "status": "generated",
          "div": "<div xmlns=\"http://www.w3.org/1999/xhtml\">SYNDERAI Synthetic Generator v5.0</div>"
        },
        "status": "active\"",
        "distinctIdentifier": "synderai-generator-50",
        "manufacturer": "SYNDERAI Project"
      }
    },
    {
      "fullUrl": "urn:uuid:a952465a-99a5-4e8a-ac54-9310ca3a415b",
      "resource": {
        "resourceType": "Provenance",
        "id": "a952465a-99a5-4e8a-ac54-9310ca3a415b",
        "target": [
          {
            "reference": "Patient/88ad68c4-b0ad-4d58-8e3d-653fc1f52372"
          },
          {
            "reference": "Bundle/617395e2-6d2a-4feb-8353-0c6dfd3b8fb0"
          },
          {
            "reference": "Composition/083d7f90-1be0-4669-9f0c-b1cfabdd57d7"
          },
          {
            "reference": "PractitionerRole/370391d2-0204-4432-ae6d-36a7c79670e4"
          },
          {
            "reference": "Practitioner/6cf6ae88-b591-4ae5-ba40-5d95a338ee4e"
          },
          {
            "reference": "PractitionerRole/74d9455a-a757-45f7-81d7-ef11b71dafa0"
          },
          {
            "reference": "Organization/18f3349a-13f2-4598-8820-44c48ecc3050"
          }
        ],
        "activity": {
          "text": "Synthetic Example Data Generation"
        },
        "policy": [
          "https://synderai.net/synderai-synthetic-data-policy"
        ],
        "agent": [
          {
            "type": {
              "text": "author"
            },
            "who": {
              "reference": "Device/865aeaea-65e8-4735-8744-7f4c8afbd178"
            }
          }
        ],
        "reason": [
          {
            "text": "Interoperability Testing and Training (non-clinical use)"
          }
        ],
        "text": {
          "status": "generated",
          "div": "<div xmlns=\"http://www.w3.org/1999/xhtml\">Provenance for SYNDERAI Synthetic Example Data Resource</div>"
        },
        "recorded": "2019-03-12T06:31:43Z"
      }
    },
    {
      "fullUrl": "urn:uuid:370391d2-0204-4432-ae6d-36a7c79670e4",
      "resource": {
        "resourceType": "PractitionerRole",
        "id": "370391d2-0204-4432-ae6d-36a7c79670e4",
        "meta": {
          "profile": [
            "http://hl7.eu/fhir/base/StructureDefinition/practitionerRole-eu"
          ]
        },
        "text": {
          "status": "generated",
          "div": "<div xmlns=\"http://www.w3.org/1999/xhtml\">Laboratory Role Id: 370391d2-0204-4432-ae6d-36a7c79670e4</div>"
        },
        "practitioner": {
          "reference": "urn:uuid:6cf6ae88-b591-4ae5-ba40-5d95a338ee4e"
        }
      }
    },
    {
      "fullUrl": "urn:uuid:6cf6ae88-b591-4ae5-ba40-5d95a338ee4e",
      "resource": {
        "resourceType": "Practitioner",
        "id": "6cf6ae88-b591-4ae5-ba40-5d95a338ee4e",
        "meta": {
          "profile": [
            "http://hl7.eu/fhir/base/StructureDefinition/practitioner-eu"
          ]
        },
        "identifier": [
          {
            "assigner": {
              "display": "HL7 Europe"
            },
            "system": "urn:oid:2.16.840.1.113883.2.51.999",
            "value": "3d1936a6-427b-4607-b67e-3a9dd67f5beb"
          }
        ],
        "name": [
          {
            "prefix": [
              "dr"
            ],
            "given": [
              "Ex"
            ],
            "family": "Ample"
          }
        ],
        "address": [
          {
            "line": [
              "Laboratoire Central Européenne",
              "Boulevard du Jardin Botanique 32"
            ],
            "postalCode": "1000",
            "city": "Brussels",
            "country": "Belgium"
          }
        ],
        "text": {
          "status": "generated",
          "div": "<div xmlns=\"http://www.w3.org/1999/xhtml\">Laboratory: Laboratoire Central Européenne, 1000 Brussels, Belgium</div>"
        }
      }
    }
  ],
  "type": "document",
  "timestamp": "2019-03-12T06:31:43Z"
}
