{
  "resourceType": "Bundle",
  "id": "a8c5e313-e08f-4014-b619-f05021d65485",
  "meta": {
    "profile": [
      "http://hl7.eu/fhir/laboratory/StructureDefinition/Bundle-eu-lab"
    ]
  },
  "identifier": {
    "assigner": {
      "display": "HL7 Europe"
    },
    "system": "urn:oid:2.16.840.1.113883.2.51.999",
    "value": "3e481080-5ad6-4a91-8dfa-e1d97b4d5fb2"
  },
  "entry": [
    {
      "fullUrl": "urn:uuid:f5e568ef-1da1-4fbb-bee7-7e93432a6729",
      "resource": {
        "resourceType": "Composition",
        "id": "f5e568ef-1da1-4fbb-bee7-7e93432a6729",
        "meta": {
          "profile": [
            "http://hl7.eu/fhir/laboratory/StructureDefinition/Composition-eu-lab"
          ]
        },
        "identifier": {
          "assigner": {
            "display": "HL7 Europe"
          },
          "system": "urn:oid:2.16.840.1.113883.2.51.999",
          "value": "2d89791c-3e62-48a9-9fa9-3981af139d4e"
        },
        "author": [
          {
            "reference": "urn:uuid:916fe5aa-3840-408b-96c1-8f5f33aeb433"
          }
        ],
        "category": [
          {
            "coding": [
              {
                "code": "26436-6",
                "system": "http://loinc.org",
                "display": "Laboratory studies (set)"
              }
            ]
          }
        ],
        "type": {
          "coding": [
            {
              "code": "11502-2",
              "system": "http://loinc.org",
              "display": "Laboratory report"
            }
          ],
          "text": "Laboratory Report"
        },
        "section": [
          {
            "code": {
              "coding": [
                {
                  "code": "26436-6",
                  "system": "http://loinc.org",
                  "display": "Laboratory studies (set)"
                }
              ],
              "text": "Laboratory studies"
            },
            "section": [
              {
                "code": {
                  "coding": [
                    {
                      "code": "$18723-7",
                      "system": "http://loinc.org",
                      "display": "Hematology studies (set)"
                    }
                  ],
                  "text": "Hematology"
                },
                "entry": [
                  {
                    "reference": "urn:uuid:2210b9e0-f400-481e-aa9e-c7bd6599989d"
                  },
                  {
                    "reference": "urn:uuid:6260d143-e7b4-43ab-a1db-e15769df55b4"
                  },
                  {
                    "reference": "urn:uuid:77983262-dd10-4bd4-a9b4-52a0e36905fd"
                  },
                  {
                    "reference": "urn:uuid:c6183c40-5bcb-46b7-94a1-55f68a391962"
                  },
                  {
                    "reference": "urn:uuid:da3ee514-4577-4600-a5e9-da98aab6fc8c"
                  },
                  {
                    "reference": "urn:uuid:ca9a7ea3-f5c3-4dd6-a9e6-5fd3b047e8a5"
                  },
                  {
                    "reference": "urn:uuid:5e348999-b9f7-4d9b-af54-85a714b44338"
                  },
                  {
                    "reference": "urn:uuid:c38cda5b-eccb-4935-ae55-075c38161626"
                  },
                  {
                    "reference": "urn:uuid:4df7af19-4f65-4b0a-8243-1b851913744d"
                  },
                  {
                    "reference": "urn:uuid:0330cc16-ab79-4073-b29c-c031c8ced625"
                  },
                  {
                    "reference": "urn:uuid:863a4716-91c1-4cc2-8dfe-60d9739d0636"
                  }
                ],
                "text": {
                  "status": "generated",
                  "div": "<div xmlns=\"http://www.w3.org/1999/xhtml\"><h3>Hematology</h3><table class=\"hl7__eu__lab__report\"><thead><tr><th>Test</th><th>20-MAR-2017</th><th>Reference&#xA0;Range</th><th>Unit</th></tr></thead><tbody><tr><td>Leukocytes [#/volume] in Blood by Automated count</td><td>10.4</td><td>4 - 11</td><td>10*3/uL</td></tr><tr><td>Erythrocytes [#/volume] in Blood by Automated count</td><td>4.4</td><td>4.2 - 6.2</td><td>10*6/uL</td></tr><tr><td>Hemoglobin [Mass/volume] in Blood</td><td><strong>12.2 L</strong></td><td>13.5 - 17.5</td><td>g/dL</td></tr><tr><td>Hematocrit [Volume Fraction] of Blood by Automated count</td><td>42.9</td><td>38 - 50</td><td>%</td></tr><tr><td>MCV [Entitic volume] by Automated count</td><td>88.3</td><td>80 - 98</td><td>fL</td></tr><tr><td>MCH [Entitic mass] by Automated count</td><td>30.6</td><td>27 - 34</td><td>pg</td></tr><tr><td>MCHC [Mass/volume] by Automated count</td><td><strong>35.7 H</strong></td><td>31 - 35</td><td>g/dL</td></tr><tr><td>Erythrocyte distribution width [Entitic volume] by Automated count</td><td>39.7</td><td>36 - 55</td><td>fL</td></tr><tr><td>Platelets [#/volume] in Blood by Automated count</td><td>352.5</td><td>140 - 363</td><td>10*3/uL</td></tr><tr><td>Platelet distribution width [Entitic volume] in Blood by Automated count</td><td>187.4</td><td>144 - 366</td><td>fL</td></tr><tr><td>Platelet mean volume [Entitic volume] in Blood by Automated count</td><td>10.2</td><td>9.4 - 13.5</td><td>fL</td></tr></tbody></table></div>"
                },
                "title": "Hematology"
              },
              {
                "code": {
                  "coding": [
                    {
                      "code": "$18719-5",
                      "system": "http://loinc.org",
                      "display": "Chemistry studies (set)"
                    }
                  ],
                  "text": "Chemistry"
                },
                "entry": [
                  {
                    "reference": "urn:uuid:586de0cd-96ac-4b25-a254-bcd3cf096d9d"
                  },
                  {
                    "reference": "urn:uuid:eb02f40e-f89b-4029-bc08-42c6f3aea4e1"
                  },
                  {
                    "reference": "urn:uuid:61462472-cc4e-4a4e-891a-001a392d5e65"
                  },
                  {
                    "reference": "urn:uuid:4d82e1c8-7b2b-4cec-82d6-453680488d43"
                  },
                  {
                    "reference": "urn:uuid:d6232b7b-7b1d-425a-9d25-2bf9ac4ca3de"
                  },
                  {
                    "reference": "urn:uuid:8668eefa-0239-4259-8dba-daf87634906e"
                  },
                  {
                    "reference": "urn:uuid:7ca73c3a-ae6f-4be7-8c81-1342a0886ed0"
                  },
                  {
                    "reference": "urn:uuid:1bc9d45e-00a1-4877-8128-34c303dbc97c"
                  },
                  {
                    "reference": "urn:uuid:f225decd-b3d4-4d35-8152-3aa89630bdd9"
                  }
                ],
                "text": {
                  "status": "generated",
                  "div": "<div xmlns=\"http://www.w3.org/1999/xhtml\"><h3>Chemistry</h3><table class=\"hl7__eu__lab__report\"><thead><tr><th>Test</th><th>20-MAR-2017</th><th>Reference&#xA0;Range</th><th>Unit</th></tr></thead><tbody><tr><td>Hemoglobin A1c/Hemoglobin.total in Blood</td><td><strong>6.1 H</strong></td><td>4 - 6</td><td>%</td></tr><tr><td>Glucose [Mass/volume] in Blood</td><td>96.9</td><td>70 - 140</td><td>mg/dL</td></tr><tr><td>Urea nitrogen [Mass/volume] in Blood</td><td>17.8</td><td>7 - 20</td><td>mg/dL</td></tr><tr><td>Creatinine [Mass/volume] in Blood</td><td>0.9</td><td>0.9 - 1.3</td><td>mg/dL</td></tr><tr><td>Calcium [Mass/volume] in Blood</td><td>9.4</td><td>8.5 - 10.5</td><td>mg/dL</td></tr><tr><td>Sodium [Moles/volume] in Blood</td><td>142.7</td><td>135 - 145</td><td>mmol/L</td></tr><tr><td>Potassium [Moles/volume] in Blood</td><td>4.0</td><td>3.5 - 5</td><td>mmol/L</td></tr><tr><td>Chloride [Moles/volume] in Blood</td><td>106.8</td><td>98 - 110</td><td>mmol/L</td></tr><tr><td>Carbon dioxide, total [Moles/volume] in Blood</td><td>23.3</td><td>22 - 32</td><td>mmol/L</td></tr></tbody></table></div>"
                },
                "title": "Chemistry"
              }
            ],
            "title": "Laboratory Report"
          },
          {
            "text": {
              "status": "generated",
              "div": "<div xmlns=\"http://www.w3.org/1999/xhtml\"><h3>Annotation</h3><table class=\"hl7__eu__lab__report\"><tr><th>Conclusion and Recommendations based on this report and previous findings known to us</th></tr><tr><td>The patient shows mildly elevated HbA1c, suggesting impaired glucose metabolism or early diabetes. Hemoglobin is slightly low, indicating mild anemia, with a high MCHC that may suggest spherocytosis or sample artifact. Renal function, electrolytes, and other hematological parameters are within normal limits. Recommend clinical correlation for anemia and monitoring of glycemic control.</td></tr></table></div>"
            },
            "code": {
              "coding": [
                {
                  "system": "http://loinc.org",
                  "code": "48767-8",
                  "display": "Annotation comment"
                }
              ]
            },
            "title": "Annotation comment"
          }
        ],
        "status": "final",
        "subject": {
          "reference": "urn:uuid:90d19f70-afa3-446f-8f17-d95f9e36aafe",
          "display": "Alessio Fanucci"
        },
        "date": "2017-03-20T08:49:06Z",
        "title": "Laboratory Report",
        "confidentiality": "N"
      }
    },
    {
      "fullUrl": "urn:uuid:dc9dc88c-1e3f-4e02-90f6-b8abe91360a1",
      "resource": {
        "resourceType": "DiagnosticReport",
        "id": "dc9dc88c-1e3f-4e02-90f6-b8abe91360a1",
        "meta": {
          "profile": [
            "http://hl7.eu/fhir/laboratory/StructureDefinition/DiagnosticReport-eu-lab"
          ]
        },
        "identifier": [
          {
            "assigner": {
              "display": "HL7 Europe"
            },
            "system": "urn:oid:2.16.840.1.113883.2.51.999",
            "value": "2fa38675-35d4-4085-a941-2bc03bd26c03"
          }
        ],
        "extension": [
          {
            "url": "http://hl7.org/fhir/5.0/StructureDefinition/extension-DiagnosticReport.composition",
            "valueReference": {
              "reference": "urn:uuid:2d89791c-3e62-48a9-9fa9-3981af139d4e"
            }
          }
        ],
        "category": [
          {
            "coding": [
              {
                "code": "26436-6",
                "system": "http://loinc.org",
                "display": "Laboratory studies (set)"
              }
            ]
          }
        ],
        "specimen": [
          {
            "reference": "urn:uuid:2c06f71f-cbcb-4842-bd48-4839d4220f1f"
          },
          {
            "reference": "urn:uuid:2c06f71f-cbcb-4842-bd48-4839d4220f1f"
          }
        ],
        "result": [
          {
            "reference": "urn:uuid:586de0cd-96ac-4b25-a254-bcd3cf096d9d"
          },
          {
            "reference": "urn:uuid:eb02f40e-f89b-4029-bc08-42c6f3aea4e1"
          },
          {
            "reference": "urn:uuid:61462472-cc4e-4a4e-891a-001a392d5e65"
          },
          {
            "reference": "urn:uuid:4d82e1c8-7b2b-4cec-82d6-453680488d43"
          },
          {
            "reference": "urn:uuid:d6232b7b-7b1d-425a-9d25-2bf9ac4ca3de"
          },
          {
            "reference": "urn:uuid:8668eefa-0239-4259-8dba-daf87634906e"
          },
          {
            "reference": "urn:uuid:7ca73c3a-ae6f-4be7-8c81-1342a0886ed0"
          },
          {
            "reference": "urn:uuid:1bc9d45e-00a1-4877-8128-34c303dbc97c"
          },
          {
            "reference": "urn:uuid:f225decd-b3d4-4d35-8152-3aa89630bdd9"
          },
          {
            "reference": "urn:uuid:2210b9e0-f400-481e-aa9e-c7bd6599989d"
          },
          {
            "reference": "urn:uuid:6260d143-e7b4-43ab-a1db-e15769df55b4"
          },
          {
            "reference": "urn:uuid:77983262-dd10-4bd4-a9b4-52a0e36905fd"
          },
          {
            "reference": "urn:uuid:c6183c40-5bcb-46b7-94a1-55f68a391962"
          },
          {
            "reference": "urn:uuid:da3ee514-4577-4600-a5e9-da98aab6fc8c"
          },
          {
            "reference": "urn:uuid:ca9a7ea3-f5c3-4dd6-a9e6-5fd3b047e8a5"
          },
          {
            "reference": "urn:uuid:5e348999-b9f7-4d9b-af54-85a714b44338"
          },
          {
            "reference": "urn:uuid:c38cda5b-eccb-4935-ae55-075c38161626"
          },
          {
            "reference": "urn:uuid:4df7af19-4f65-4b0a-8243-1b851913744d"
          },
          {
            "reference": "urn:uuid:0330cc16-ab79-4073-b29c-c031c8ced625"
          },
          {
            "reference": "urn:uuid:863a4716-91c1-4cc2-8dfe-60d9739d0636"
          }
        ],
        "status": "registered",
        "code": {
          "coding": [
            {
              "code": "11502-2",
              "system": "http://loinc.org",
              "display": "Laboratory report"
            }
          ]
        },
        "subject": {
          "reference": "urn:uuid:90d19f70-afa3-446f-8f17-d95f9e36aafe",
          "display": "Alessio Fanucci"
        }
      }
    },
    {
      "fullUrl": "urn:uuid:90d19f70-afa3-446f-8f17-d95f9e36aafe",
      "resource": {
        "resourceType": "Patient",
        "id": "90d19f70-afa3-446f-8f17-d95f9e36aafe",
        "meta": {
          "security": [
            {
              "system": "http://terminology.hl7.org/CodeSystem/v3-ActReason",
              "code": "HTEST"
            },
            {
              "system": "http://terminology.hl7.org/CodeSystem/v3-ActReason",
              "code": "TRAIN"
            }
          ],
          "tag": [
            {
              "system": "https://synderai.net/fhir/CodeSystem/tags",
              "code": "synthetic",
              "display": "SYNDERAI Synthetic data"
            }
          ],
          "profile": [
            "http://hl7.eu/fhir/base/StructureDefinition/patient-eu-core"
          ]
        },
        "identifier": [
          {
            "type": {
              "coding": [
                {
                  "code": "PT",
                  "system": "http://terminology.hl7.org/CodeSystem/v2-0203"
                }
              ]
            },
            "system": "http://ec.europa.eu/identifier/eci",
            "value": "4754-874768-3"
          },
          {
            "type": {
              "coding": [
                {
                  "code": "MR",
                  "system": "http://terminology.hl7.org/CodeSystem/v2-0203"
                }
              ]
            },
            "system": "http://local.setting.eu/identifier",
            "value": "4b888823-bdd8-59a3-b785-e7ba28e6a7b5"
          }
        ],
        "name": [
          {
            "family": "Fanucci"
          },
          {
            "given": [
              "Alessio"
            ]
          },
          {
            "text": "Alessio Fanucci"
          }
        ],
        "address": [
          {
            "line": [
              "Incrocio Combi, 822"
            ],
            "use": "home",
            "type": "physical",
            "postalCode": "33015",
            "city": "Moggio Udinese",
            "country": "Italy"
          }
        ],
        "telecom": [
          {
            "system": "phone",
            "value": "0125684636"
          }
        ],
        "extension": [
          {
            "url": "http://hl7.org/fhir/StructureDefinition/patient-nationality",
            "valueCodeableConcept": {
              "coding": [
                {
                  "code": "IT",
                  "system": "http://hl7.org/fhir/ValueSet/country"
                }
              ]
            }
          }
        ],
        "text": {
          "status": "generated",
          "div": "<div xmlns=\"http://www.w3.org/1999/xhtml\"><table class=\"hl7__ips\"><tr><td>Alessio Fanucci</td><td>male</td><td>12-Sep-1964</td></tr></table></div>"
        },
        "gender": "male",
        "birthDate": "1964-09-12"
      }
    },
    {
      "fullUrl": "urn:uuid:f2052c73-7da6-4f75-9f81-04e09b81dcac",
      "resource": {
        "resourceType": "ServiceRequest",
        "id": "f2052c73-7da6-4f75-9f81-04e09b81dcac",
        "meta": {
          "profile": [
            "http://hl7.eu/fhir/laboratory/StructureDefinition/ServiceRequest-eu-lab"
          ]
        },
        "identifier": [
          {
            "system": "http://example.org",
            "value": "6126d60d-4011-47d0-ab22-d82a7c333b4c"
          }
        ],
        "specimen": [
          {
            "reference": "urn:uuid:2c06f71f-cbcb-4842-bd48-4839d4220f1f"
          }
        ],
        "reasonCode": [
          {
            "coding": [
              {
                "code": "15777000",
                "system": "http://snomed.info/sct",
                "display": "Prediabetes"
              }
            ]
          },
          {
            "coding": [
              {
                "code": "271737000",
                "system": "http://snomed.info/sct",
                "display": "Anemia"
              }
            ]
          },
          {
            "coding": [
              {
                "code": "40055000",
                "system": "http://snomed.info/sct",
                "display": "Chronic sinusitis"
              }
            ]
          }
        ],
        "status": "active",
        "intent": "order",
        "code": {
          "coding": [
            {
              "code": "108252007",
              "system": "http://snomed.info/sct",
              "display": "Laboratory procedure"
            }
          ]
        },
        "subject": {
          "reference": "urn:uuid:90d19f70-afa3-446f-8f17-d95f9e36aafe",
          "display": "Alessio Fanucci"
        },
        "requester": {
          "reference": "urn:uuid:a71db798-803a-4a7d-ba8f-5c2427528c2f"
        }
      }
    },
    {
      "fullUrl": "urn:uuid:a71db798-803a-4a7d-ba8f-5c2427528c2f",
      "resource": {
        "resourceType": "PractitionerRole",
        "id": "a71db798-803a-4a7d-ba8f-5c2427528c2f",
        "meta": {
          "profile": [
            "http://hl7.eu/fhir/base/StructureDefinition/practitionerRole-eu"
          ]
        },
        "text": {
          "status": "generated",
          "div": "<div xmlns=\"http://www.w3.org/1999/xhtml\">Provider Role Id: a71db798-803a-4a7d-ba8f-5c2427528c2f</div>"
        },
        "organization": {
          "reference": "urn:uuid:946e1681-18d7-4caf-8353-33a3c7d5d1f3"
        }
      }
    },
    {
      "fullUrl": "urn:uuid:946e1681-18d7-4caf-8353-33a3c7d5d1f3",
      "resource": {
        "resourceType": "Organization",
        "id": "946e1681-18d7-4caf-8353-33a3c7d5d1f3",
        "meta": {
          "profile": [
            "http://hl7.eu/fhir/base/StructureDefinition/organization-eu"
          ]
        },
        "identifier": [
          {
            "assigner": {
              "display": "HL7 Europe"
            },
            "system": "urn:oid:2.16.840.1.113883.2.51.999",
            "value": "143522ff-bfda-44a0-908d-b5adb679d9e0"
          }
        ],
        "address": [
          {
            "city": "Artegna",
            "postalCode": "33011",
            "country": "Italy"
          }
        ],
        "text": {
          "status": "generated",
          "div": "<div xmlns=\"http://www.w3.org/1999/xhtml\">Provider Organization: Ambulatori</div>"
        },
        "name": "Ambulatori"
      }
    },
    {
      "fullUrl": "urn:uuid:2c06f71f-cbcb-4842-bd48-4839d4220f1f",
      "resource": {
        "resourceType": "Specimen",
        "id": "2c06f71f-cbcb-4842-bd48-4839d4220f1f",
        "meta": {
          "profile": [
            "http://hl7.eu/fhir/laboratory/StructureDefinition/Specimen-eu-lab"
          ]
        },
        "collection": {
          "collectedDateTime": "2017-03-20"
        },
        "text": {
          "status": "generated",
          "div": "<div xmlns=\"http://www.w3.org/1999/xhtml\"><table class=\"hl7__eu__lab__report\"><tr><th>Specimen</th><th>Collection Date</th></tr><tr><td>Whole blood specimen (specimen)</td><td><span class=\"nb\">20-Mar-2017</span></td></tr></table></div>"
        },
        "type": {
          "coding": [
            {
              "code": "258580003",
              "system": "http://snomed.info/sct",
              "display": "Whole blood specimen (specimen)"
            }
          ]
        }
      }
    },
    {
      "fullUrl": "urn:uuid:2c06f71f-cbcb-4842-bd48-4839d4220f1f",
      "resource": {
        "resourceType": "Specimen",
        "id": "2c06f71f-cbcb-4842-bd48-4839d4220f1f",
        "meta": {
          "profile": [
            "http://hl7.eu/fhir/laboratory/StructureDefinition/Specimen-eu-lab"
          ]
        },
        "collection": {
          "collectedDateTime": "2017-03-20"
        },
        "text": {
          "status": "generated",
          "div": "<div xmlns=\"http://www.w3.org/1999/xhtml\"><table class=\"hl7__eu__lab__report\"><tr><th>Specimen</th><th>Collection Date</th></tr><tr><td>Whole blood specimen (specimen)</td><td><span class=\"nb\">20-Mar-2017</span></td></tr></table></div>"
        },
        "type": {
          "coding": [
            {
              "code": "258580003",
              "system": "http://snomed.info/sct",
              "display": "Whole blood specimen (specimen)"
            }
          ]
        }
      }
    },
    {
      "fullUrl": "urn:uuid:586de0cd-96ac-4b25-a254-bcd3cf096d9d",
      "resource": {
        "resourceType": "Observation",
        "id": "586de0cd-96ac-4b25-a254-bcd3cf096d9d",
        "meta": {
          "profile": [
            "http://hl7.eu/fhir/laboratory/StructureDefinition/Observation-resultslab-eu-lab"
          ]
        },
        "performer": [
          {
            "display": "The Central European Lab"
          }
        ],
        "category": [
          {
            "coding": [
              {
                "system": "http://terminology.hl7.org/CodeSystem/observation-category",
                "code": "laboratory"
              }
            ]
          }
        ],
        "code": {
          "coding": [
            {
              "code": "4548-4",
              "system": "http://loinc.org",
              "display": "Hemoglobin A1c/Hemoglobin.total in Blood"
            }
          ],
          "text": "Hemoglobin A1c/Hemoglobin.total in Blood"
        },
        "valueQuantity": {
          "system": "http://unitsofmeasure.org",
          "value": 6.1,
          "unit": "%",
          "code": "%"
        },
        "referenceRange": [
          {
            "low": {
              "value": 4,
              "code": "%",
              "system": "http://unitsofmeasure.org"
            }
          },
          {
            "high": {
              "value": 6,
              "code": "%",
              "system": "http://unitsofmeasure.org"
            }
          }
        ],
        "interpretation": [
          {
            "coding": [
              {
                "code": "H",
                "system": "http://terminology.hl7.org/CodeSystem/v3-ObservationInterpretation",
                "display": "High"
              }
            ]
          }
        ],
        "text": {
          "status": "generated",
          "div": "<div xmlns=\"http://www.w3.org/1999/xhtml\"><table class=\"hl7__eu__lab__report\"><tr><th>Test</th><th>20-Mar-2017</th><th>Reference&#xA0;Range</th><th>Unit</th></tr><tr><td>Hemoglobin A1c/Hemoglobin.total in Blood</td><td>6.1</td><td>4 - 6</td><td>H</td><td>%</td></tr></table></div>"
        },
        "status": "final",
        "subject": {
          "reference": "urn:uuid:90d19f70-afa3-446f-8f17-d95f9e36aafe",
          "display": "Alessio Fanucci"
        },
        "effectiveDateTime": "2017-03-20T07:49:06Z",
        "specimen": {
          "reference": "urn:uuid:2c06f71f-cbcb-4842-bd48-4839d4220f1f"
        }
      }
    },
    {
      "fullUrl": "urn:uuid:eb02f40e-f89b-4029-bc08-42c6f3aea4e1",
      "resource": {
        "resourceType": "Observation",
        "id": "eb02f40e-f89b-4029-bc08-42c6f3aea4e1",
        "meta": {
          "profile": [
            "http://hl7.eu/fhir/laboratory/StructureDefinition/Observation-resultslab-eu-lab"
          ]
        },
        "performer": [
          {
            "display": "The Central European Lab"
          }
        ],
        "category": [
          {
            "coding": [
              {
                "system": "http://terminology.hl7.org/CodeSystem/observation-category",
                "code": "laboratory"
              }
            ]
          }
        ],
        "code": {
          "coding": [
            {
              "code": "2339-0",
              "system": "http://loinc.org",
              "display": "Glucose [Mass/volume] in Blood"
            }
          ],
          "text": "Glucose [Mass/volume] in Blood"
        },
        "valueQuantity": {
          "system": "http://unitsofmeasure.org",
          "value": 96.9,
          "unit": "mg/dL",
          "code": "mg/dL"
        },
        "referenceRange": [
          {
            "low": {
              "value": 70,
              "code": "mg/dL",
              "system": "http://unitsofmeasure.org"
            }
          },
          {
            "high": {
              "value": 140,
              "code": "mg/dL",
              "system": "http://unitsofmeasure.org"
            }
          }
        ],
        "text": {
          "status": "generated",
          "div": "<div xmlns=\"http://www.w3.org/1999/xhtml\"><table class=\"hl7__eu__lab__report\"><tr><th>Test</th><th>20-Mar-2017</th><th>Reference&#xA0;Range</th><th>Unit</th></tr><tr><td>Glucose [Mass/volume] in Blood</td><td>96.9</td><td>70 - 140</td><td></td><td>mg/dL</td></tr></table></div>"
        },
        "status": "final",
        "subject": {
          "reference": "urn:uuid:90d19f70-afa3-446f-8f17-d95f9e36aafe",
          "display": "Alessio Fanucci"
        },
        "effectiveDateTime": "2017-03-20T07:49:06Z",
        "specimen": {
          "reference": "urn:uuid:2c06f71f-cbcb-4842-bd48-4839d4220f1f"
        }
      }
    },
    {
      "fullUrl": "urn:uuid:61462472-cc4e-4a4e-891a-001a392d5e65",
      "resource": {
        "resourceType": "Observation",
        "id": "61462472-cc4e-4a4e-891a-001a392d5e65",
        "meta": {
          "profile": [
            "http://hl7.eu/fhir/laboratory/StructureDefinition/Observation-resultslab-eu-lab"
          ]
        },
        "performer": [
          {
            "display": "The Central European Lab"
          }
        ],
        "category": [
          {
            "coding": [
              {
                "system": "http://terminology.hl7.org/CodeSystem/observation-category",
                "code": "laboratory"
              }
            ]
          }
        ],
        "code": {
          "coding": [
            {
              "code": "6299-2",
              "system": "http://loinc.org",
              "display": "Urea nitrogen [Mass/volume] in Blood"
            }
          ],
          "text": "Urea nitrogen [Mass/volume] in Blood"
        },
        "valueQuantity": {
          "system": "http://unitsofmeasure.org",
          "value": 17.8,
          "unit": "mg/dL",
          "code": "mg/dL"
        },
        "referenceRange": [
          {
            "low": {
              "value": 7,
              "code": "mg/dL",
              "system": "http://unitsofmeasure.org"
            }
          },
          {
            "high": {
              "value": 20,
              "code": "mg/dL",
              "system": "http://unitsofmeasure.org"
            }
          }
        ],
        "text": {
          "status": "generated",
          "div": "<div xmlns=\"http://www.w3.org/1999/xhtml\"><table class=\"hl7__eu__lab__report\"><tr><th>Test</th><th>20-Mar-2017</th><th>Reference&#xA0;Range</th><th>Unit</th></tr><tr><td>Urea nitrogen [Mass/volume] in Blood</td><td>17.8</td><td>7 - 20</td><td></td><td>mg/dL</td></tr></table></div>"
        },
        "status": "final",
        "subject": {
          "reference": "urn:uuid:90d19f70-afa3-446f-8f17-d95f9e36aafe",
          "display": "Alessio Fanucci"
        },
        "effectiveDateTime": "2017-03-20T07:49:06Z",
        "specimen": {
          "reference": "urn:uuid:2c06f71f-cbcb-4842-bd48-4839d4220f1f"
        }
      }
    },
    {
      "fullUrl": "urn:uuid:4d82e1c8-7b2b-4cec-82d6-453680488d43",
      "resource": {
        "resourceType": "Observation",
        "id": "4d82e1c8-7b2b-4cec-82d6-453680488d43",
        "meta": {
          "profile": [
            "http://hl7.eu/fhir/laboratory/StructureDefinition/Observation-resultslab-eu-lab"
          ]
        },
        "performer": [
          {
            "display": "The Central European Lab"
          }
        ],
        "category": [
          {
            "coding": [
              {
                "system": "http://terminology.hl7.org/CodeSystem/observation-category",
                "code": "laboratory"
              }
            ]
          }
        ],
        "code": {
          "coding": [
            {
              "code": "38483-4",
              "system": "http://loinc.org",
              "display": "Creatinine [Mass/volume] in Blood"
            }
          ],
          "text": "Creatinine [Mass/volume] in Blood"
        },
        "valueQuantity": {
          "system": "http://unitsofmeasure.org",
          "value": 0.9,
          "unit": "mg/dL",
          "code": "mg/dL"
        },
        "referenceRange": [
          {
            "low": {
              "value": 0.9,
              "code": "mg/dL",
              "system": "http://unitsofmeasure.org"
            }
          },
          {
            "high": {
              "value": 1.3,
              "code": "mg/dL",
              "system": "http://unitsofmeasure.org"
            }
          }
        ],
        "text": {
          "status": "generated",
          "div": "<div xmlns=\"http://www.w3.org/1999/xhtml\"><table class=\"hl7__eu__lab__report\"><tr><th>Test</th><th>20-Mar-2017</th><th>Reference&#xA0;Range</th><th>Unit</th></tr><tr><td>Creatinine [Mass/volume] in Blood</td><td>0.9</td><td>0.9 - 1.3</td><td></td><td>mg/dL</td></tr></table></div>"
        },
        "status": "final",
        "subject": {
          "reference": "urn:uuid:90d19f70-afa3-446f-8f17-d95f9e36aafe",
          "display": "Alessio Fanucci"
        },
        "effectiveDateTime": "2017-03-20T07:49:06Z",
        "specimen": {
          "reference": "urn:uuid:2c06f71f-cbcb-4842-bd48-4839d4220f1f"
        }
      }
    },
    {
      "fullUrl": "urn:uuid:d6232b7b-7b1d-425a-9d25-2bf9ac4ca3de",
      "resource": {
        "resourceType": "Observation",
        "id": "d6232b7b-7b1d-425a-9d25-2bf9ac4ca3de",
        "meta": {
          "profile": [
            "http://hl7.eu/fhir/laboratory/StructureDefinition/Observation-resultslab-eu-lab"
          ]
        },
        "performer": [
          {
            "display": "The Central European Lab"
          }
        ],
        "category": [
          {
            "coding": [
              {
                "system": "http://terminology.hl7.org/CodeSystem/observation-category",
                "code": "laboratory"
              }
            ]
          }
        ],
        "code": {
          "coding": [
            {
              "code": "49765-1",
              "system": "http://loinc.org",
              "display": "Calcium [Mass/volume] in Blood"
            }
          ],
          "text": "Calcium [Mass/volume] in Blood"
        },
        "valueQuantity": {
          "system": "http://unitsofmeasure.org",
          "value": 9.4,
          "unit": "mg/dL",
          "code": "mg/dL"
        },
        "referenceRange": [
          {
            "low": {
              "value": 8.5,
              "code": "mg/dL",
              "system": "http://unitsofmeasure.org"
            }
          },
          {
            "high": {
              "value": 10.5,
              "code": "mg/dL",
              "system": "http://unitsofmeasure.org"
            }
          }
        ],
        "text": {
          "status": "generated",
          "div": "<div xmlns=\"http://www.w3.org/1999/xhtml\"><table class=\"hl7__eu__lab__report\"><tr><th>Test</th><th>20-Mar-2017</th><th>Reference&#xA0;Range</th><th>Unit</th></tr><tr><td>Calcium [Mass/volume] in Blood</td><td>9.4</td><td>8.5 - 10.5</td><td></td><td>mg/dL</td></tr></table></div>"
        },
        "status": "final",
        "subject": {
          "reference": "urn:uuid:90d19f70-afa3-446f-8f17-d95f9e36aafe",
          "display": "Alessio Fanucci"
        },
        "effectiveDateTime": "2017-03-20T07:49:06Z",
        "specimen": {
          "reference": "urn:uuid:2c06f71f-cbcb-4842-bd48-4839d4220f1f"
        }
      }
    },
    {
      "fullUrl": "urn:uuid:8668eefa-0239-4259-8dba-daf87634906e",
      "resource": {
        "resourceType": "Observation",
        "id": "8668eefa-0239-4259-8dba-daf87634906e",
        "meta": {
          "profile": [
            "http://hl7.eu/fhir/laboratory/StructureDefinition/Observation-resultslab-eu-lab"
          ]
        },
        "performer": [
          {
            "display": "The Central European Lab"
          }
        ],
        "category": [
          {
            "coding": [
              {
                "system": "http://terminology.hl7.org/CodeSystem/observation-category",
                "code": "laboratory"
              }
            ]
          }
        ],
        "code": {
          "coding": [
            {
              "code": "2947-0",
              "system": "http://loinc.org",
              "display": "Sodium [Moles/volume] in Blood"
            }
          ],
          "text": "Sodium [Moles/volume] in Blood"
        },
        "valueQuantity": {
          "system": "http://unitsofmeasure.org",
          "value": 142.7,
          "unit": "mmol/L",
          "code": "mmol/L"
        },
        "referenceRange": [
          {
            "low": {
              "value": 135,
              "code": "mmol/L",
              "system": "http://unitsofmeasure.org"
            }
          },
          {
            "high": {
              "value": 145,
              "code": "mmol/L",
              "system": "http://unitsofmeasure.org"
            }
          }
        ],
        "text": {
          "status": "generated",
          "div": "<div xmlns=\"http://www.w3.org/1999/xhtml\"><table class=\"hl7__eu__lab__report\"><tr><th>Test</th><th>20-Mar-2017</th><th>Reference&#xA0;Range</th><th>Unit</th></tr><tr><td>Sodium [Moles/volume] in Blood</td><td>142.7</td><td>135 - 145</td><td></td><td>mmol/L</td></tr></table></div>"
        },
        "status": "final",
        "subject": {
          "reference": "urn:uuid:90d19f70-afa3-446f-8f17-d95f9e36aafe",
          "display": "Alessio Fanucci"
        },
        "effectiveDateTime": "2017-03-20T07:49:06Z",
        "specimen": {
          "reference": "urn:uuid:2c06f71f-cbcb-4842-bd48-4839d4220f1f"
        }
      }
    },
    {
      "fullUrl": "urn:uuid:7ca73c3a-ae6f-4be7-8c81-1342a0886ed0",
      "resource": {
        "resourceType": "Observation",
        "id": "7ca73c3a-ae6f-4be7-8c81-1342a0886ed0",
        "meta": {
          "profile": [
            "http://hl7.eu/fhir/laboratory/StructureDefinition/Observation-resultslab-eu-lab"
          ]
        },
        "performer": [
          {
            "display": "The Central European Lab"
          }
        ],
        "category": [
          {
            "coding": [
              {
                "system": "http://terminology.hl7.org/CodeSystem/observation-category",
                "code": "laboratory"
              }
            ]
          }
        ],
        "code": {
          "coding": [
            {
              "code": "6298-4",
              "system": "http://loinc.org",
              "display": "Potassium [Moles/volume] in Blood"
            }
          ],
          "text": "Potassium [Moles/volume] in Blood"
        },
        "valueQuantity": {
          "system": "http://unitsofmeasure.org",
          "value": 4,
          "unit": "mmol/L",
          "code": "mmol/L"
        },
        "referenceRange": [
          {
            "low": {
              "value": 3.5,
              "code": "mmol/L",
              "system": "http://unitsofmeasure.org"
            }
          },
          {
            "high": {
              "value": 5,
              "code": "mmol/L",
              "system": "http://unitsofmeasure.org"
            }
          }
        ],
        "text": {
          "status": "generated",
          "div": "<div xmlns=\"http://www.w3.org/1999/xhtml\"><table class=\"hl7__eu__lab__report\"><tr><th>Test</th><th>20-Mar-2017</th><th>Reference&#xA0;Range</th><th>Unit</th></tr><tr><td>Potassium [Moles/volume] in Blood</td><td>4.0</td><td>3.5 - 5</td><td></td><td>mmol/L</td></tr></table></div>"
        },
        "status": "final",
        "subject": {
          "reference": "urn:uuid:90d19f70-afa3-446f-8f17-d95f9e36aafe",
          "display": "Alessio Fanucci"
        },
        "effectiveDateTime": "2017-03-20T07:49:06Z",
        "specimen": {
          "reference": "urn:uuid:2c06f71f-cbcb-4842-bd48-4839d4220f1f"
        }
      }
    },
    {
      "fullUrl": "urn:uuid:1bc9d45e-00a1-4877-8128-34c303dbc97c",
      "resource": {
        "resourceType": "Observation",
        "id": "1bc9d45e-00a1-4877-8128-34c303dbc97c",
        "meta": {
          "profile": [
            "http://hl7.eu/fhir/laboratory/StructureDefinition/Observation-resultslab-eu-lab"
          ]
        },
        "performer": [
          {
            "display": "The Central European Lab"
          }
        ],
        "category": [
          {
            "coding": [
              {
                "system": "http://terminology.hl7.org/CodeSystem/observation-category",
                "code": "laboratory"
              }
            ]
          }
        ],
        "code": {
          "coding": [
            {
              "code": "2069-3",
              "system": "http://loinc.org",
              "display": "Chloride [Moles/volume] in Blood"
            }
          ],
          "text": "Chloride [Moles/volume] in Blood"
        },
        "valueQuantity": {
          "system": "http://unitsofmeasure.org",
          "value": 106.8,
          "unit": "mmol/L",
          "code": "mmol/L"
        },
        "referenceRange": [
          {
            "low": {
              "value": 98,
              "code": "mmol/L",
              "system": "http://unitsofmeasure.org"
            }
          },
          {
            "high": {
              "value": 110,
              "code": "mmol/L",
              "system": "http://unitsofmeasure.org"
            }
          }
        ],
        "text": {
          "status": "generated",
          "div": "<div xmlns=\"http://www.w3.org/1999/xhtml\"><table class=\"hl7__eu__lab__report\"><tr><th>Test</th><th>20-Mar-2017</th><th>Reference&#xA0;Range</th><th>Unit</th></tr><tr><td>Chloride [Moles/volume] in Blood</td><td>106.8</td><td>98 - 110</td><td></td><td>mmol/L</td></tr></table></div>"
        },
        "status": "final",
        "subject": {
          "reference": "urn:uuid:90d19f70-afa3-446f-8f17-d95f9e36aafe",
          "display": "Alessio Fanucci"
        },
        "effectiveDateTime": "2017-03-20T07:49:06Z",
        "specimen": {
          "reference": "urn:uuid:2c06f71f-cbcb-4842-bd48-4839d4220f1f"
        }
      }
    },
    {
      "fullUrl": "urn:uuid:f225decd-b3d4-4d35-8152-3aa89630bdd9",
      "resource": {
        "resourceType": "Observation",
        "id": "f225decd-b3d4-4d35-8152-3aa89630bdd9",
        "meta": {
          "profile": [
            "http://hl7.eu/fhir/laboratory/StructureDefinition/Observation-resultslab-eu-lab"
          ]
        },
        "performer": [
          {
            "display": "The Central European Lab"
          }
        ],
        "category": [
          {
            "coding": [
              {
                "system": "http://terminology.hl7.org/CodeSystem/observation-category",
                "code": "laboratory"
              }
            ]
          }
        ],
        "code": {
          "coding": [
            {
              "code": "20565-8",
              "system": "http://loinc.org",
              "display": "Carbon dioxide, total [Moles/volume] in Blood"
            }
          ],
          "text": "Carbon dioxide, total [Moles/volume] in Blood"
        },
        "valueQuantity": {
          "system": "http://unitsofmeasure.org",
          "value": 23.3,
          "unit": "mmol/L",
          "code": "mmol/L"
        },
        "referenceRange": [
          {
            "low": {
              "value": 22,
              "code": "mmol/L",
              "system": "http://unitsofmeasure.org"
            }
          },
          {
            "high": {
              "value": 32,
              "code": "mmol/L",
              "system": "http://unitsofmeasure.org"
            }
          }
        ],
        "text": {
          "status": "generated",
          "div": "<div xmlns=\"http://www.w3.org/1999/xhtml\"><table class=\"hl7__eu__lab__report\"><tr><th>Test</th><th>20-Mar-2017</th><th>Reference&#xA0;Range</th><th>Unit</th></tr><tr><td>Carbon dioxide, total [Moles/volume] in Blood</td><td>23.3</td><td>22 - 32</td><td></td><td>mmol/L</td></tr></table></div>"
        },
        "status": "final",
        "subject": {
          "reference": "urn:uuid:90d19f70-afa3-446f-8f17-d95f9e36aafe",
          "display": "Alessio Fanucci"
        },
        "effectiveDateTime": "2017-03-20T07:49:06Z",
        "specimen": {
          "reference": "urn:uuid:2c06f71f-cbcb-4842-bd48-4839d4220f1f"
        }
      }
    },
    {
      "fullUrl": "urn:uuid:2210b9e0-f400-481e-aa9e-c7bd6599989d",
      "resource": {
        "resourceType": "Observation",
        "id": "2210b9e0-f400-481e-aa9e-c7bd6599989d",
        "meta": {
          "profile": [
            "http://hl7.eu/fhir/laboratory/StructureDefinition/Observation-resultslab-eu-lab"
          ]
        },
        "performer": [
          {
            "display": "The Central European Lab"
          }
        ],
        "category": [
          {
            "coding": [
              {
                "system": "http://terminology.hl7.org/CodeSystem/observation-category",
                "code": "laboratory"
              }
            ]
          }
        ],
        "code": {
          "coding": [
            {
              "code": "6690-2",
              "system": "http://loinc.org",
              "display": "Leukocytes [#/volume] in Blood by Automated count"
            }
          ],
          "text": "Leukocytes [#/volume] in Blood by Automated count"
        },
        "valueQuantity": {
          "system": "http://unitsofmeasure.org",
          "value": 10.4,
          "unit": "10*3/uL",
          "code": "10*3/uL"
        },
        "referenceRange": [
          {
            "low": {
              "value": 4,
              "code": "10*3/uL",
              "system": "http://unitsofmeasure.org"
            }
          },
          {
            "high": {
              "value": 11,
              "code": "10*3/uL",
              "system": "http://unitsofmeasure.org"
            }
          }
        ],
        "text": {
          "status": "generated",
          "div": "<div xmlns=\"http://www.w3.org/1999/xhtml\"><table class=\"hl7__eu__lab__report\"><tr><th>Test</th><th>20-Mar-2017</th><th>Reference&#xA0;Range</th><th>Unit</th></tr><tr><td>Leukocytes [#/volume] in Blood by Automated count</td><td>10.4</td><td>4 - 11</td><td></td><td>10*3/uL</td></tr></table></div>"
        },
        "status": "final",
        "subject": {
          "reference": "urn:uuid:90d19f70-afa3-446f-8f17-d95f9e36aafe",
          "display": "Alessio Fanucci"
        },
        "effectiveDateTime": "2017-03-20T07:49:06Z",
        "specimen": {
          "reference": "urn:uuid:2c06f71f-cbcb-4842-bd48-4839d4220f1f"
        }
      }
    },
    {
      "fullUrl": "urn:uuid:6260d143-e7b4-43ab-a1db-e15769df55b4",
      "resource": {
        "resourceType": "Observation",
        "id": "6260d143-e7b4-43ab-a1db-e15769df55b4",
        "meta": {
          "profile": [
            "http://hl7.eu/fhir/laboratory/StructureDefinition/Observation-resultslab-eu-lab"
          ]
        },
        "performer": [
          {
            "display": "The Central European Lab"
          }
        ],
        "category": [
          {
            "coding": [
              {
                "system": "http://terminology.hl7.org/CodeSystem/observation-category",
                "code": "laboratory"
              }
            ]
          }
        ],
        "code": {
          "coding": [
            {
              "code": "789-8",
              "system": "http://loinc.org",
              "display": "Erythrocytes [#/volume] in Blood by Automated count"
            }
          ],
          "text": "Erythrocytes [#/volume] in Blood by Automated count"
        },
        "valueQuantity": {
          "system": "http://unitsofmeasure.org",
          "value": 4.4,
          "unit": "10*6/uL",
          "code": "10*6/uL"
        },
        "referenceRange": [
          {
            "low": {
              "value": 4.2,
              "code": "10*6/uL",
              "system": "http://unitsofmeasure.org"
            }
          },
          {
            "high": {
              "value": 6.2,
              "code": "10*6/uL",
              "system": "http://unitsofmeasure.org"
            }
          }
        ],
        "text": {
          "status": "generated",
          "div": "<div xmlns=\"http://www.w3.org/1999/xhtml\"><table class=\"hl7__eu__lab__report\"><tr><th>Test</th><th>20-Mar-2017</th><th>Reference&#xA0;Range</th><th>Unit</th></tr><tr><td>Erythrocytes [#/volume] in Blood by Automated count</td><td>4.4</td><td>4.2 - 6.2</td><td></td><td>10*6/uL</td></tr></table></div>"
        },
        "status": "final",
        "subject": {
          "reference": "urn:uuid:90d19f70-afa3-446f-8f17-d95f9e36aafe",
          "display": "Alessio Fanucci"
        },
        "effectiveDateTime": "2017-03-20T07:49:06Z",
        "specimen": {
          "reference": "urn:uuid:2c06f71f-cbcb-4842-bd48-4839d4220f1f"
        }
      }
    },
    {
      "fullUrl": "urn:uuid:77983262-dd10-4bd4-a9b4-52a0e36905fd",
      "resource": {
        "resourceType": "Observation",
        "id": "77983262-dd10-4bd4-a9b4-52a0e36905fd",
        "meta": {
          "profile": [
            "http://hl7.eu/fhir/laboratory/StructureDefinition/Observation-resultslab-eu-lab"
          ]
        },
        "performer": [
          {
            "display": "The Central European Lab"
          }
        ],
        "category": [
          {
            "coding": [
              {
                "system": "http://terminology.hl7.org/CodeSystem/observation-category",
                "code": "laboratory"
              }
            ]
          }
        ],
        "code": {
          "coding": [
            {
              "code": "718-7",
              "system": "http://loinc.org",
              "display": "Hemoglobin [Mass/volume] in Blood"
            }
          ],
          "text": "Hemoglobin [Mass/volume] in Blood"
        },
        "valueQuantity": {
          "system": "http://unitsofmeasure.org",
          "value": 12.2,
          "unit": "g/dL",
          "code": "g/dL"
        },
        "referenceRange": [
          {
            "low": {
              "value": 13.5,
              "code": "g/dL",
              "system": "http://unitsofmeasure.org"
            }
          },
          {
            "high": {
              "value": 17.5,
              "code": "g/dL",
              "system": "http://unitsofmeasure.org"
            }
          }
        ],
        "interpretation": [
          {
            "coding": [
              {
                "code": "L",
                "system": "http://terminology.hl7.org/CodeSystem/v3-ObservationInterpretation",
                "display": "Low"
              }
            ]
          }
        ],
        "text": {
          "status": "generated",
          "div": "<div xmlns=\"http://www.w3.org/1999/xhtml\"><table class=\"hl7__eu__lab__report\"><tr><th>Test</th><th>20-Mar-2017</th><th>Reference&#xA0;Range</th><th>Unit</th></tr><tr><td>Hemoglobin [Mass/volume] in Blood</td><td>12.2</td><td>13.5 - 17.5</td><td>L</td><td>g/dL</td></tr></table></div>"
        },
        "status": "final",
        "subject": {
          "reference": "urn:uuid:90d19f70-afa3-446f-8f17-d95f9e36aafe",
          "display": "Alessio Fanucci"
        },
        "effectiveDateTime": "2017-03-20T07:49:06Z",
        "specimen": {
          "reference": "urn:uuid:2c06f71f-cbcb-4842-bd48-4839d4220f1f"
        }
      }
    },
    {
      "fullUrl": "urn:uuid:c6183c40-5bcb-46b7-94a1-55f68a391962",
      "resource": {
        "resourceType": "Observation",
        "id": "c6183c40-5bcb-46b7-94a1-55f68a391962",
        "meta": {
          "profile": [
            "http://hl7.eu/fhir/laboratory/StructureDefinition/Observation-resultslab-eu-lab"
          ]
        },
        "performer": [
          {
            "display": "The Central European Lab"
          }
        ],
        "category": [
          {
            "coding": [
              {
                "system": "http://terminology.hl7.org/CodeSystem/observation-category",
                "code": "laboratory"
              }
            ]
          }
        ],
        "code": {
          "coding": [
            {
              "code": "4544-3",
              "system": "http://loinc.org",
              "display": "Hematocrit [Volume Fraction] of Blood by Automated count"
            }
          ],
          "text": "Hematocrit [Volume Fraction] of Blood by Automated count"
        },
        "valueQuantity": {
          "system": "http://unitsofmeasure.org",
          "value": 42.9,
          "unit": "%",
          "code": "%"
        },
        "referenceRange": [
          {
            "low": {
              "value": 38,
              "code": "%",
              "system": "http://unitsofmeasure.org"
            }
          },
          {
            "high": {
              "value": 50,
              "code": "%",
              "system": "http://unitsofmeasure.org"
            }
          }
        ],
        "text": {
          "status": "generated",
          "div": "<div xmlns=\"http://www.w3.org/1999/xhtml\"><table class=\"hl7__eu__lab__report\"><tr><th>Test</th><th>20-Mar-2017</th><th>Reference&#xA0;Range</th><th>Unit</th></tr><tr><td>Hematocrit [Volume Fraction] of Blood by Automated count</td><td>42.9</td><td>38 - 50</td><td></td><td>%</td></tr></table></div>"
        },
        "status": "final",
        "subject": {
          "reference": "urn:uuid:90d19f70-afa3-446f-8f17-d95f9e36aafe",
          "display": "Alessio Fanucci"
        },
        "effectiveDateTime": "2017-03-20T07:49:06Z",
        "specimen": {
          "reference": "urn:uuid:2c06f71f-cbcb-4842-bd48-4839d4220f1f"
        }
      }
    },
    {
      "fullUrl": "urn:uuid:da3ee514-4577-4600-a5e9-da98aab6fc8c",
      "resource": {
        "resourceType": "Observation",
        "id": "da3ee514-4577-4600-a5e9-da98aab6fc8c",
        "meta": {
          "profile": [
            "http://hl7.eu/fhir/laboratory/StructureDefinition/Observation-resultslab-eu-lab"
          ]
        },
        "performer": [
          {
            "display": "The Central European Lab"
          }
        ],
        "category": [
          {
            "coding": [
              {
                "system": "http://terminology.hl7.org/CodeSystem/observation-category",
                "code": "laboratory"
              }
            ]
          }
        ],
        "code": {
          "coding": [
            {
              "code": "787-2",
              "system": "http://loinc.org",
              "display": "MCV [Entitic volume] by Automated count"
            }
          ],
          "text": "MCV [Entitic volume] by Automated count"
        },
        "valueQuantity": {
          "system": "http://unitsofmeasure.org",
          "value": 88.3,
          "unit": "fL",
          "code": "fL"
        },
        "referenceRange": [
          {
            "low": {
              "value": 80,
              "code": "fL",
              "system": "http://unitsofmeasure.org"
            }
          },
          {
            "high": {
              "value": 98,
              "code": "fL",
              "system": "http://unitsofmeasure.org"
            }
          }
        ],
        "text": {
          "status": "generated",
          "div": "<div xmlns=\"http://www.w3.org/1999/xhtml\"><table class=\"hl7__eu__lab__report\"><tr><th>Test</th><th>20-Mar-2017</th><th>Reference&#xA0;Range</th><th>Unit</th></tr><tr><td>MCV [Entitic volume] by Automated count</td><td>88.3</td><td>80 - 98</td><td></td><td>fL</td></tr></table></div>"
        },
        "status": "final",
        "subject": {
          "reference": "urn:uuid:90d19f70-afa3-446f-8f17-d95f9e36aafe",
          "display": "Alessio Fanucci"
        },
        "effectiveDateTime": "2017-03-20T07:49:06Z",
        "specimen": {
          "reference": "urn:uuid:2c06f71f-cbcb-4842-bd48-4839d4220f1f"
        }
      }
    },
    {
      "fullUrl": "urn:uuid:ca9a7ea3-f5c3-4dd6-a9e6-5fd3b047e8a5",
      "resource": {
        "resourceType": "Observation",
        "id": "ca9a7ea3-f5c3-4dd6-a9e6-5fd3b047e8a5",
        "meta": {
          "profile": [
            "http://hl7.eu/fhir/laboratory/StructureDefinition/Observation-resultslab-eu-lab"
          ]
        },
        "performer": [
          {
            "display": "The Central European Lab"
          }
        ],
        "category": [
          {
            "coding": [
              {
                "system": "http://terminology.hl7.org/CodeSystem/observation-category",
                "code": "laboratory"
              }
            ]
          }
        ],
        "code": {
          "coding": [
            {
              "code": "785-6",
              "system": "http://loinc.org",
              "display": "MCH [Entitic mass] by Automated count"
            }
          ],
          "text": "MCH [Entitic mass] by Automated count"
        },
        "valueQuantity": {
          "system": "http://unitsofmeasure.org",
          "value": 30.6,
          "unit": "pg",
          "code": "pg"
        },
        "referenceRange": [
          {
            "low": {
              "value": 27,
              "code": "pg",
              "system": "http://unitsofmeasure.org"
            }
          },
          {
            "high": {
              "value": 34,
              "code": "pg",
              "system": "http://unitsofmeasure.org"
            }
          }
        ],
        "text": {
          "status": "generated",
          "div": "<div xmlns=\"http://www.w3.org/1999/xhtml\"><table class=\"hl7__eu__lab__report\"><tr><th>Test</th><th>20-Mar-2017</th><th>Reference&#xA0;Range</th><th>Unit</th></tr><tr><td>MCH [Entitic mass] by Automated count</td><td>30.6</td><td>27 - 34</td><td></td><td>pg</td></tr></table></div>"
        },
        "status": "final",
        "subject": {
          "reference": "urn:uuid:90d19f70-afa3-446f-8f17-d95f9e36aafe",
          "display": "Alessio Fanucci"
        },
        "effectiveDateTime": "2017-03-20T07:49:06Z",
        "specimen": {
          "reference": "urn:uuid:2c06f71f-cbcb-4842-bd48-4839d4220f1f"
        }
      }
    },
    {
      "fullUrl": "urn:uuid:5e348999-b9f7-4d9b-af54-85a714b44338",
      "resource": {
        "resourceType": "Observation",
        "id": "5e348999-b9f7-4d9b-af54-85a714b44338",
        "meta": {
          "profile": [
            "http://hl7.eu/fhir/laboratory/StructureDefinition/Observation-resultslab-eu-lab"
          ]
        },
        "performer": [
          {
            "display": "The Central European Lab"
          }
        ],
        "category": [
          {
            "coding": [
              {
                "system": "http://terminology.hl7.org/CodeSystem/observation-category",
                "code": "laboratory"
              }
            ]
          }
        ],
        "code": {
          "coding": [
            {
              "code": "786-4",
              "system": "http://loinc.org",
              "display": "MCHC [Mass/volume] by Automated count"
            }
          ],
          "text": "MCHC [Mass/volume] by Automated count"
        },
        "valueQuantity": {
          "system": "http://unitsofmeasure.org",
          "value": 35.7,
          "unit": "g/dL",
          "code": "g/dL"
        },
        "referenceRange": [
          {
            "low": {
              "value": 31,
              "code": "g/dL",
              "system": "http://unitsofmeasure.org"
            }
          },
          {
            "high": {
              "value": 35,
              "code": "g/dL",
              "system": "http://unitsofmeasure.org"
            }
          }
        ],
        "interpretation": [
          {
            "coding": [
              {
                "code": "H",
                "system": "http://terminology.hl7.org/CodeSystem/v3-ObservationInterpretation",
                "display": "High"
              }
            ]
          }
        ],
        "text": {
          "status": "generated",
          "div": "<div xmlns=\"http://www.w3.org/1999/xhtml\"><table class=\"hl7__eu__lab__report\"><tr><th>Test</th><th>20-Mar-2017</th><th>Reference&#xA0;Range</th><th>Unit</th></tr><tr><td>MCHC [Mass/volume] by Automated count</td><td>35.7</td><td>31 - 35</td><td>H</td><td>g/dL</td></tr></table></div>"
        },
        "status": "final",
        "subject": {
          "reference": "urn:uuid:90d19f70-afa3-446f-8f17-d95f9e36aafe",
          "display": "Alessio Fanucci"
        },
        "effectiveDateTime": "2017-03-20T07:49:06Z",
        "specimen": {
          "reference": "urn:uuid:2c06f71f-cbcb-4842-bd48-4839d4220f1f"
        }
      }
    },
    {
      "fullUrl": "urn:uuid:c38cda5b-eccb-4935-ae55-075c38161626",
      "resource": {
        "resourceType": "Observation",
        "id": "c38cda5b-eccb-4935-ae55-075c38161626",
        "meta": {
          "profile": [
            "http://hl7.eu/fhir/laboratory/StructureDefinition/Observation-resultslab-eu-lab"
          ]
        },
        "performer": [
          {
            "display": "The Central European Lab"
          }
        ],
        "category": [
          {
            "coding": [
              {
                "system": "http://terminology.hl7.org/CodeSystem/observation-category",
                "code": "laboratory"
              }
            ]
          }
        ],
        "code": {
          "coding": [
            {
              "code": "21000-5",
              "system": "http://loinc.org",
              "display": "Erythrocyte distribution width [Entitic volume] by Automated count"
            }
          ],
          "text": "Erythrocyte distribution width [Entitic volume] by Automated count"
        },
        "valueQuantity": {
          "system": "http://unitsofmeasure.org",
          "value": 39.7,
          "unit": "fL",
          "code": "fL"
        },
        "referenceRange": [
          {
            "low": {
              "value": 36,
              "code": "fL",
              "system": "http://unitsofmeasure.org"
            }
          },
          {
            "high": {
              "value": 55,
              "code": "fL",
              "system": "http://unitsofmeasure.org"
            }
          }
        ],
        "text": {
          "status": "generated",
          "div": "<div xmlns=\"http://www.w3.org/1999/xhtml\"><table class=\"hl7__eu__lab__report\"><tr><th>Test</th><th>20-Mar-2017</th><th>Reference&#xA0;Range</th><th>Unit</th></tr><tr><td>Erythrocyte distribution width [Entitic volume] by Automated count</td><td>39.7</td><td>36 - 55</td><td></td><td>fL</td></tr></table></div>"
        },
        "status": "final",
        "subject": {
          "reference": "urn:uuid:90d19f70-afa3-446f-8f17-d95f9e36aafe",
          "display": "Alessio Fanucci"
        },
        "effectiveDateTime": "2017-03-20T07:49:06Z",
        "specimen": {
          "reference": "urn:uuid:2c06f71f-cbcb-4842-bd48-4839d4220f1f"
        }
      }
    },
    {
      "fullUrl": "urn:uuid:4df7af19-4f65-4b0a-8243-1b851913744d",
      "resource": {
        "resourceType": "Observation",
        "id": "4df7af19-4f65-4b0a-8243-1b851913744d",
        "meta": {
          "profile": [
            "http://hl7.eu/fhir/laboratory/StructureDefinition/Observation-resultslab-eu-lab"
          ]
        },
        "performer": [
          {
            "display": "The Central European Lab"
          }
        ],
        "category": [
          {
            "coding": [
              {
                "system": "http://terminology.hl7.org/CodeSystem/observation-category",
                "code": "laboratory"
              }
            ]
          }
        ],
        "code": {
          "coding": [
            {
              "code": "777-3",
              "system": "http://loinc.org",
              "display": "Platelets [#/volume] in Blood by Automated count"
            }
          ],
          "text": "Platelets [#/volume] in Blood by Automated count"
        },
        "valueQuantity": {
          "system": "http://unitsofmeasure.org",
          "value": 352.5,
          "unit": "10*3/uL",
          "code": "10*3/uL"
        },
        "referenceRange": [
          {
            "low": {
              "value": 140,
              "code": "10*3/uL",
              "system": "http://unitsofmeasure.org"
            }
          },
          {
            "high": {
              "value": 363,
              "code": "10*3/uL",
              "system": "http://unitsofmeasure.org"
            }
          }
        ],
        "text": {
          "status": "generated",
          "div": "<div xmlns=\"http://www.w3.org/1999/xhtml\"><table class=\"hl7__eu__lab__report\"><tr><th>Test</th><th>20-Mar-2017</th><th>Reference&#xA0;Range</th><th>Unit</th></tr><tr><td>Platelets [#/volume] in Blood by Automated count</td><td>352.5</td><td>140 - 363</td><td></td><td>10*3/uL</td></tr></table></div>"
        },
        "status": "final",
        "subject": {
          "reference": "urn:uuid:90d19f70-afa3-446f-8f17-d95f9e36aafe",
          "display": "Alessio Fanucci"
        },
        "effectiveDateTime": "2017-03-20T07:49:06Z",
        "specimen": {
          "reference": "urn:uuid:2c06f71f-cbcb-4842-bd48-4839d4220f1f"
        }
      }
    },
    {
      "fullUrl": "urn:uuid:0330cc16-ab79-4073-b29c-c031c8ced625",
      "resource": {
        "resourceType": "Observation",
        "id": "0330cc16-ab79-4073-b29c-c031c8ced625",
        "meta": {
          "profile": [
            "http://hl7.eu/fhir/laboratory/StructureDefinition/Observation-resultslab-eu-lab"
          ]
        },
        "performer": [
          {
            "display": "The Central European Lab"
          }
        ],
        "category": [
          {
            "coding": [
              {
                "system": "http://terminology.hl7.org/CodeSystem/observation-category",
                "code": "laboratory"
              }
            ]
          }
        ],
        "code": {
          "coding": [
            {
              "code": "32207-3",
              "system": "http://loinc.org",
              "display": "Platelet distribution width [Entitic volume] in Blood by Automated count"
            }
          ],
          "text": "Platelet distribution width [Entitic volume] in Blood by Automated count"
        },
        "valueQuantity": {
          "system": "http://unitsofmeasure.org",
          "value": 187.4,
          "unit": "fL",
          "code": "fL"
        },
        "referenceRange": [
          {
            "low": {
              "value": 144,
              "code": "fL",
              "system": "http://unitsofmeasure.org"
            }
          },
          {
            "high": {
              "value": 366,
              "code": "fL",
              "system": "http://unitsofmeasure.org"
            }
          }
        ],
        "text": {
          "status": "generated",
          "div": "<div xmlns=\"http://www.w3.org/1999/xhtml\"><table class=\"hl7__eu__lab__report\"><tr><th>Test</th><th>20-Mar-2017</th><th>Reference&#xA0;Range</th><th>Unit</th></tr><tr><td>Platelet distribution width [Entitic volume] in Blood by Automated count</td><td>187.4</td><td>144 - 366</td><td></td><td>fL</td></tr></table></div>"
        },
        "status": "final",
        "subject": {
          "reference": "urn:uuid:90d19f70-afa3-446f-8f17-d95f9e36aafe",
          "display": "Alessio Fanucci"
        },
        "effectiveDateTime": "2017-03-20T07:49:06Z",
        "specimen": {
          "reference": "urn:uuid:2c06f71f-cbcb-4842-bd48-4839d4220f1f"
        }
      }
    },
    {
      "fullUrl": "urn:uuid:863a4716-91c1-4cc2-8dfe-60d9739d0636",
      "resource": {
        "resourceType": "Observation",
        "id": "863a4716-91c1-4cc2-8dfe-60d9739d0636",
        "meta": {
          "profile": [
            "http://hl7.eu/fhir/laboratory/StructureDefinition/Observation-resultslab-eu-lab"
          ]
        },
        "performer": [
          {
            "display": "The Central European Lab"
          }
        ],
        "category": [
          {
            "coding": [
              {
                "system": "http://terminology.hl7.org/CodeSystem/observation-category",
                "code": "laboratory"
              }
            ]
          }
        ],
        "code": {
          "coding": [
            {
              "code": "32623-1",
              "system": "http://loinc.org",
              "display": "Platelet mean volume [Entitic volume] in Blood by Automated count"
            }
          ],
          "text": "Platelet mean volume [Entitic volume] in Blood by Automated count"
        },
        "valueQuantity": {
          "system": "http://unitsofmeasure.org",
          "value": 10.2,
          "unit": "fL",
          "code": "fL"
        },
        "referenceRange": [
          {
            "low": {
              "value": 9.4,
              "code": "fL",
              "system": "http://unitsofmeasure.org"
            }
          },
          {
            "high": {
              "value": 13.5,
              "code": "fL",
              "system": "http://unitsofmeasure.org"
            }
          }
        ],
        "text": {
          "status": "generated",
          "div": "<div xmlns=\"http://www.w3.org/1999/xhtml\"><table class=\"hl7__eu__lab__report\"><tr><th>Test</th><th>20-Mar-2017</th><th>Reference&#xA0;Range</th><th>Unit</th></tr><tr><td>Platelet mean volume [Entitic volume] in Blood by Automated count</td><td>10.2</td><td>9.4 - 13.5</td><td></td><td>fL</td></tr></table></div>"
        },
        "status": "final",
        "subject": {
          "reference": "urn:uuid:90d19f70-afa3-446f-8f17-d95f9e36aafe",
          "display": "Alessio Fanucci"
        },
        "effectiveDateTime": "2017-03-20T07:49:06Z",
        "specimen": {
          "reference": "urn:uuid:2c06f71f-cbcb-4842-bd48-4839d4220f1f"
        }
      }
    },
    {
      "fullUrl": "urn:uuid:5af5439b-803f-4b49-8c78-136e84255600",
      "resource": {
        "resourceType": "Device",
        "id": "5af5439b-803f-4b49-8c78-136e84255600",
        "deviceName": [
          {
            "name": "SYNDERAI Synthetic Generator",
            "type": "manufacturer-name"
          }
        ],
        "version": [
          {
            "value": "5.0"
          }
        ],
        "text": {
          "status": "generated",
          "div": "<div xmlns=\"http://www.w3.org/1999/xhtml\">SYNDERAI Synthetic Generator v5.0</div>"
        },
        "status": "active\"",
        "distinctIdentifier": "synderai-generator-50",
        "manufacturer": "SYNDERAI Project"
      }
    },
    {
      "fullUrl": "urn:uuid:bb17d82b-4035-42a3-8054-2a34dbd6706f",
      "resource": {
        "resourceType": "Provenance",
        "id": "bb17d82b-4035-42a3-8054-2a34dbd6706f",
        "target": [
          {
            "reference": "Patient/90d19f70-afa3-446f-8f17-d95f9e36aafe"
          },
          {
            "reference": "Bundle/a8c5e313-e08f-4014-b619-f05021d65485"
          },
          {
            "reference": "Composition/f5e568ef-1da1-4fbb-bee7-7e93432a6729"
          },
          {
            "reference": "PractitionerRole/916fe5aa-3840-408b-96c1-8f5f33aeb433"
          },
          {
            "reference": "Practitioner/e246995c-672e-428c-9326-b8fdaceaea36"
          },
          {
            "reference": "PractitionerRole/a71db798-803a-4a7d-ba8f-5c2427528c2f"
          },
          {
            "reference": "Organization/946e1681-18d7-4caf-8353-33a3c7d5d1f3"
          }
        ],
        "activity": {
          "text": "Synthetic Example Data Generation"
        },
        "policy": [
          "https://synderai.net/synderai-synthetic-data-policy"
        ],
        "agent": [
          {
            "type": {
              "text": "author"
            },
            "who": {
              "reference": "Device/5af5439b-803f-4b49-8c78-136e84255600"
            }
          }
        ],
        "reason": [
          {
            "text": "Interoperability Testing and Training (non-clinical use)"
          }
        ],
        "text": {
          "status": "generated",
          "div": "<div xmlns=\"http://www.w3.org/1999/xhtml\">Provenance for SYNDERAI Synthetic Example Data Resource</div>"
        },
        "recorded": "2017-03-20T08:49:06Z"
      }
    },
    {
      "fullUrl": "urn:uuid:916fe5aa-3840-408b-96c1-8f5f33aeb433",
      "resource": {
        "resourceType": "PractitionerRole",
        "id": "916fe5aa-3840-408b-96c1-8f5f33aeb433",
        "meta": {
          "profile": [
            "http://hl7.eu/fhir/base/StructureDefinition/practitionerRole-eu"
          ]
        },
        "text": {
          "status": "generated",
          "div": "<div xmlns=\"http://www.w3.org/1999/xhtml\">Laboratory Role Id: 916fe5aa-3840-408b-96c1-8f5f33aeb433</div>"
        },
        "practitioner": {
          "reference": "urn:uuid:e246995c-672e-428c-9326-b8fdaceaea36"
        }
      }
    },
    {
      "fullUrl": "urn:uuid:e246995c-672e-428c-9326-b8fdaceaea36",
      "resource": {
        "resourceType": "Practitioner",
        "id": "e246995c-672e-428c-9326-b8fdaceaea36",
        "meta": {
          "profile": [
            "http://hl7.eu/fhir/base/StructureDefinition/practitioner-eu"
          ]
        },
        "identifier": [
          {
            "assigner": {
              "display": "HL7 Europe"
            },
            "system": "urn:oid:2.16.840.1.113883.2.51.999",
            "value": "f3ecb625-8cd0-445f-83a6-33c23f15fb7e"
          }
        ],
        "name": [
          {
            "prefix": [
              "dr"
            ],
            "given": [
              "Ex"
            ],
            "family": "Ample"
          }
        ],
        "address": [
          {
            "line": [
              "Laboratoire Central Européenne",
              "Boulevard du Jardin Botanique 32"
            ],
            "postalCode": "1000",
            "city": "Brussels",
            "country": "Belgium"
          }
        ],
        "text": {
          "status": "generated",
          "div": "<div xmlns=\"http://www.w3.org/1999/xhtml\">Laboratory: Laboratoire Central Européenne, 1000 Brussels, Belgium</div>"
        }
      }
    }
  ],
  "type": "document",
  "timestamp": "2017-03-20T08:49:06Z"
}
