{
  "resourceType": "Bundle",
  "id": "c2229fbb-7436-46d1-8f41-86c18c561aa0",
  "meta": {
    "profile": [
      "http://hl7.eu/fhir/laboratory/StructureDefinition/Bundle-eu-lab"
    ]
  },
  "identifier": {
    "assigner": {
      "display": "HL7 Europe"
    },
    "system": "urn:oid:2.16.840.1.113883.2.51.999",
    "value": "5d8ee16c-e4c1-49a8-ad09-d5e959d77a6c"
  },
  "entry": [
    {
      "fullUrl": "urn:uuid:ba926e51-39af-4fad-b3a2-5ccd12fab3ac",
      "resource": {
        "resourceType": "Composition",
        "id": "ba926e51-39af-4fad-b3a2-5ccd12fab3ac",
        "meta": {
          "profile": [
            "http://hl7.eu/fhir/laboratory/StructureDefinition/Composition-eu-lab"
          ]
        },
        "identifier": {
          "assigner": {
            "display": "HL7 Europe"
          },
          "system": "urn:oid:2.16.840.1.113883.2.51.999",
          "value": "160c13b2-eff7-4ed4-92a4-488efc5ec9dd"
        },
        "author": [
          {
            "reference": "urn:uuid:cbac2064-5b2e-481b-8996-fc1920f40179"
          }
        ],
        "category": [
          {
            "coding": [
              {
                "code": "26436-6",
                "system": "http://loinc.org",
                "display": "Laboratory studies (set)"
              }
            ]
          }
        ],
        "type": {
          "coding": [
            {
              "code": "11502-2",
              "system": "http://loinc.org",
              "display": "Laboratory report"
            }
          ],
          "text": "Laboratory Report"
        },
        "section": [
          {
            "code": {
              "coding": [
                {
                  "code": "26436-6",
                  "system": "http://loinc.org",
                  "display": "Laboratory studies (set)"
                }
              ],
              "text": "Laboratory studies"
            },
            "section": [
              {
                "code": {
                  "coding": [
                    {
                      "code": "$18719-5",
                      "system": "http://loinc.org",
                      "display": "Chemistry studies (set)"
                    }
                  ],
                  "text": "Chemistry"
                },
                "entry": [
                  {
                    "reference": "urn:uuid:c05a2cb7-6c33-4026-90db-6e641c739504"
                  },
                  {
                    "reference": "urn:uuid:d197e7d5-d703-4b31-a374-e079f25a5ee0"
                  },
                  {
                    "reference": "urn:uuid:7fdd1d22-d47c-426b-88b7-1368034a299e"
                  },
                  {
                    "reference": "urn:uuid:eb3359fa-90e1-47d1-ae46-e212d6575271"
                  },
                  {
                    "reference": "urn:uuid:64f65140-341f-4673-903b-57ebaf521157"
                  },
                  {
                    "reference": "urn:uuid:c332eedc-0a11-40cd-a8a6-0051b499b563"
                  },
                  {
                    "reference": "urn:uuid:4363e75c-8d0f-4148-9e4f-debcfe2bee61"
                  },
                  {
                    "reference": "urn:uuid:3cf69ce2-2adf-4b3e-882b-d31e4e5dc612"
                  },
                  {
                    "reference": "urn:uuid:3065cbb9-944a-4f7a-baa6-5c23663d67c5"
                  },
                  {
                    "reference": "urn:uuid:ff56c9e5-ed3d-470a-b435-e90716700868"
                  },
                  {
                    "reference": "urn:uuid:6087ef18-1ef2-484a-b2ec-10aaafe5bd0f"
                  },
                  {
                    "reference": "urn:uuid:28a67089-06ff-43f5-be66-6ad64065bc39"
                  },
                  {
                    "reference": "urn:uuid:33bceef6-5e9e-4f4e-962f-9ef93599a701"
                  },
                  {
                    "reference": "urn:uuid:df5f26c1-bfba-4a8b-bc95-ab8dc79b5f70"
                  },
                  {
                    "reference": "urn:uuid:d7da5509-69f0-4756-938f-0230b15f7e72"
                  },
                  {
                    "reference": "urn:uuid:26919b45-db76-47b2-88f6-cdfaface1b0e"
                  },
                  {
                    "reference": "urn:uuid:ea69e538-7417-41cd-86d4-25eb335c266b"
                  },
                  {
                    "reference": "urn:uuid:79ef510c-e557-4971-bdac-bac4f979055c"
                  },
                  {
                    "reference": "urn:uuid:ec2bb8eb-c235-4fdf-ba60-288461191934"
                  },
                  {
                    "reference": "urn:uuid:32ac4422-678f-4d61-9100-3f752ce8f773"
                  },
                  {
                    "reference": "urn:uuid:dbf312c9-fc5c-4c52-b047-d57e83638fb5"
                  },
                  {
                    "reference": "urn:uuid:1b3cf0f9-f54d-4cd5-b2be-1d4bfe138ecb"
                  }
                ],
                "text": {
                  "status": "generated",
                  "div": "<div xmlns=\"http://www.w3.org/1999/xhtml\"><h3>Chemistry</h3><table class=\"hl7__eu__lab__report\"><thead><tr><th>Test</th><th>10-NOV-2021</th><th>Reference&#xA0;Range</th><th>Unit</th></tr></thead><tbody><tr><td>Glucose [Mass/volume] in Serum or Plasma</td><td>96.6</td><td>70 - 140</td><td>mg/dL</td></tr><tr><td>Urea nitrogen [Mass/volume] in Serum or Plasma</td><td>9.5</td><td>7 - 20</td><td>mg/dL</td></tr><tr><td>Creatinine [Mass/volume] in Serum or Plasma</td><td><strong>2.0 H</strong></td><td>0.9 - 1.3</td><td>mg/dL</td></tr><tr><td>Calcium [Mass/volume] in Serum or Plasma</td><td>9.4</td><td>8.5 - 10.5</td><td>mg/dL</td></tr><tr><td>Sodium [Moles/volume] in Serum or Plasma</td><td>142.2</td><td>135 - 145</td><td>mmol/L</td></tr><tr><td>Potassium [Moles/volume] in Serum or Plasma</td><td>4.5</td><td>3.5 - 5</td><td>mmol/L</td></tr><tr><td>Chloride [Moles/volume] in Serum or Plasma</td><td><strong>110.7 H</strong></td><td>98 - 108</td><td>mmol/L</td></tr><tr><td>Carbon dioxide, total [Moles/volume] in Serum or Plasma</td><td>26.6</td><td>22 - 29</td><td>mmol/L</td></tr><tr><td>Ketones [Presence] in Urine by Test strip</td><td>Urine ketone test = ++</td><td></td><td></td></tr><tr><td>Hemoglobin A1c/Hemoglobin.total in Blood</td><td><strong>3.3 L</strong></td><td>4.3 - 6.4</td><td>%</td></tr><tr><td>Glucose [Mass/volume] in Blood</td><td>96.6</td><td>70 - 140</td><td>mg/dL</td></tr><tr><td>Urea nitrogen [Mass/volume] in Blood</td><td>9.5</td><td>7 - 20</td><td>mg/dL</td></tr><tr><td>Creatinine [Mass/volume] in Blood</td><td><strong>8.0 H</strong></td><td>0.6 - 1.3</td><td>mg/dL</td></tr><tr><td>Calcium [Mass/volume] in Blood</td><td>9.4</td><td>8.5 - 10.5</td><td>mg/dL</td></tr><tr><td>Sodium [Moles/volume] in Blood</td><td>142.2</td><td>135 - 145</td><td>mmol/L</td></tr><tr><td>Potassium [Moles/volume] in Blood</td><td>4.5</td><td>3.5 - 5.3</td><td>mmol/L</td></tr><tr><td>Chloride [Moles/volume] in Blood</td><td><strong>110.7 H</strong></td><td>98 - 110</td><td>mmol/L</td></tr><tr><td>Carbon dioxide, total [Moles/volume] in Blood</td><td>26.6</td><td>22 - 29</td><td>mmol/L</td></tr><tr><td>Cholesterol [Mass/volume] in Serum or Plasma</td><td><strong>92.7 L</strong></td><td>125 - 200</td><td>mg/dL</td></tr><tr><td>Triglyceride [Mass/volume] in Serum or Plasma</td><td>115.8</td><td>0 - 150</td><td>mg/dL</td></tr><tr><td>Cholesterol in LDL [Mass/volume] in Serum or Plasma by Direct assay</td><td>39.7</td><td>0 - 130</td><td>mg/dL</td></tr><tr><td>Cholesterol in HDL [Mass/volume] in Serum or Plasma</td><td><strong>29.9 L</strong></td><td>40 - 60</td><td>mg/dL</td></tr></tbody></table></div>"
                },
                "title": "Chemistry"
              },
              {
                "code": {
                  "coding": [
                    {
                      "code": "$18729-4",
                      "system": "http://loinc.org",
                      "display": "Urinalysis studies (set)"
                    }
                  ],
                  "text": "Urinalysis"
                },
                "entry": [
                  {
                    "reference": "urn:uuid:f974fca3-9d2c-4efc-8acd-68157e9d8464"
                  },
                  {
                    "reference": "urn:uuid:797802fd-75d6-49a2-aa73-9acf689facd2"
                  },
                  {
                    "reference": "urn:uuid:1a0c15de-1ebb-48e4-b925-75241dc2d26f"
                  },
                  {
                    "reference": "urn:uuid:3d90222f-0175-4ce7-9df0-a6b108aae204"
                  },
                  {
                    "reference": "urn:uuid:bf0e3851-595f-4e88-bfbe-a5e0c44a8621"
                  },
                  {
                    "reference": "urn:uuid:cd7816cb-27df-4e16-aee6-c99f829707ca"
                  },
                  {
                    "reference": "urn:uuid:d62f6a17-9d51-4f86-bad7-30cae1ac0030"
                  },
                  {
                    "reference": "urn:uuid:d75af7d3-c73f-4f98-bf0a-0eabbfa10335"
                  },
                  {
                    "reference": "urn:uuid:c2d7dcd7-9bd0-4b9e-bfdc-bd151233902a"
                  },
                  {
                    "reference": "urn:uuid:6c19b0cd-659b-4b8c-8608-1b39ced986ee"
                  },
                  {
                    "reference": "urn:uuid:3f33255e-6551-4000-bfd6-ce151f940752"
                  },
                  {
                    "reference": "urn:uuid:c1c33324-7eb7-4a46-9c47-36fa928c9d61"
                  }
                ],
                "text": {
                  "status": "generated",
                  "div": "<div xmlns=\"http://www.w3.org/1999/xhtml\"><h3>Urinalysis</h3><table class=\"hl7__eu__lab__report\"><thead><tr><th>Test</th><th>10-NOV-2021</th><th>Reference&#xA0;Range</th><th>Unit</th></tr></thead><tbody><tr><td>Glucose [Mass/volume] in Urine by Test strip</td><td><strong>1.0 H</strong></td><td>0 - 0.8</td><td>mg/dL</td></tr><tr><td>Glucose [Presence] in Urine by Test strip</td><td>++</td><td></td><td></td></tr><tr><td>Bilirubin.total [Mass/volume] in Urine by Test strip</td><td>0.9</td><td>0.2 - 1</td><td>mg/dL</td></tr><tr><td>Bilirubin.total [Presence] in Urine by Test strip</td><td>Finding of bilirubin in urine</td><td></td><td></td></tr><tr><td>Ketones [Mass/volume] in Urine by Test strip</td><td>0.4</td><td>0 - 5</td><td>mg/dL</td></tr><tr><td>Specific gravity of Urine by Test strip</td><td><strong>1.0 L</strong></td><td>1.005 - 1.03</td><td>{nominal}</td></tr><tr><td>pH of Urine by Test strip</td><td>5.2</td><td>4.6 - 7</td><td>pH</td></tr><tr><td>Protein [Mass/volume] in Urine by Test strip</td><td><strong>316.8 H</strong></td><td>0 - 150</td><td>mg/dL</td></tr><tr><td>Protein [Presence] in Urine by Test strip</td><td>Urine protein test = ++</td><td></td><td></td></tr><tr><td>Nitrite [Presence] in Urine by Test strip</td><td>Urine nitrite negative</td><td></td><td></td></tr><tr><td>Hemoglobin [Presence] in Urine by Test strip</td><td>Urine blood test = negative</td><td></td><td></td></tr><tr><td>Leukocyte esterase [Presence] in Urine by Test strip</td><td>Urine leukocyte test negative</td><td></td><td></td></tr></tbody></table></div>"
                },
                "title": "Urinalysis"
              },
              {
                "code": {
                  "coding": [
                    {
                      "code": "$LP7846-1",
                      "system": "http://loinc.org",
                      "display": "Specimen information"
                    }
                  ],
                  "text": "Specimen information"
                },
                "entry": [
                  {
                    "reference": "urn:uuid:0bea4264-82a8-4690-87bb-7375740c082d"
                  },
                  {
                    "reference": "urn:uuid:bc017e7d-a11c-47c5-b140-a7dc04c6675f"
                  },
                  {
                    "reference": "urn:uuid:e7274288-0f84-4971-858c-2a471d8cc367"
                  },
                  {
                    "reference": "urn:uuid:d5abedfa-9ccf-4400-8dc0-349cc5bd63b4"
                  }
                ],
                "text": {
                  "status": "generated",
                  "div": "<div xmlns=\"http://www.w3.org/1999/xhtml\"><h3>Specimen information</h3><table class=\"hl7__eu__lab__report\"><thead><tr><th>Test</th><th>10-NOV-2021</th><th>Specimen</th><th></th></tr></thead><tbody><tr><td>Appearance of Urine</td><td>Cloudy urine</td><td>Urine</td><td></td></tr><tr><td>Odor of Urine</td><td>Urine smell ammoniacal</td><td>Urine</td><td></td></tr><tr><td>Clarity of Urine</td><td>Translucent</td><td>Urine</td><td></td></tr><tr><td>Color of Urine</td><td>Brown color</td><td>Urine</td><td></td></tr></tbody></table></div>"
                },
                "title": "Specimen information"
              }
            ],
            "title": "Laboratory Report"
          },
          {
            "text": {
              "status": "generated",
              "div": "<div xmlns=\"http://www.w3.org/1999/xhtml\"><h3>Annotation</h3><table class=\"hl7__eu__lab__report\"><tr><th>Conclusion and Recommendations based on this report and previous findings known to us</th></tr><tr><td>The patient shows markedly elevated creatinine, proteinuria, and abnormal urine findings (cloudy, brown, low specific gravity), suggesting significant renal dysfunction. Blood chloride is mildly elevated. Low HbA1c and HDL, and low total cholesterol are noted. No evidence of urinary tract infection. Findings are consistent with acute or chronic kidney disease; urgent nephrology evaluation is recommended.</td></tr></table></div>"
            },
            "code": {
              "coding": [
                {
                  "system": "http://loinc.org",
                  "code": "48767-8",
                  "display": "Annotation comment"
                }
              ]
            },
            "title": "Annotation comment"
          }
        ],
        "status": "final",
        "subject": {
          "reference": "urn:uuid:46726fd3-45ae-4d96-b742-33e3ec85089a",
          "display": "Θεμιστοκλής Λιναρδάκη"
        },
        "date": "2021-11-10T07:16:00Z",
        "title": "Laboratory Report",
        "confidentiality": "N"
      }
    },
    {
      "fullUrl": "urn:uuid:08d165de-c30e-4d24-bc12-e08dc9c885da",
      "resource": {
        "resourceType": "DiagnosticReport",
        "id": "08d165de-c30e-4d24-bc12-e08dc9c885da",
        "meta": {
          "profile": [
            "http://hl7.eu/fhir/laboratory/StructureDefinition/DiagnosticReport-eu-lab"
          ]
        },
        "identifier": [
          {
            "assigner": {
              "display": "HL7 Europe"
            },
            "system": "urn:oid:2.16.840.1.113883.2.51.999",
            "value": "42fb3791-ff0e-41fa-bb44-7e877b77f0a9"
          }
        ],
        "extension": [
          {
            "url": "http://hl7.org/fhir/5.0/StructureDefinition/extension-DiagnosticReport.composition",
            "valueReference": {
              "reference": "urn:uuid:160c13b2-eff7-4ed4-92a4-488efc5ec9dd"
            }
          }
        ],
        "category": [
          {
            "coding": [
              {
                "code": "26436-6",
                "system": "http://loinc.org",
                "display": "Laboratory studies (set)"
              }
            ]
          }
        ],
        "specimen": [
          {
            "reference": "urn:uuid:23e651ea-6b13-4d92-9aab-be2661336b80"
          },
          {
            "reference": "urn:uuid:1b61807f-7e90-45c3-aa9b-e718600d8496"
          },
          {
            "reference": "urn:uuid:e6b334e6-d4f0-466e-be14-cf46377aae72"
          }
        ],
        "result": [
          {
            "reference": "urn:uuid:c05a2cb7-6c33-4026-90db-6e641c739504"
          },
          {
            "reference": "urn:uuid:d197e7d5-d703-4b31-a374-e079f25a5ee0"
          },
          {
            "reference": "urn:uuid:7fdd1d22-d47c-426b-88b7-1368034a299e"
          },
          {
            "reference": "urn:uuid:eb3359fa-90e1-47d1-ae46-e212d6575271"
          },
          {
            "reference": "urn:uuid:64f65140-341f-4673-903b-57ebaf521157"
          },
          {
            "reference": "urn:uuid:c332eedc-0a11-40cd-a8a6-0051b499b563"
          },
          {
            "reference": "urn:uuid:4363e75c-8d0f-4148-9e4f-debcfe2bee61"
          },
          {
            "reference": "urn:uuid:3cf69ce2-2adf-4b3e-882b-d31e4e5dc612"
          },
          {
            "reference": "urn:uuid:0bea4264-82a8-4690-87bb-7375740c082d"
          },
          {
            "reference": "urn:uuid:bc017e7d-a11c-47c5-b140-a7dc04c6675f"
          },
          {
            "reference": "urn:uuid:e7274288-0f84-4971-858c-2a471d8cc367"
          },
          {
            "reference": "urn:uuid:d5abedfa-9ccf-4400-8dc0-349cc5bd63b4"
          },
          {
            "reference": "urn:uuid:f974fca3-9d2c-4efc-8acd-68157e9d8464"
          },
          {
            "reference": "urn:uuid:797802fd-75d6-49a2-aa73-9acf689facd2"
          },
          {
            "reference": "urn:uuid:1a0c15de-1ebb-48e4-b925-75241dc2d26f"
          },
          {
            "reference": "urn:uuid:3d90222f-0175-4ce7-9df0-a6b108aae204"
          },
          {
            "reference": "urn:uuid:bf0e3851-595f-4e88-bfbe-a5e0c44a8621"
          },
          {
            "reference": "urn:uuid:3065cbb9-944a-4f7a-baa6-5c23663d67c5"
          },
          {
            "reference": "urn:uuid:cd7816cb-27df-4e16-aee6-c99f829707ca"
          },
          {
            "reference": "urn:uuid:d62f6a17-9d51-4f86-bad7-30cae1ac0030"
          },
          {
            "reference": "urn:uuid:d75af7d3-c73f-4f98-bf0a-0eabbfa10335"
          },
          {
            "reference": "urn:uuid:c2d7dcd7-9bd0-4b9e-bfdc-bd151233902a"
          },
          {
            "reference": "urn:uuid:6c19b0cd-659b-4b8c-8608-1b39ced986ee"
          },
          {
            "reference": "urn:uuid:3f33255e-6551-4000-bfd6-ce151f940752"
          },
          {
            "reference": "urn:uuid:c1c33324-7eb7-4a46-9c47-36fa928c9d61"
          },
          {
            "reference": "urn:uuid:ff56c9e5-ed3d-470a-b435-e90716700868"
          },
          {
            "reference": "urn:uuid:6087ef18-1ef2-484a-b2ec-10aaafe5bd0f"
          },
          {
            "reference": "urn:uuid:28a67089-06ff-43f5-be66-6ad64065bc39"
          },
          {
            "reference": "urn:uuid:33bceef6-5e9e-4f4e-962f-9ef93599a701"
          },
          {
            "reference": "urn:uuid:df5f26c1-bfba-4a8b-bc95-ab8dc79b5f70"
          },
          {
            "reference": "urn:uuid:d7da5509-69f0-4756-938f-0230b15f7e72"
          },
          {
            "reference": "urn:uuid:26919b45-db76-47b2-88f6-cdfaface1b0e"
          },
          {
            "reference": "urn:uuid:ea69e538-7417-41cd-86d4-25eb335c266b"
          },
          {
            "reference": "urn:uuid:79ef510c-e557-4971-bdac-bac4f979055c"
          },
          {
            "reference": "urn:uuid:ec2bb8eb-c235-4fdf-ba60-288461191934"
          },
          {
            "reference": "urn:uuid:32ac4422-678f-4d61-9100-3f752ce8f773"
          },
          {
            "reference": "urn:uuid:dbf312c9-fc5c-4c52-b047-d57e83638fb5"
          },
          {
            "reference": "urn:uuid:1b3cf0f9-f54d-4cd5-b2be-1d4bfe138ecb"
          }
        ],
        "status": "registered",
        "code": {
          "coding": [
            {
              "code": "11502-2",
              "system": "http://loinc.org",
              "display": "Laboratory report"
            }
          ]
        },
        "subject": {
          "reference": "urn:uuid:46726fd3-45ae-4d96-b742-33e3ec85089a",
          "display": "Θεμιστοκλής Λιναρδάκη"
        }
      }
    },
    {
      "fullUrl": "urn:uuid:46726fd3-45ae-4d96-b742-33e3ec85089a",
      "resource": {
        "resourceType": "Patient",
        "id": "46726fd3-45ae-4d96-b742-33e3ec85089a",
        "meta": {
          "security": [
            {
              "system": "http://terminology.hl7.org/CodeSystem/v3-ActReason",
              "code": "HTEST"
            },
            {
              "system": "http://terminology.hl7.org/CodeSystem/v3-ActReason",
              "code": "TRAIN"
            }
          ],
          "tag": [
            {
              "system": "https://synderai.net/fhir/CodeSystem/tags",
              "code": "synthetic",
              "display": "SYNDERAI Synthetic data"
            }
          ],
          "profile": [
            "http://hl7.eu/fhir/base/StructureDefinition/patient-eu-core"
          ]
        },
        "identifier": [
          {
            "type": {
              "coding": [
                {
                  "code": "PT",
                  "system": "http://terminology.hl7.org/CodeSystem/v2-0203"
                }
              ]
            },
            "system": "http://ec.europa.eu/identifier/eci",
            "value": "5962-476889-7"
          },
          {
            "type": {
              "coding": [
                {
                  "code": "MR",
                  "system": "http://terminology.hl7.org/CodeSystem/v2-0203"
                }
              ]
            },
            "system": "http://local.setting.eu/identifier",
            "value": "925e2603-2ef9-6bdf-1330-2ebf526636c4"
          }
        ],
        "name": [
          {
            "family": "Λιναρδάκη"
          },
          {
            "given": [
              "Θεμιστοκλής"
            ]
          },
          {
            "text": "Θεμιστοκλής Λιναρδάκη"
          }
        ],
        "address": [
          {
            "line": [
              "Αμαρύνθου 54-58"
            ],
            "use": "home",
            "type": "physical",
            "postalCode": "262 21",
            "city": "Πάτρα",
            "country": "Greece"
          }
        ],
        "telecom": [
          {
            "system": "phone",
            "value": "+302226364480"
          }
        ],
        "extension": [
          {
            "url": "http://hl7.org/fhir/StructureDefinition/patient-nationality",
            "valueCodeableConcept": {
              "coding": [
                {
                  "code": "GR",
                  "system": "http://hl7.org/fhir/ValueSet/country"
                }
              ]
            }
          }
        ],
        "text": {
          "status": "generated",
          "div": "<div xmlns=\"http://www.w3.org/1999/xhtml\"><table class=\"hl7__ips\"><tr><td>Θεμιστοκλής Λιναρδάκη</td><td>male</td><td>21-Jan-1974</td></tr></table></div>"
        },
        "gender": "male",
        "birthDate": "1974-01-21"
      }
    },
    {
      "fullUrl": "urn:uuid:a18c58a9-e402-4f61-98f9-f0ea91ebecb0",
      "resource": {
        "resourceType": "ServiceRequest",
        "id": "a18c58a9-e402-4f61-98f9-f0ea91ebecb0",
        "meta": {
          "profile": [
            "http://hl7.eu/fhir/laboratory/StructureDefinition/ServiceRequest-eu-lab"
          ]
        },
        "identifier": [
          {
            "system": "http://example.org",
            "value": "6631423b-53cd-4bb1-a004-22d037abe7c7"
          }
        ],
        "specimen": [
          {
            "reference": "urn:uuid:23e651ea-6b13-4d92-9aab-be2661336b80"
          },
          {
            "reference": "urn:uuid:1b61807f-7e90-45c3-aa9b-e718600d8496"
          },
          {
            "reference": "urn:uuid:e6b334e6-d4f0-466e-be14-cf46377aae72"
          }
        ],
        "reasonCode": [
          {
            "coding": [
              {
                "code": "237602007",
                "system": "http://snomed.info/sct",
                "display": "Metabolic syndrome X"
              }
            ]
          },
          {
            "coding": [
              {
                "code": "433144002",
                "system": "http://snomed.info/sct",
                "display": "Chronic kidney disease stage 3"
              }
            ]
          },
          {
            "coding": [
              {
                "code": "157141000119108",
                "system": "http://snomed.info/sct",
                "display": "Proteinuria due to type 2 diabetes mellitus"
              }
            ]
          },
          {
            "coding": [
              {
                "code": "431856006",
                "system": "http://snomed.info/sct",
                "display": "Chronic kidney disease stage 2"
              }
            ]
          },
          {
            "coding": [
              {
                "code": "90781000119102",
                "system": "http://snomed.info/sct",
                "display": "Microalbuminuria due to type 2 diabetes mellitus"
              }
            ]
          },
          {
            "coding": [
              {
                "code": "127013003",
                "system": "http://snomed.info/sct",
                "display": "Disorder of kidney due to diabetes mellitus"
              }
            ]
          },
          {
            "coding": [
              {
                "code": "431855005",
                "system": "http://snomed.info/sct",
                "display": "Chronic kidney disease stage 1"
              }
            ]
          },
          {
            "coding": [
              {
                "code": "59621000",
                "system": "http://snomed.info/sct",
                "display": "Essential hypertension"
              }
            ]
          },
          {
            "coding": [
              {
                "code": "15777000",
                "system": "http://snomed.info/sct",
                "display": "Prediabetes"
              }
            ]
          },
          {
            "coding": [
              {
                "code": "271737000",
                "system": "http://snomed.info/sct",
                "display": "Anemia"
              }
            ]
          }
        ],
        "status": "active",
        "intent": "order",
        "code": {
          "coding": [
            {
              "code": "108252007",
              "system": "http://snomed.info/sct",
              "display": "Laboratory procedure"
            }
          ]
        },
        "subject": {
          "reference": "urn:uuid:46726fd3-45ae-4d96-b742-33e3ec85089a",
          "display": "Θεμιστοκλής Λιναρδάκη"
        },
        "requester": {
          "reference": "urn:uuid:698bc1c3-e33e-4f0d-8899-09f3d1937278"
        }
      }
    },
    {
      "fullUrl": "urn:uuid:698bc1c3-e33e-4f0d-8899-09f3d1937278",
      "resource": {
        "resourceType": "PractitionerRole",
        "id": "698bc1c3-e33e-4f0d-8899-09f3d1937278",
        "meta": {
          "profile": [
            "http://hl7.eu/fhir/base/StructureDefinition/practitionerRole-eu"
          ]
        },
        "text": {
          "status": "generated",
          "div": "<div xmlns=\"http://www.w3.org/1999/xhtml\">Provider Role Id: 698bc1c3-e33e-4f0d-8899-09f3d1937278</div>"
        },
        "organization": {
          "reference": "urn:uuid:048b2073-4a82-4056-8994-fae23930a9c7"
        }
      }
    },
    {
      "fullUrl": "urn:uuid:048b2073-4a82-4056-8994-fae23930a9c7",
      "resource": {
        "resourceType": "Organization",
        "id": "048b2073-4a82-4056-8994-fae23930a9c7",
        "meta": {
          "profile": [
            "http://hl7.eu/fhir/base/StructureDefinition/organization-eu"
          ]
        },
        "identifier": [
          {
            "assigner": {
              "display": "HL7 Europe"
            },
            "system": "urn:oid:2.16.840.1.113883.2.51.999",
            "value": "1a125975-dad9-4600-9ad4-6735801948ef"
          }
        ],
        "address": [
          {
            "line": [
              "211 Odós Filellinon"
            ],
            "city": "Patras",
            "postalCode": "262 21",
            "country": "Greece"
          }
        ],
        "text": {
          "status": "generated",
          "div": "<div xmlns=\"http://www.w3.org/1999/xhtml\">Provider Organization: Dr. Dimitris Economou</div>"
        },
        "name": "Dr. Dimitris Economou"
      }
    },
    {
      "fullUrl": "urn:uuid:23e651ea-6b13-4d92-9aab-be2661336b80",
      "resource": {
        "resourceType": "Specimen",
        "id": "23e651ea-6b13-4d92-9aab-be2661336b80",
        "meta": {
          "profile": [
            "http://hl7.eu/fhir/laboratory/StructureDefinition/Specimen-eu-lab"
          ]
        },
        "collection": {
          "collectedDateTime": "2021-11-10"
        },
        "text": {
          "status": "generated",
          "div": "<div xmlns=\"http://www.w3.org/1999/xhtml\"><table class=\"hl7__eu__lab__report\"><tr><th>Specimen</th><th>Collection Date</th></tr><tr><td>Acellular blood (serum or plasma) specimen</td><td><span class=\"nb\">10-Nov-2021</span></td></tr></table></div>"
        },
        "type": {
          "coding": [
            {
              "code": "122592007",
              "system": "http://snomed.info/sct",
              "display": "Acellular blood (serum or plasma) specimen"
            }
          ]
        }
      }
    },
    {
      "fullUrl": "urn:uuid:1b61807f-7e90-45c3-aa9b-e718600d8496",
      "resource": {
        "resourceType": "Specimen",
        "id": "1b61807f-7e90-45c3-aa9b-e718600d8496",
        "meta": {
          "profile": [
            "http://hl7.eu/fhir/laboratory/StructureDefinition/Specimen-eu-lab"
          ]
        },
        "collection": {
          "collectedDateTime": "2021-11-10"
        },
        "text": {
          "status": "generated",
          "div": "<div xmlns=\"http://www.w3.org/1999/xhtml\"><table class=\"hl7__eu__lab__report\"><tr><th>Specimen</th><th>Collection Date</th></tr><tr><td>Urine specimen</td><td><span class=\"nb\">10-Nov-2021</span></td></tr></table></div>"
        },
        "type": {
          "coding": [
            {
              "code": "122575003",
              "system": "http://snomed.info/sct",
              "display": "Urine specimen"
            }
          ]
        }
      }
    },
    {
      "fullUrl": "urn:uuid:e6b334e6-d4f0-466e-be14-cf46377aae72",
      "resource": {
        "resourceType": "Specimen",
        "id": "e6b334e6-d4f0-466e-be14-cf46377aae72",
        "meta": {
          "profile": [
            "http://hl7.eu/fhir/laboratory/StructureDefinition/Specimen-eu-lab"
          ]
        },
        "collection": {
          "collectedDateTime": "2021-11-10"
        },
        "text": {
          "status": "generated",
          "div": "<div xmlns=\"http://www.w3.org/1999/xhtml\"><table class=\"hl7__eu__lab__report\"><tr><th>Specimen</th><th>Collection Date</th></tr><tr><td>Whole blood specimen (specimen)</td><td><span class=\"nb\">10-Nov-2021</span></td></tr></table></div>"
        },
        "type": {
          "coding": [
            {
              "code": "258580003",
              "system": "http://snomed.info/sct",
              "display": "Whole blood specimen (specimen)"
            }
          ]
        }
      }
    },
    {
      "fullUrl": "urn:uuid:c05a2cb7-6c33-4026-90db-6e641c739504",
      "resource": {
        "resourceType": "Observation",
        "id": "c05a2cb7-6c33-4026-90db-6e641c739504",
        "meta": {
          "profile": [
            "http://hl7.eu/fhir/laboratory/StructureDefinition/Observation-resultslab-eu-lab"
          ]
        },
        "performer": [
          {
            "display": "The Central European Lab"
          }
        ],
        "category": [
          {
            "coding": [
              {
                "system": "http://terminology.hl7.org/CodeSystem/observation-category",
                "code": "laboratory"
              }
            ]
          }
        ],
        "code": {
          "coding": [
            {
              "code": "2345-7",
              "system": "http://loinc.org",
              "display": "Glucose [Mass/volume] in Serum or Plasma"
            }
          ],
          "text": "Glucose [Mass/volume] in Serum or Plasma"
        },
        "valueQuantity": {
          "system": "http://unitsofmeasure.org",
          "value": 96.6,
          "unit": "mg/dL",
          "code": "mg/dL"
        },
        "referenceRange": [
          {
            "low": {
              "value": 70,
              "code": "mg/dL",
              "system": "http://unitsofmeasure.org"
            }
          },
          {
            "high": {
              "value": 140,
              "code": "mg/dL",
              "system": "http://unitsofmeasure.org"
            }
          }
        ],
        "text": {
          "status": "generated",
          "div": "<div xmlns=\"http://www.w3.org/1999/xhtml\"><table class=\"hl7__eu__lab__report\"><tr><th>Test</th><th>10-Nov-2021</th><th>Reference&#xA0;Range</th><th>Unit</th></tr><tr><td>Glucose [Mass/volume] in Serum or Plasma</td><td>96.6</td><td>70 - 140</td><td></td><td>mg/dL</td></tr></table></div>"
        },
        "status": "final",
        "subject": {
          "reference": "urn:uuid:46726fd3-45ae-4d96-b742-33e3ec85089a",
          "display": "Θεμιστοκλής Λιναρδάκη"
        },
        "effectiveDateTime": "2021-11-10T06:16:00Z",
        "specimen": {
          "reference": "urn:uuid:23e651ea-6b13-4d92-9aab-be2661336b80"
        }
      }
    },
    {
      "fullUrl": "urn:uuid:d197e7d5-d703-4b31-a374-e079f25a5ee0",
      "resource": {
        "resourceType": "Observation",
        "id": "d197e7d5-d703-4b31-a374-e079f25a5ee0",
        "meta": {
          "profile": [
            "http://hl7.eu/fhir/laboratory/StructureDefinition/Observation-resultslab-eu-lab"
          ]
        },
        "performer": [
          {
            "display": "The Central European Lab"
          }
        ],
        "category": [
          {
            "coding": [
              {
                "system": "http://terminology.hl7.org/CodeSystem/observation-category",
                "code": "laboratory"
              }
            ]
          }
        ],
        "code": {
          "coding": [
            {
              "code": "3094-0",
              "system": "http://loinc.org",
              "display": "Urea nitrogen [Mass/volume] in Serum or Plasma"
            }
          ],
          "text": "Urea nitrogen [Mass/volume] in Serum or Plasma"
        },
        "valueQuantity": {
          "system": "http://unitsofmeasure.org",
          "value": 9.5,
          "unit": "mg/dL",
          "code": "mg/dL"
        },
        "referenceRange": [
          {
            "low": {
              "value": 7,
              "code": "mg/dL",
              "system": "http://unitsofmeasure.org"
            }
          },
          {
            "high": {
              "value": 20,
              "code": "mg/dL",
              "system": "http://unitsofmeasure.org"
            }
          }
        ],
        "text": {
          "status": "generated",
          "div": "<div xmlns=\"http://www.w3.org/1999/xhtml\"><table class=\"hl7__eu__lab__report\"><tr><th>Test</th><th>10-Nov-2021</th><th>Reference&#xA0;Range</th><th>Unit</th></tr><tr><td>Urea nitrogen [Mass/volume] in Serum or Plasma</td><td>9.5</td><td>7 - 20</td><td></td><td>mg/dL</td></tr></table></div>"
        },
        "status": "final",
        "subject": {
          "reference": "urn:uuid:46726fd3-45ae-4d96-b742-33e3ec85089a",
          "display": "Θεμιστοκλής Λιναρδάκη"
        },
        "effectiveDateTime": "2021-11-10T06:16:00Z",
        "specimen": {
          "reference": "urn:uuid:23e651ea-6b13-4d92-9aab-be2661336b80"
        }
      }
    },
    {
      "fullUrl": "urn:uuid:7fdd1d22-d47c-426b-88b7-1368034a299e",
      "resource": {
        "resourceType": "Observation",
        "id": "7fdd1d22-d47c-426b-88b7-1368034a299e",
        "meta": {
          "profile": [
            "http://hl7.eu/fhir/laboratory/StructureDefinition/Observation-resultslab-eu-lab"
          ]
        },
        "performer": [
          {
            "display": "The Central European Lab"
          }
        ],
        "category": [
          {
            "coding": [
              {
                "system": "http://terminology.hl7.org/CodeSystem/observation-category",
                "code": "laboratory"
              }
            ]
          }
        ],
        "code": {
          "coding": [
            {
              "code": "2160-0",
              "system": "http://loinc.org",
              "display": "Creatinine [Mass/volume] in Serum or Plasma"
            }
          ],
          "text": "Creatinine [Mass/volume] in Serum or Plasma"
        },
        "valueQuantity": {
          "system": "http://unitsofmeasure.org",
          "value": 2,
          "unit": "mg/dL",
          "code": "mg/dL"
        },
        "referenceRange": [
          {
            "low": {
              "value": 0.9,
              "code": "mg/dL",
              "system": "http://unitsofmeasure.org"
            }
          },
          {
            "high": {
              "value": 1.3,
              "code": "mg/dL",
              "system": "http://unitsofmeasure.org"
            }
          }
        ],
        "interpretation": [
          {
            "coding": [
              {
                "code": "H",
                "system": "http://terminology.hl7.org/CodeSystem/v3-ObservationInterpretation",
                "display": "High"
              }
            ]
          }
        ],
        "text": {
          "status": "generated",
          "div": "<div xmlns=\"http://www.w3.org/1999/xhtml\"><table class=\"hl7__eu__lab__report\"><tr><th>Test</th><th>10-Nov-2021</th><th>Reference&#xA0;Range</th><th>Unit</th></tr><tr><td>Creatinine [Mass/volume] in Serum or Plasma</td><td>2.0</td><td>0.9 - 1.3</td><td>H</td><td>mg/dL</td></tr></table></div>"
        },
        "status": "final",
        "subject": {
          "reference": "urn:uuid:46726fd3-45ae-4d96-b742-33e3ec85089a",
          "display": "Θεμιστοκλής Λιναρδάκη"
        },
        "effectiveDateTime": "2021-11-10T06:16:00Z",
        "specimen": {
          "reference": "urn:uuid:23e651ea-6b13-4d92-9aab-be2661336b80"
        }
      }
    },
    {
      "fullUrl": "urn:uuid:eb3359fa-90e1-47d1-ae46-e212d6575271",
      "resource": {
        "resourceType": "Observation",
        "id": "eb3359fa-90e1-47d1-ae46-e212d6575271",
        "meta": {
          "profile": [
            "http://hl7.eu/fhir/laboratory/StructureDefinition/Observation-resultslab-eu-lab"
          ]
        },
        "performer": [
          {
            "display": "The Central European Lab"
          }
        ],
        "category": [
          {
            "coding": [
              {
                "system": "http://terminology.hl7.org/CodeSystem/observation-category",
                "code": "laboratory"
              }
            ]
          }
        ],
        "code": {
          "coding": [
            {
              "code": "17861-6",
              "system": "http://loinc.org",
              "display": "Calcium [Mass/volume] in Serum or Plasma"
            }
          ],
          "text": "Calcium [Mass/volume] in Serum or Plasma"
        },
        "valueQuantity": {
          "system": "http://unitsofmeasure.org",
          "value": 9.4,
          "unit": "mg/dL",
          "code": "mg/dL"
        },
        "referenceRange": [
          {
            "low": {
              "value": 8.5,
              "code": "mg/dL",
              "system": "http://unitsofmeasure.org"
            }
          },
          {
            "high": {
              "value": 10.5,
              "code": "mg/dL",
              "system": "http://unitsofmeasure.org"
            }
          }
        ],
        "text": {
          "status": "generated",
          "div": "<div xmlns=\"http://www.w3.org/1999/xhtml\"><table class=\"hl7__eu__lab__report\"><tr><th>Test</th><th>10-Nov-2021</th><th>Reference&#xA0;Range</th><th>Unit</th></tr><tr><td>Calcium [Mass/volume] in Serum or Plasma</td><td>9.4</td><td>8.5 - 10.5</td><td></td><td>mg/dL</td></tr></table></div>"
        },
        "status": "final",
        "subject": {
          "reference": "urn:uuid:46726fd3-45ae-4d96-b742-33e3ec85089a",
          "display": "Θεμιστοκλής Λιναρδάκη"
        },
        "effectiveDateTime": "2021-11-10T06:16:00Z",
        "specimen": {
          "reference": "urn:uuid:23e651ea-6b13-4d92-9aab-be2661336b80"
        }
      }
    },
    {
      "fullUrl": "urn:uuid:64f65140-341f-4673-903b-57ebaf521157",
      "resource": {
        "resourceType": "Observation",
        "id": "64f65140-341f-4673-903b-57ebaf521157",
        "meta": {
          "profile": [
            "http://hl7.eu/fhir/laboratory/StructureDefinition/Observation-resultslab-eu-lab"
          ]
        },
        "performer": [
          {
            "display": "The Central European Lab"
          }
        ],
        "category": [
          {
            "coding": [
              {
                "system": "http://terminology.hl7.org/CodeSystem/observation-category",
                "code": "laboratory"
              }
            ]
          }
        ],
        "code": {
          "coding": [
            {
              "code": "2951-2",
              "system": "http://loinc.org",
              "display": "Sodium [Moles/volume] in Serum or Plasma"
            }
          ],
          "text": "Sodium [Moles/volume] in Serum or Plasma"
        },
        "valueQuantity": {
          "system": "http://unitsofmeasure.org",
          "value": 142.2,
          "unit": "mmol/L",
          "code": "mmol/L"
        },
        "referenceRange": [
          {
            "low": {
              "value": 135,
              "code": "mmol/L",
              "system": "http://unitsofmeasure.org"
            }
          },
          {
            "high": {
              "value": 145,
              "code": "mmol/L",
              "system": "http://unitsofmeasure.org"
            }
          }
        ],
        "text": {
          "status": "generated",
          "div": "<div xmlns=\"http://www.w3.org/1999/xhtml\"><table class=\"hl7__eu__lab__report\"><tr><th>Test</th><th>10-Nov-2021</th><th>Reference&#xA0;Range</th><th>Unit</th></tr><tr><td>Sodium [Moles/volume] in Serum or Plasma</td><td>142.2</td><td>135 - 145</td><td></td><td>mmol/L</td></tr></table></div>"
        },
        "status": "final",
        "subject": {
          "reference": "urn:uuid:46726fd3-45ae-4d96-b742-33e3ec85089a",
          "display": "Θεμιστοκλής Λιναρδάκη"
        },
        "effectiveDateTime": "2021-11-10T06:16:00Z",
        "specimen": {
          "reference": "urn:uuid:23e651ea-6b13-4d92-9aab-be2661336b80"
        }
      }
    },
    {
      "fullUrl": "urn:uuid:c332eedc-0a11-40cd-a8a6-0051b499b563",
      "resource": {
        "resourceType": "Observation",
        "id": "c332eedc-0a11-40cd-a8a6-0051b499b563",
        "meta": {
          "profile": [
            "http://hl7.eu/fhir/laboratory/StructureDefinition/Observation-resultslab-eu-lab"
          ]
        },
        "performer": [
          {
            "display": "The Central European Lab"
          }
        ],
        "category": [
          {
            "coding": [
              {
                "system": "http://terminology.hl7.org/CodeSystem/observation-category",
                "code": "laboratory"
              }
            ]
          }
        ],
        "code": {
          "coding": [
            {
              "code": "2823-3",
              "system": "http://loinc.org",
              "display": "Potassium [Moles/volume] in Serum or Plasma"
            }
          ],
          "text": "Potassium [Moles/volume] in Serum or Plasma"
        },
        "valueQuantity": {
          "system": "http://unitsofmeasure.org",
          "value": 4.5,
          "unit": "mmol/L",
          "code": "mmol/L"
        },
        "referenceRange": [
          {
            "low": {
              "value": 3.5,
              "code": "mmol/L",
              "system": "http://unitsofmeasure.org"
            }
          },
          {
            "high": {
              "value": 5,
              "code": "mmol/L",
              "system": "http://unitsofmeasure.org"
            }
          }
        ],
        "text": {
          "status": "generated",
          "div": "<div xmlns=\"http://www.w3.org/1999/xhtml\"><table class=\"hl7__eu__lab__report\"><tr><th>Test</th><th>10-Nov-2021</th><th>Reference&#xA0;Range</th><th>Unit</th></tr><tr><td>Potassium [Moles/volume] in Serum or Plasma</td><td>4.5</td><td>3.5 - 5</td><td></td><td>mmol/L</td></tr></table></div>"
        },
        "status": "final",
        "subject": {
          "reference": "urn:uuid:46726fd3-45ae-4d96-b742-33e3ec85089a",
          "display": "Θεμιστοκλής Λιναρδάκη"
        },
        "effectiveDateTime": "2021-11-10T06:16:00Z",
        "specimen": {
          "reference": "urn:uuid:23e651ea-6b13-4d92-9aab-be2661336b80"
        }
      }
    },
    {
      "fullUrl": "urn:uuid:4363e75c-8d0f-4148-9e4f-debcfe2bee61",
      "resource": {
        "resourceType": "Observation",
        "id": "4363e75c-8d0f-4148-9e4f-debcfe2bee61",
        "meta": {
          "profile": [
            "http://hl7.eu/fhir/laboratory/StructureDefinition/Observation-resultslab-eu-lab"
          ]
        },
        "performer": [
          {
            "display": "The Central European Lab"
          }
        ],
        "category": [
          {
            "coding": [
              {
                "system": "http://terminology.hl7.org/CodeSystem/observation-category",
                "code": "laboratory"
              }
            ]
          }
        ],
        "code": {
          "coding": [
            {
              "code": "2075-0",
              "system": "http://loinc.org",
              "display": "Chloride [Moles/volume] in Serum or Plasma"
            }
          ],
          "text": "Chloride [Moles/volume] in Serum or Plasma"
        },
        "valueQuantity": {
          "system": "http://unitsofmeasure.org",
          "value": 110.7,
          "unit": "mmol/L",
          "code": "mmol/L"
        },
        "referenceRange": [
          {
            "low": {
              "value": 98,
              "code": "mmol/L",
              "system": "http://unitsofmeasure.org"
            }
          },
          {
            "high": {
              "value": 108,
              "code": "mmol/L",
              "system": "http://unitsofmeasure.org"
            }
          }
        ],
        "interpretation": [
          {
            "coding": [
              {
                "code": "H",
                "system": "http://terminology.hl7.org/CodeSystem/v3-ObservationInterpretation",
                "display": "High"
              }
            ]
          }
        ],
        "text": {
          "status": "generated",
          "div": "<div xmlns=\"http://www.w3.org/1999/xhtml\"><table class=\"hl7__eu__lab__report\"><tr><th>Test</th><th>10-Nov-2021</th><th>Reference&#xA0;Range</th><th>Unit</th></tr><tr><td>Chloride [Moles/volume] in Serum or Plasma</td><td>110.7</td><td>98 - 108</td><td>H</td><td>mmol/L</td></tr></table></div>"
        },
        "status": "final",
        "subject": {
          "reference": "urn:uuid:46726fd3-45ae-4d96-b742-33e3ec85089a",
          "display": "Θεμιστοκλής Λιναρδάκη"
        },
        "effectiveDateTime": "2021-11-10T06:16:00Z",
        "specimen": {
          "reference": "urn:uuid:23e651ea-6b13-4d92-9aab-be2661336b80"
        }
      }
    },
    {
      "fullUrl": "urn:uuid:3cf69ce2-2adf-4b3e-882b-d31e4e5dc612",
      "resource": {
        "resourceType": "Observation",
        "id": "3cf69ce2-2adf-4b3e-882b-d31e4e5dc612",
        "meta": {
          "profile": [
            "http://hl7.eu/fhir/laboratory/StructureDefinition/Observation-resultslab-eu-lab"
          ]
        },
        "performer": [
          {
            "display": "The Central European Lab"
          }
        ],
        "category": [
          {
            "coding": [
              {
                "system": "http://terminology.hl7.org/CodeSystem/observation-category",
                "code": "laboratory"
              }
            ]
          }
        ],
        "code": {
          "coding": [
            {
              "code": "2028-9",
              "system": "http://loinc.org",
              "display": "Carbon dioxide, total [Moles/volume] in Serum or Plasma"
            }
          ],
          "text": "Carbon dioxide, total [Moles/volume] in Serum or Plasma"
        },
        "valueQuantity": {
          "system": "http://unitsofmeasure.org",
          "value": 26.6,
          "unit": "mmol/L",
          "code": "mmol/L"
        },
        "referenceRange": [
          {
            "low": {
              "value": 22,
              "code": "mmol/L",
              "system": "http://unitsofmeasure.org"
            }
          },
          {
            "high": {
              "value": 29,
              "code": "mmol/L",
              "system": "http://unitsofmeasure.org"
            }
          }
        ],
        "text": {
          "status": "generated",
          "div": "<div xmlns=\"http://www.w3.org/1999/xhtml\"><table class=\"hl7__eu__lab__report\"><tr><th>Test</th><th>10-Nov-2021</th><th>Reference&#xA0;Range</th><th>Unit</th></tr><tr><td>Carbon dioxide, total [Moles/volume] in Serum or Plasma</td><td>26.6</td><td>22 - 29</td><td></td><td>mmol/L</td></tr></table></div>"
        },
        "status": "final",
        "subject": {
          "reference": "urn:uuid:46726fd3-45ae-4d96-b742-33e3ec85089a",
          "display": "Θεμιστοκλής Λιναρδάκη"
        },
        "effectiveDateTime": "2021-11-10T06:16:00Z",
        "specimen": {
          "reference": "urn:uuid:23e651ea-6b13-4d92-9aab-be2661336b80"
        }
      }
    },
    {
      "fullUrl": "urn:uuid:0bea4264-82a8-4690-87bb-7375740c082d",
      "resource": {
        "resourceType": "Observation",
        "id": "0bea4264-82a8-4690-87bb-7375740c082d",
        "meta": {
          "profile": [
            "http://hl7.eu/fhir/laboratory/StructureDefinition/Observation-resultslab-eu-lab"
          ]
        },
        "performer": [
          {
            "display": "The Central European Lab"
          }
        ],
        "category": [
          {
            "coding": [
              {
                "system": "http://terminology.hl7.org/CodeSystem/observation-category",
                "code": "laboratory"
              }
            ]
          }
        ],
        "code": {
          "coding": [
            {
              "code": "5767-9",
              "system": "http://loinc.org",
              "display": "Appearance of Urine"
            }
          ],
          "text": "Appearance of Urine"
        },
        "text": {
          "status": "generated",
          "div": "<div xmlns=\"http://www.w3.org/1999/xhtml\"><table class=\"hl7__eu__lab__report\"><tr><th>Test</th><th>10-Nov-2021</th><th>Reference&#xA0;Range</th><th>Unit</th></tr><tr><td>Appearance of Urine</td></tr></table></div>"
        },
        "status": "final",
        "subject": {
          "reference": "urn:uuid:46726fd3-45ae-4d96-b742-33e3ec85089a",
          "display": "Θεμιστοκλής Λιναρδάκη"
        },
        "effectiveDateTime": "2021-11-10T06:16:00Z",
        "specimen": {
          "reference": "urn:uuid:1b61807f-7e90-45c3-aa9b-e718600d8496"
        }
      }
    },
    {
      "fullUrl": "urn:uuid:bc017e7d-a11c-47c5-b140-a7dc04c6675f",
      "resource": {
        "resourceType": "Observation",
        "id": "bc017e7d-a11c-47c5-b140-a7dc04c6675f",
        "meta": {
          "profile": [
            "http://hl7.eu/fhir/laboratory/StructureDefinition/Observation-resultslab-eu-lab"
          ]
        },
        "performer": [
          {
            "display": "The Central European Lab"
          }
        ],
        "category": [
          {
            "coding": [
              {
                "system": "http://terminology.hl7.org/CodeSystem/observation-category",
                "code": "laboratory"
              }
            ]
          }
        ],
        "code": {
          "coding": [
            {
              "code": "34533-0",
              "system": "http://loinc.org",
              "display": "Odor of Urine"
            }
          ],
          "text": "Odor of Urine"
        },
        "text": {
          "status": "generated",
          "div": "<div xmlns=\"http://www.w3.org/1999/xhtml\"><table class=\"hl7__eu__lab__report\"><tr><th>Test</th><th>10-Nov-2021</th><th>Reference&#xA0;Range</th><th>Unit</th></tr><tr><td>Odor of Urine</td></tr></table></div>"
        },
        "status": "final",
        "subject": {
          "reference": "urn:uuid:46726fd3-45ae-4d96-b742-33e3ec85089a",
          "display": "Θεμιστοκλής Λιναρδάκη"
        },
        "effectiveDateTime": "2021-11-10T06:16:00Z",
        "specimen": {
          "reference": "urn:uuid:1b61807f-7e90-45c3-aa9b-e718600d8496"
        }
      }
    },
    {
      "fullUrl": "urn:uuid:e7274288-0f84-4971-858c-2a471d8cc367",
      "resource": {
        "resourceType": "Observation",
        "id": "e7274288-0f84-4971-858c-2a471d8cc367",
        "meta": {
          "profile": [
            "http://hl7.eu/fhir/laboratory/StructureDefinition/Observation-resultslab-eu-lab"
          ]
        },
        "performer": [
          {
            "display": "The Central European Lab"
          }
        ],
        "category": [
          {
            "coding": [
              {
                "system": "http://terminology.hl7.org/CodeSystem/observation-category",
                "code": "laboratory"
              }
            ]
          }
        ],
        "code": {
          "coding": [
            {
              "code": "32167-9",
              "system": "http://loinc.org",
              "display": "Clarity of Urine"
            }
          ],
          "text": "Clarity of Urine"
        },
        "text": {
          "status": "generated",
          "div": "<div xmlns=\"http://www.w3.org/1999/xhtml\"><table class=\"hl7__eu__lab__report\"><tr><th>Test</th><th>10-Nov-2021</th><th>Reference&#xA0;Range</th><th>Unit</th></tr><tr><td>Clarity of Urine</td></tr></table></div>"
        },
        "status": "final",
        "subject": {
          "reference": "urn:uuid:46726fd3-45ae-4d96-b742-33e3ec85089a",
          "display": "Θεμιστοκλής Λιναρδάκη"
        },
        "effectiveDateTime": "2021-11-10T06:16:00Z",
        "specimen": {
          "reference": "urn:uuid:1b61807f-7e90-45c3-aa9b-e718600d8496"
        }
      }
    },
    {
      "fullUrl": "urn:uuid:d5abedfa-9ccf-4400-8dc0-349cc5bd63b4",
      "resource": {
        "resourceType": "Observation",
        "id": "d5abedfa-9ccf-4400-8dc0-349cc5bd63b4",
        "meta": {
          "profile": [
            "http://hl7.eu/fhir/laboratory/StructureDefinition/Observation-resultslab-eu-lab"
          ]
        },
        "performer": [
          {
            "display": "The Central European Lab"
          }
        ],
        "category": [
          {
            "coding": [
              {
                "system": "http://terminology.hl7.org/CodeSystem/observation-category",
                "code": "laboratory"
              }
            ]
          }
        ],
        "code": {
          "coding": [
            {
              "code": "5778-6",
              "system": "http://loinc.org",
              "display": "Color of Urine"
            }
          ],
          "text": "Color of Urine"
        },
        "text": {
          "status": "generated",
          "div": "<div xmlns=\"http://www.w3.org/1999/xhtml\"><table class=\"hl7__eu__lab__report\"><tr><th>Test</th><th>10-Nov-2021</th><th>Reference&#xA0;Range</th><th>Unit</th></tr><tr><td>Color of Urine</td></tr></table></div>"
        },
        "status": "final",
        "subject": {
          "reference": "urn:uuid:46726fd3-45ae-4d96-b742-33e3ec85089a",
          "display": "Θεμιστοκλής Λιναρδάκη"
        },
        "effectiveDateTime": "2021-11-10T06:16:00Z",
        "specimen": {
          "reference": "urn:uuid:1b61807f-7e90-45c3-aa9b-e718600d8496"
        }
      }
    },
    {
      "fullUrl": "urn:uuid:f974fca3-9d2c-4efc-8acd-68157e9d8464",
      "resource": {
        "resourceType": "Observation",
        "id": "f974fca3-9d2c-4efc-8acd-68157e9d8464",
        "meta": {
          "profile": [
            "http://hl7.eu/fhir/laboratory/StructureDefinition/Observation-resultslab-eu-lab"
          ]
        },
        "performer": [
          {
            "display": "The Central European Lab"
          }
        ],
        "category": [
          {
            "coding": [
              {
                "system": "http://terminology.hl7.org/CodeSystem/observation-category",
                "code": "laboratory"
              }
            ]
          }
        ],
        "code": {
          "coding": [
            {
              "code": "5792-7",
              "system": "http://loinc.org",
              "display": "Glucose [Mass/volume] in Urine by Test strip"
            }
          ],
          "text": "Glucose [Mass/volume] in Urine by Test strip"
        },
        "valueQuantity": {
          "system": "http://unitsofmeasure.org",
          "value": 1,
          "unit": "mg/dL",
          "code": "mg/dL"
        },
        "referenceRange": [
          {
            "low": {
              "value": 0,
              "code": "mg/dL",
              "system": "http://unitsofmeasure.org"
            }
          },
          {
            "high": {
              "value": 0.8,
              "code": "mg/dL",
              "system": "http://unitsofmeasure.org"
            }
          }
        ],
        "interpretation": [
          {
            "coding": [
              {
                "code": "H",
                "system": "http://terminology.hl7.org/CodeSystem/v3-ObservationInterpretation",
                "display": "High"
              }
            ]
          }
        ],
        "text": {
          "status": "generated",
          "div": "<div xmlns=\"http://www.w3.org/1999/xhtml\"><table class=\"hl7__eu__lab__report\"><tr><th>Test</th><th>10-Nov-2021</th><th>Reference&#xA0;Range</th><th>Unit</th></tr><tr><td>Glucose [Mass/volume] in Urine by Test strip</td><td>1.0</td><td>0 - 0.8</td><td>H</td><td>mg/dL</td></tr></table></div>"
        },
        "status": "final",
        "subject": {
          "reference": "urn:uuid:46726fd3-45ae-4d96-b742-33e3ec85089a",
          "display": "Θεμιστοκλής Λιναρδάκη"
        },
        "effectiveDateTime": "2021-11-10T06:16:00Z",
        "specimen": {
          "reference": "urn:uuid:1b61807f-7e90-45c3-aa9b-e718600d8496"
        }
      }
    },
    {
      "fullUrl": "urn:uuid:797802fd-75d6-49a2-aa73-9acf689facd2",
      "resource": {
        "resourceType": "Observation",
        "id": "797802fd-75d6-49a2-aa73-9acf689facd2",
        "meta": {
          "profile": [
            "http://hl7.eu/fhir/laboratory/StructureDefinition/Observation-resultslab-eu-lab"
          ]
        },
        "performer": [
          {
            "display": "The Central European Lab"
          }
        ],
        "category": [
          {
            "coding": [
              {
                "system": "http://terminology.hl7.org/CodeSystem/observation-category",
                "code": "laboratory"
              }
            ]
          }
        ],
        "code": {
          "coding": [
            {
              "code": "25428-4",
              "system": "http://loinc.org",
              "display": "Glucose [Presence] in Urine by Test strip"
            }
          ],
          "text": "Glucose [Presence] in Urine by Test strip"
        },
        "text": {
          "status": "generated",
          "div": "<div xmlns=\"http://www.w3.org/1999/xhtml\"><table class=\"hl7__eu__lab__report\"><tr><th>Test</th><th>10-Nov-2021</th><th>Reference&#xA0;Range</th><th>Unit</th></tr><tr><td>Glucose [Presence] in Urine by Test strip</td></tr></table></div>"
        },
        "status": "final",
        "subject": {
          "reference": "urn:uuid:46726fd3-45ae-4d96-b742-33e3ec85089a",
          "display": "Θεμιστοκλής Λιναρδάκη"
        },
        "effectiveDateTime": "2021-11-10T06:16:00Z",
        "specimen": {
          "reference": "urn:uuid:1b61807f-7e90-45c3-aa9b-e718600d8496"
        }
      }
    },
    {
      "fullUrl": "urn:uuid:1a0c15de-1ebb-48e4-b925-75241dc2d26f",
      "resource": {
        "resourceType": "Observation",
        "id": "1a0c15de-1ebb-48e4-b925-75241dc2d26f",
        "meta": {
          "profile": [
            "http://hl7.eu/fhir/laboratory/StructureDefinition/Observation-resultslab-eu-lab"
          ]
        },
        "performer": [
          {
            "display": "The Central European Lab"
          }
        ],
        "category": [
          {
            "coding": [
              {
                "system": "http://terminology.hl7.org/CodeSystem/observation-category",
                "code": "laboratory"
              }
            ]
          }
        ],
        "code": {
          "coding": [
            {
              "code": "20505-4",
              "system": "http://loinc.org",
              "display": "Bilirubin.total [Mass/volume] in Urine by Test strip"
            }
          ],
          "text": "Bilirubin.total [Mass/volume] in Urine by Test strip"
        },
        "valueQuantity": {
          "system": "http://unitsofmeasure.org",
          "value": 0.9,
          "unit": "mg/dL",
          "code": "mg/dL"
        },
        "referenceRange": [
          {
            "low": {
              "value": 0.2,
              "code": "mg/dL",
              "system": "http://unitsofmeasure.org"
            }
          },
          {
            "high": {
              "value": 1,
              "code": "mg/dL",
              "system": "http://unitsofmeasure.org"
            }
          }
        ],
        "text": {
          "status": "generated",
          "div": "<div xmlns=\"http://www.w3.org/1999/xhtml\"><table class=\"hl7__eu__lab__report\"><tr><th>Test</th><th>10-Nov-2021</th><th>Reference&#xA0;Range</th><th>Unit</th></tr><tr><td>Bilirubin.total [Mass/volume] in Urine by Test strip</td><td>0.9</td><td>0.2 - 1</td><td></td><td>mg/dL</td></tr></table></div>"
        },
        "status": "final",
        "subject": {
          "reference": "urn:uuid:46726fd3-45ae-4d96-b742-33e3ec85089a",
          "display": "Θεμιστοκλής Λιναρδάκη"
        },
        "effectiveDateTime": "2021-11-10T06:16:00Z",
        "specimen": {
          "reference": "urn:uuid:1b61807f-7e90-45c3-aa9b-e718600d8496"
        }
      }
    },
    {
      "fullUrl": "urn:uuid:3d90222f-0175-4ce7-9df0-a6b108aae204",
      "resource": {
        "resourceType": "Observation",
        "id": "3d90222f-0175-4ce7-9df0-a6b108aae204",
        "meta": {
          "profile": [
            "http://hl7.eu/fhir/laboratory/StructureDefinition/Observation-resultslab-eu-lab"
          ]
        },
        "performer": [
          {
            "display": "The Central European Lab"
          }
        ],
        "category": [
          {
            "coding": [
              {
                "system": "http://terminology.hl7.org/CodeSystem/observation-category",
                "code": "laboratory"
              }
            ]
          }
        ],
        "code": {
          "coding": [
            {
              "code": "5770-3",
              "system": "http://loinc.org",
              "display": "Bilirubin.total [Presence] in Urine by Test strip"
            }
          ],
          "text": "Bilirubin.total [Presence] in Urine by Test strip"
        },
        "text": {
          "status": "generated",
          "div": "<div xmlns=\"http://www.w3.org/1999/xhtml\"><table class=\"hl7__eu__lab__report\"><tr><th>Test</th><th>10-Nov-2021</th><th>Reference&#xA0;Range</th><th>Unit</th></tr><tr><td>Bilirubin.total [Presence] in Urine by Test strip</td></tr></table></div>"
        },
        "status": "final",
        "subject": {
          "reference": "urn:uuid:46726fd3-45ae-4d96-b742-33e3ec85089a",
          "display": "Θεμιστοκλής Λιναρδάκη"
        },
        "effectiveDateTime": "2021-11-10T06:16:00Z",
        "specimen": {
          "reference": "urn:uuid:1b61807f-7e90-45c3-aa9b-e718600d8496"
        }
      }
    },
    {
      "fullUrl": "urn:uuid:bf0e3851-595f-4e88-bfbe-a5e0c44a8621",
      "resource": {
        "resourceType": "Observation",
        "id": "bf0e3851-595f-4e88-bfbe-a5e0c44a8621",
        "meta": {
          "profile": [
            "http://hl7.eu/fhir/laboratory/StructureDefinition/Observation-resultslab-eu-lab"
          ]
        },
        "performer": [
          {
            "display": "The Central European Lab"
          }
        ],
        "category": [
          {
            "coding": [
              {
                "system": "http://terminology.hl7.org/CodeSystem/observation-category",
                "code": "laboratory"
              }
            ]
          }
        ],
        "code": {
          "coding": [
            {
              "code": "5797-6",
              "system": "http://loinc.org",
              "display": "Ketones [Mass/volume] in Urine by Test strip"
            }
          ],
          "text": "Ketones [Mass/volume] in Urine by Test strip"
        },
        "valueQuantity": {
          "system": "http://unitsofmeasure.org",
          "value": 0.4,
          "unit": "mg/dL",
          "code": "mg/dL"
        },
        "referenceRange": [
          {
            "low": {
              "value": 0,
              "code": "mg/dL",
              "system": "http://unitsofmeasure.org"
            }
          },
          {
            "high": {
              "value": 5,
              "code": "mg/dL",
              "system": "http://unitsofmeasure.org"
            }
          }
        ],
        "text": {
          "status": "generated",
          "div": "<div xmlns=\"http://www.w3.org/1999/xhtml\"><table class=\"hl7__eu__lab__report\"><tr><th>Test</th><th>10-Nov-2021</th><th>Reference&#xA0;Range</th><th>Unit</th></tr><tr><td>Ketones [Mass/volume] in Urine by Test strip</td><td>0.4</td><td>0 - 5</td><td></td><td>mg/dL</td></tr></table></div>"
        },
        "status": "final",
        "subject": {
          "reference": "urn:uuid:46726fd3-45ae-4d96-b742-33e3ec85089a",
          "display": "Θεμιστοκλής Λιναρδάκη"
        },
        "effectiveDateTime": "2021-11-10T06:16:00Z",
        "specimen": {
          "reference": "urn:uuid:1b61807f-7e90-45c3-aa9b-e718600d8496"
        }
      }
    },
    {
      "fullUrl": "urn:uuid:3065cbb9-944a-4f7a-baa6-5c23663d67c5",
      "resource": {
        "resourceType": "Observation",
        "id": "3065cbb9-944a-4f7a-baa6-5c23663d67c5",
        "meta": {
          "profile": [
            "http://hl7.eu/fhir/laboratory/StructureDefinition/Observation-resultslab-eu-lab"
          ]
        },
        "performer": [
          {
            "display": "The Central European Lab"
          }
        ],
        "category": [
          {
            "coding": [
              {
                "system": "http://terminology.hl7.org/CodeSystem/observation-category",
                "code": "laboratory"
              }
            ]
          }
        ],
        "code": {
          "coding": [
            {
              "code": "2514-8",
              "system": "http://loinc.org",
              "display": "Ketones [Presence] in Urine by Test strip"
            }
          ],
          "text": "Ketones [Presence] in Urine by Test strip"
        },
        "text": {
          "status": "generated",
          "div": "<div xmlns=\"http://www.w3.org/1999/xhtml\"><table class=\"hl7__eu__lab__report\"><tr><th>Test</th><th>10-Nov-2021</th><th>Reference&#xA0;Range</th><th>Unit</th></tr><tr><td>Ketones [Presence] in Urine by Test strip</td></tr></table></div>"
        },
        "status": "final",
        "subject": {
          "reference": "urn:uuid:46726fd3-45ae-4d96-b742-33e3ec85089a",
          "display": "Θεμιστοκλής Λιναρδάκη"
        },
        "effectiveDateTime": "2021-11-10T06:16:00Z",
        "specimen": {
          "reference": "urn:uuid:1b61807f-7e90-45c3-aa9b-e718600d8496"
        }
      }
    },
    {
      "fullUrl": "urn:uuid:cd7816cb-27df-4e16-aee6-c99f829707ca",
      "resource": {
        "resourceType": "Observation",
        "id": "cd7816cb-27df-4e16-aee6-c99f829707ca",
        "meta": {
          "profile": [
            "http://hl7.eu/fhir/laboratory/StructureDefinition/Observation-resultslab-eu-lab"
          ]
        },
        "performer": [
          {
            "display": "The Central European Lab"
          }
        ],
        "category": [
          {
            "coding": [
              {
                "system": "http://terminology.hl7.org/CodeSystem/observation-category",
                "code": "laboratory"
              }
            ]
          }
        ],
        "code": {
          "coding": [
            {
              "code": "5811-5",
              "system": "http://loinc.org",
              "display": "Specific gravity of Urine by Test strip"
            }
          ],
          "text": "Specific gravity of Urine by Test strip"
        },
        "valueQuantity": {
          "system": "http://unitsofmeasure.org",
          "value": 1,
          "unit": "{nominal}",
          "code": "{nominal}"
        },
        "referenceRange": [
          {
            "low": {
              "value": 1.005,
              "code": "g/mL",
              "system": "http://unitsofmeasure.org"
            }
          },
          {
            "high": {
              "value": 1.03,
              "code": "g/mL",
              "system": "http://unitsofmeasure.org"
            }
          }
        ],
        "interpretation": [
          {
            "coding": [
              {
                "code": "L",
                "system": "http://terminology.hl7.org/CodeSystem/v3-ObservationInterpretation",
                "display": "Low"
              }
            ]
          }
        ],
        "text": {
          "status": "generated",
          "div": "<div xmlns=\"http://www.w3.org/1999/xhtml\"><table class=\"hl7__eu__lab__report\"><tr><th>Test</th><th>10-Nov-2021</th><th>Reference&#xA0;Range</th><th>Unit</th></tr><tr><td>Specific gravity of Urine by Test strip</td><td>1.0</td><td>1.005 - 1.03</td><td>L</td><td>{nominal}</td></tr></table></div>"
        },
        "status": "final",
        "subject": {
          "reference": "urn:uuid:46726fd3-45ae-4d96-b742-33e3ec85089a",
          "display": "Θεμιστοκλής Λιναρδάκη"
        },
        "effectiveDateTime": "2021-11-10T06:16:00Z",
        "specimen": {
          "reference": "urn:uuid:1b61807f-7e90-45c3-aa9b-e718600d8496"
        }
      }
    },
    {
      "fullUrl": "urn:uuid:d62f6a17-9d51-4f86-bad7-30cae1ac0030",
      "resource": {
        "resourceType": "Observation",
        "id": "d62f6a17-9d51-4f86-bad7-30cae1ac0030",
        "meta": {
          "profile": [
            "http://hl7.eu/fhir/laboratory/StructureDefinition/Observation-resultslab-eu-lab"
          ]
        },
        "performer": [
          {
            "display": "The Central European Lab"
          }
        ],
        "category": [
          {
            "coding": [
              {
                "system": "http://terminology.hl7.org/CodeSystem/observation-category",
                "code": "laboratory"
              }
            ]
          }
        ],
        "code": {
          "coding": [
            {
              "code": "5803-2",
              "system": "http://loinc.org",
              "display": "pH of Urine by Test strip"
            }
          ],
          "text": "pH of Urine by Test strip"
        },
        "valueQuantity": {
          "system": "http://unitsofmeasure.org",
          "value": 5.2,
          "unit": "pH",
          "code": "pH"
        },
        "referenceRange": [
          {
            "low": {
              "value": 4.6,
              "code": "pH",
              "system": "http://unitsofmeasure.org"
            }
          },
          {
            "high": {
              "value": 7,
              "code": "pH",
              "system": "http://unitsofmeasure.org"
            }
          }
        ],
        "text": {
          "status": "generated",
          "div": "<div xmlns=\"http://www.w3.org/1999/xhtml\"><table class=\"hl7__eu__lab__report\"><tr><th>Test</th><th>10-Nov-2021</th><th>Reference&#xA0;Range</th><th>Unit</th></tr><tr><td>pH of Urine by Test strip</td><td>5.2</td><td>4.6 - 7</td><td></td><td>pH</td></tr></table></div>"
        },
        "status": "final",
        "subject": {
          "reference": "urn:uuid:46726fd3-45ae-4d96-b742-33e3ec85089a",
          "display": "Θεμιστοκλής Λιναρδάκη"
        },
        "effectiveDateTime": "2021-11-10T06:16:00Z",
        "specimen": {
          "reference": "urn:uuid:1b61807f-7e90-45c3-aa9b-e718600d8496"
        }
      }
    },
    {
      "fullUrl": "urn:uuid:d75af7d3-c73f-4f98-bf0a-0eabbfa10335",
      "resource": {
        "resourceType": "Observation",
        "id": "d75af7d3-c73f-4f98-bf0a-0eabbfa10335",
        "meta": {
          "profile": [
            "http://hl7.eu/fhir/laboratory/StructureDefinition/Observation-resultslab-eu-lab"
          ]
        },
        "performer": [
          {
            "display": "The Central European Lab"
          }
        ],
        "category": [
          {
            "coding": [
              {
                "system": "http://terminology.hl7.org/CodeSystem/observation-category",
                "code": "laboratory"
              }
            ]
          }
        ],
        "code": {
          "coding": [
            {
              "code": "5804-0",
              "system": "http://loinc.org",
              "display": "Protein [Mass/volume] in Urine by Test strip"
            }
          ],
          "text": "Protein [Mass/volume] in Urine by Test strip"
        },
        "valueQuantity": {
          "system": "http://unitsofmeasure.org",
          "value": 316.8,
          "unit": "mg/dL",
          "code": "mg/dL"
        },
        "referenceRange": [
          {
            "low": {
              "value": 0,
              "code": "mg/dL",
              "system": "http://unitsofmeasure.org"
            }
          },
          {
            "high": {
              "value": 150,
              "code": "mg/dL",
              "system": "http://unitsofmeasure.org"
            }
          }
        ],
        "interpretation": [
          {
            "coding": [
              {
                "code": "H",
                "system": "http://terminology.hl7.org/CodeSystem/v3-ObservationInterpretation",
                "display": "High"
              }
            ]
          }
        ],
        "text": {
          "status": "generated",
          "div": "<div xmlns=\"http://www.w3.org/1999/xhtml\"><table class=\"hl7__eu__lab__report\"><tr><th>Test</th><th>10-Nov-2021</th><th>Reference&#xA0;Range</th><th>Unit</th></tr><tr><td>Protein [Mass/volume] in Urine by Test strip</td><td>316.8</td><td>0 - 150</td><td>H</td><td>mg/dL</td></tr></table></div>"
        },
        "status": "final",
        "subject": {
          "reference": "urn:uuid:46726fd3-45ae-4d96-b742-33e3ec85089a",
          "display": "Θεμιστοκλής Λιναρδάκη"
        },
        "effectiveDateTime": "2021-11-10T06:16:00Z",
        "specimen": {
          "reference": "urn:uuid:1b61807f-7e90-45c3-aa9b-e718600d8496"
        }
      }
    },
    {
      "fullUrl": "urn:uuid:c2d7dcd7-9bd0-4b9e-bfdc-bd151233902a",
      "resource": {
        "resourceType": "Observation",
        "id": "c2d7dcd7-9bd0-4b9e-bfdc-bd151233902a",
        "meta": {
          "profile": [
            "http://hl7.eu/fhir/laboratory/StructureDefinition/Observation-resultslab-eu-lab"
          ]
        },
        "performer": [
          {
            "display": "The Central European Lab"
          }
        ],
        "category": [
          {
            "coding": [
              {
                "system": "http://terminology.hl7.org/CodeSystem/observation-category",
                "code": "laboratory"
              }
            ]
          }
        ],
        "code": {
          "coding": [
            {
              "code": "20454-5",
              "system": "http://loinc.org",
              "display": "Protein [Presence] in Urine by Test strip"
            }
          ],
          "text": "Protein [Presence] in Urine by Test strip"
        },
        "text": {
          "status": "generated",
          "div": "<div xmlns=\"http://www.w3.org/1999/xhtml\"><table class=\"hl7__eu__lab__report\"><tr><th>Test</th><th>10-Nov-2021</th><th>Reference&#xA0;Range</th><th>Unit</th></tr><tr><td>Protein [Presence] in Urine by Test strip</td></tr></table></div>"
        },
        "status": "final",
        "subject": {
          "reference": "urn:uuid:46726fd3-45ae-4d96-b742-33e3ec85089a",
          "display": "Θεμιστοκλής Λιναρδάκη"
        },
        "effectiveDateTime": "2021-11-10T06:16:00Z",
        "specimen": {
          "reference": "urn:uuid:1b61807f-7e90-45c3-aa9b-e718600d8496"
        }
      }
    },
    {
      "fullUrl": "urn:uuid:6c19b0cd-659b-4b8c-8608-1b39ced986ee",
      "resource": {
        "resourceType": "Observation",
        "id": "6c19b0cd-659b-4b8c-8608-1b39ced986ee",
        "meta": {
          "profile": [
            "http://hl7.eu/fhir/laboratory/StructureDefinition/Observation-resultslab-eu-lab"
          ]
        },
        "performer": [
          {
            "display": "The Central European Lab"
          }
        ],
        "category": [
          {
            "coding": [
              {
                "system": "http://terminology.hl7.org/CodeSystem/observation-category",
                "code": "laboratory"
              }
            ]
          }
        ],
        "code": {
          "coding": [
            {
              "code": "5802-4",
              "system": "http://loinc.org",
              "display": "Nitrite [Presence] in Urine by Test strip"
            }
          ],
          "text": "Nitrite [Presence] in Urine by Test strip"
        },
        "text": {
          "status": "generated",
          "div": "<div xmlns=\"http://www.w3.org/1999/xhtml\"><table class=\"hl7__eu__lab__report\"><tr><th>Test</th><th>10-Nov-2021</th><th>Reference&#xA0;Range</th><th>Unit</th></tr><tr><td>Nitrite [Presence] in Urine by Test strip</td></tr></table></div>"
        },
        "status": "final",
        "subject": {
          "reference": "urn:uuid:46726fd3-45ae-4d96-b742-33e3ec85089a",
          "display": "Θεμιστοκλής Λιναρδάκη"
        },
        "effectiveDateTime": "2021-11-10T06:16:00Z",
        "specimen": {
          "reference": "urn:uuid:1b61807f-7e90-45c3-aa9b-e718600d8496"
        }
      }
    },
    {
      "fullUrl": "urn:uuid:3f33255e-6551-4000-bfd6-ce151f940752",
      "resource": {
        "resourceType": "Observation",
        "id": "3f33255e-6551-4000-bfd6-ce151f940752",
        "meta": {
          "profile": [
            "http://hl7.eu/fhir/laboratory/StructureDefinition/Observation-resultslab-eu-lab"
          ]
        },
        "performer": [
          {
            "display": "The Central European Lab"
          }
        ],
        "category": [
          {
            "coding": [
              {
                "system": "http://terminology.hl7.org/CodeSystem/observation-category",
                "code": "laboratory"
              }
            ]
          }
        ],
        "code": {
          "coding": [
            {
              "code": "5794-3",
              "system": "http://loinc.org",
              "display": "Hemoglobin [Presence] in Urine by Test strip"
            }
          ],
          "text": "Hemoglobin [Presence] in Urine by Test strip"
        },
        "text": {
          "status": "generated",
          "div": "<div xmlns=\"http://www.w3.org/1999/xhtml\"><table class=\"hl7__eu__lab__report\"><tr><th>Test</th><th>10-Nov-2021</th><th>Reference&#xA0;Range</th><th>Unit</th></tr><tr><td>Hemoglobin [Presence] in Urine by Test strip</td></tr></table></div>"
        },
        "status": "final",
        "subject": {
          "reference": "urn:uuid:46726fd3-45ae-4d96-b742-33e3ec85089a",
          "display": "Θεμιστοκλής Λιναρδάκη"
        },
        "effectiveDateTime": "2021-11-10T06:16:00Z",
        "specimen": {
          "reference": "urn:uuid:1b61807f-7e90-45c3-aa9b-e718600d8496"
        }
      }
    },
    {
      "fullUrl": "urn:uuid:c1c33324-7eb7-4a46-9c47-36fa928c9d61",
      "resource": {
        "resourceType": "Observation",
        "id": "c1c33324-7eb7-4a46-9c47-36fa928c9d61",
        "meta": {
          "profile": [
            "http://hl7.eu/fhir/laboratory/StructureDefinition/Observation-resultslab-eu-lab"
          ]
        },
        "performer": [
          {
            "display": "The Central European Lab"
          }
        ],
        "category": [
          {
            "coding": [
              {
                "system": "http://terminology.hl7.org/CodeSystem/observation-category",
                "code": "laboratory"
              }
            ]
          }
        ],
        "code": {
          "coding": [
            {
              "code": "5799-2",
              "system": "http://loinc.org",
              "display": "Leukocyte esterase [Presence] in Urine by Test strip"
            }
          ],
          "text": "Leukocyte esterase [Presence] in Urine by Test strip"
        },
        "text": {
          "status": "generated",
          "div": "<div xmlns=\"http://www.w3.org/1999/xhtml\"><table class=\"hl7__eu__lab__report\"><tr><th>Test</th><th>10-Nov-2021</th><th>Reference&#xA0;Range</th><th>Unit</th></tr><tr><td>Leukocyte esterase [Presence] in Urine by Test strip</td></tr></table></div>"
        },
        "status": "final",
        "subject": {
          "reference": "urn:uuid:46726fd3-45ae-4d96-b742-33e3ec85089a",
          "display": "Θεμιστοκλής Λιναρδάκη"
        },
        "effectiveDateTime": "2021-11-10T06:16:00Z",
        "specimen": {
          "reference": "urn:uuid:1b61807f-7e90-45c3-aa9b-e718600d8496"
        }
      }
    },
    {
      "fullUrl": "urn:uuid:ff56c9e5-ed3d-470a-b435-e90716700868",
      "resource": {
        "resourceType": "Observation",
        "id": "ff56c9e5-ed3d-470a-b435-e90716700868",
        "meta": {
          "profile": [
            "http://hl7.eu/fhir/laboratory/StructureDefinition/Observation-resultslab-eu-lab"
          ]
        },
        "performer": [
          {
            "display": "The Central European Lab"
          }
        ],
        "category": [
          {
            "coding": [
              {
                "system": "http://terminology.hl7.org/CodeSystem/observation-category",
                "code": "laboratory"
              }
            ]
          }
        ],
        "code": {
          "coding": [
            {
              "code": "4548-4",
              "system": "http://loinc.org",
              "display": "Hemoglobin A1c/Hemoglobin.total in Blood"
            }
          ],
          "text": "Hemoglobin A1c/Hemoglobin.total in Blood"
        },
        "valueQuantity": {
          "system": "http://unitsofmeasure.org",
          "value": 3.3,
          "unit": "%",
          "code": "%"
        },
        "referenceRange": [
          {
            "low": {
              "value": 4.3,
              "code": "%",
              "system": "http://unitsofmeasure.org"
            }
          },
          {
            "high": {
              "value": 6.4,
              "code": "%",
              "system": "http://unitsofmeasure.org"
            }
          }
        ],
        "interpretation": [
          {
            "coding": [
              {
                "code": "L",
                "system": "http://terminology.hl7.org/CodeSystem/v3-ObservationInterpretation",
                "display": "Low"
              }
            ]
          }
        ],
        "text": {
          "status": "generated",
          "div": "<div xmlns=\"http://www.w3.org/1999/xhtml\"><table class=\"hl7__eu__lab__report\"><tr><th>Test</th><th>10-Nov-2021</th><th>Reference&#xA0;Range</th><th>Unit</th></tr><tr><td>Hemoglobin A1c/Hemoglobin.total in Blood</td><td>3.3</td><td>4.3 - 6.4</td><td>L</td><td>%</td></tr></table></div>"
        },
        "status": "final",
        "subject": {
          "reference": "urn:uuid:46726fd3-45ae-4d96-b742-33e3ec85089a",
          "display": "Θεμιστοκλής Λιναρδάκη"
        },
        "effectiveDateTime": "2021-11-10T06:16:00Z",
        "specimen": {
          "reference": "urn:uuid:e6b334e6-d4f0-466e-be14-cf46377aae72"
        }
      }
    },
    {
      "fullUrl": "urn:uuid:6087ef18-1ef2-484a-b2ec-10aaafe5bd0f",
      "resource": {
        "resourceType": "Observation",
        "id": "6087ef18-1ef2-484a-b2ec-10aaafe5bd0f",
        "meta": {
          "profile": [
            "http://hl7.eu/fhir/laboratory/StructureDefinition/Observation-resultslab-eu-lab"
          ]
        },
        "performer": [
          {
            "display": "The Central European Lab"
          }
        ],
        "category": [
          {
            "coding": [
              {
                "system": "http://terminology.hl7.org/CodeSystem/observation-category",
                "code": "laboratory"
              }
            ]
          }
        ],
        "code": {
          "coding": [
            {
              "code": "2339-0",
              "system": "http://loinc.org",
              "display": "Glucose [Mass/volume] in Blood"
            }
          ],
          "text": "Glucose [Mass/volume] in Blood"
        },
        "valueQuantity": {
          "system": "http://unitsofmeasure.org",
          "value": 96.6,
          "unit": "mg/dL",
          "code": "mg/dL"
        },
        "referenceRange": [
          {
            "low": {
              "value": 70,
              "code": "mg/dL",
              "system": "http://unitsofmeasure.org"
            }
          },
          {
            "high": {
              "value": 140,
              "code": "mg/dL",
              "system": "http://unitsofmeasure.org"
            }
          }
        ],
        "text": {
          "status": "generated",
          "div": "<div xmlns=\"http://www.w3.org/1999/xhtml\"><table class=\"hl7__eu__lab__report\"><tr><th>Test</th><th>10-Nov-2021</th><th>Reference&#xA0;Range</th><th>Unit</th></tr><tr><td>Glucose [Mass/volume] in Blood</td><td>96.6</td><td>70 - 140</td><td></td><td>mg/dL</td></tr></table></div>"
        },
        "status": "final",
        "subject": {
          "reference": "urn:uuid:46726fd3-45ae-4d96-b742-33e3ec85089a",
          "display": "Θεμιστοκλής Λιναρδάκη"
        },
        "effectiveDateTime": "2021-11-10T06:16:00Z",
        "specimen": {
          "reference": "urn:uuid:e6b334e6-d4f0-466e-be14-cf46377aae72"
        }
      }
    },
    {
      "fullUrl": "urn:uuid:28a67089-06ff-43f5-be66-6ad64065bc39",
      "resource": {
        "resourceType": "Observation",
        "id": "28a67089-06ff-43f5-be66-6ad64065bc39",
        "meta": {
          "profile": [
            "http://hl7.eu/fhir/laboratory/StructureDefinition/Observation-resultslab-eu-lab"
          ]
        },
        "performer": [
          {
            "display": "The Central European Lab"
          }
        ],
        "category": [
          {
            "coding": [
              {
                "system": "http://terminology.hl7.org/CodeSystem/observation-category",
                "code": "laboratory"
              }
            ]
          }
        ],
        "code": {
          "coding": [
            {
              "code": "6299-2",
              "system": "http://loinc.org",
              "display": "Urea nitrogen [Mass/volume] in Blood"
            }
          ],
          "text": "Urea nitrogen [Mass/volume] in Blood"
        },
        "valueQuantity": {
          "system": "http://unitsofmeasure.org",
          "value": 9.5,
          "unit": "mg/dL",
          "code": "mg/dL"
        },
        "referenceRange": [
          {
            "low": {
              "value": 7,
              "code": "mg/dL",
              "system": "http://unitsofmeasure.org"
            }
          },
          {
            "high": {
              "value": 20,
              "code": "mg/dL",
              "system": "http://unitsofmeasure.org"
            }
          }
        ],
        "text": {
          "status": "generated",
          "div": "<div xmlns=\"http://www.w3.org/1999/xhtml\"><table class=\"hl7__eu__lab__report\"><tr><th>Test</th><th>10-Nov-2021</th><th>Reference&#xA0;Range</th><th>Unit</th></tr><tr><td>Urea nitrogen [Mass/volume] in Blood</td><td>9.5</td><td>7 - 20</td><td></td><td>mg/dL</td></tr></table></div>"
        },
        "status": "final",
        "subject": {
          "reference": "urn:uuid:46726fd3-45ae-4d96-b742-33e3ec85089a",
          "display": "Θεμιστοκλής Λιναρδάκη"
        },
        "effectiveDateTime": "2021-11-10T06:16:00Z",
        "specimen": {
          "reference": "urn:uuid:e6b334e6-d4f0-466e-be14-cf46377aae72"
        }
      }
    },
    {
      "fullUrl": "urn:uuid:33bceef6-5e9e-4f4e-962f-9ef93599a701",
      "resource": {
        "resourceType": "Observation",
        "id": "33bceef6-5e9e-4f4e-962f-9ef93599a701",
        "meta": {
          "profile": [
            "http://hl7.eu/fhir/laboratory/StructureDefinition/Observation-resultslab-eu-lab"
          ]
        },
        "performer": [
          {
            "display": "The Central European Lab"
          }
        ],
        "category": [
          {
            "coding": [
              {
                "system": "http://terminology.hl7.org/CodeSystem/observation-category",
                "code": "laboratory"
              }
            ]
          }
        ],
        "code": {
          "coding": [
            {
              "code": "38483-4",
              "system": "http://loinc.org",
              "display": "Creatinine [Mass/volume] in Blood"
            }
          ],
          "text": "Creatinine [Mass/volume] in Blood"
        },
        "valueQuantity": {
          "system": "http://unitsofmeasure.org",
          "value": 8,
          "unit": "mg/dL",
          "code": "mg/dL"
        },
        "referenceRange": [
          {
            "low": {
              "value": 0.6,
              "code": "mg/dL",
              "system": "http://unitsofmeasure.org"
            }
          },
          {
            "high": {
              "value": 1.3,
              "code": "mg/dL",
              "system": "http://unitsofmeasure.org"
            }
          }
        ],
        "interpretation": [
          {
            "coding": [
              {
                "code": "H",
                "system": "http://terminology.hl7.org/CodeSystem/v3-ObservationInterpretation",
                "display": "High"
              }
            ]
          }
        ],
        "text": {
          "status": "generated",
          "div": "<div xmlns=\"http://www.w3.org/1999/xhtml\"><table class=\"hl7__eu__lab__report\"><tr><th>Test</th><th>10-Nov-2021</th><th>Reference&#xA0;Range</th><th>Unit</th></tr><tr><td>Creatinine [Mass/volume] in Blood</td><td>8.0</td><td>0.6 - 1.3</td><td>H</td><td>mg/dL</td></tr></table></div>"
        },
        "status": "final",
        "subject": {
          "reference": "urn:uuid:46726fd3-45ae-4d96-b742-33e3ec85089a",
          "display": "Θεμιστοκλής Λιναρδάκη"
        },
        "effectiveDateTime": "2021-11-10T06:16:00Z",
        "specimen": {
          "reference": "urn:uuid:e6b334e6-d4f0-466e-be14-cf46377aae72"
        }
      }
    },
    {
      "fullUrl": "urn:uuid:df5f26c1-bfba-4a8b-bc95-ab8dc79b5f70",
      "resource": {
        "resourceType": "Observation",
        "id": "df5f26c1-bfba-4a8b-bc95-ab8dc79b5f70",
        "meta": {
          "profile": [
            "http://hl7.eu/fhir/laboratory/StructureDefinition/Observation-resultslab-eu-lab"
          ]
        },
        "performer": [
          {
            "display": "The Central European Lab"
          }
        ],
        "category": [
          {
            "coding": [
              {
                "system": "http://terminology.hl7.org/CodeSystem/observation-category",
                "code": "laboratory"
              }
            ]
          }
        ],
        "code": {
          "coding": [
            {
              "code": "49765-1",
              "system": "http://loinc.org",
              "display": "Calcium [Mass/volume] in Blood"
            }
          ],
          "text": "Calcium [Mass/volume] in Blood"
        },
        "valueQuantity": {
          "system": "http://unitsofmeasure.org",
          "value": 9.4,
          "unit": "mg/dL",
          "code": "mg/dL"
        },
        "referenceRange": [
          {
            "low": {
              "value": 8.5,
              "code": "mg/dL",
              "system": "http://unitsofmeasure.org"
            }
          },
          {
            "high": {
              "value": 10.5,
              "code": "mg/dL",
              "system": "http://unitsofmeasure.org"
            }
          }
        ],
        "text": {
          "status": "generated",
          "div": "<div xmlns=\"http://www.w3.org/1999/xhtml\"><table class=\"hl7__eu__lab__report\"><tr><th>Test</th><th>10-Nov-2021</th><th>Reference&#xA0;Range</th><th>Unit</th></tr><tr><td>Calcium [Mass/volume] in Blood</td><td>9.4</td><td>8.5 - 10.5</td><td></td><td>mg/dL</td></tr></table></div>"
        },
        "status": "final",
        "subject": {
          "reference": "urn:uuid:46726fd3-45ae-4d96-b742-33e3ec85089a",
          "display": "Θεμιστοκλής Λιναρδάκη"
        },
        "effectiveDateTime": "2021-11-10T06:16:00Z",
        "specimen": {
          "reference": "urn:uuid:e6b334e6-d4f0-466e-be14-cf46377aae72"
        }
      }
    },
    {
      "fullUrl": "urn:uuid:d7da5509-69f0-4756-938f-0230b15f7e72",
      "resource": {
        "resourceType": "Observation",
        "id": "d7da5509-69f0-4756-938f-0230b15f7e72",
        "meta": {
          "profile": [
            "http://hl7.eu/fhir/laboratory/StructureDefinition/Observation-resultslab-eu-lab"
          ]
        },
        "performer": [
          {
            "display": "The Central European Lab"
          }
        ],
        "category": [
          {
            "coding": [
              {
                "system": "http://terminology.hl7.org/CodeSystem/observation-category",
                "code": "laboratory"
              }
            ]
          }
        ],
        "code": {
          "coding": [
            {
              "code": "2947-0",
              "system": "http://loinc.org",
              "display": "Sodium [Moles/volume] in Blood"
            }
          ],
          "text": "Sodium [Moles/volume] in Blood"
        },
        "valueQuantity": {
          "system": "http://unitsofmeasure.org",
          "value": 142.2,
          "unit": "mmol/L",
          "code": "mmol/L"
        },
        "referenceRange": [
          {
            "low": {
              "value": 135,
              "code": "mmol/L",
              "system": "http://unitsofmeasure.org"
            }
          },
          {
            "high": {
              "value": 145,
              "code": "mmol/L",
              "system": "http://unitsofmeasure.org"
            }
          }
        ],
        "text": {
          "status": "generated",
          "div": "<div xmlns=\"http://www.w3.org/1999/xhtml\"><table class=\"hl7__eu__lab__report\"><tr><th>Test</th><th>10-Nov-2021</th><th>Reference&#xA0;Range</th><th>Unit</th></tr><tr><td>Sodium [Moles/volume] in Blood</td><td>142.2</td><td>135 - 145</td><td></td><td>mmol/L</td></tr></table></div>"
        },
        "status": "final",
        "subject": {
          "reference": "urn:uuid:46726fd3-45ae-4d96-b742-33e3ec85089a",
          "display": "Θεμιστοκλής Λιναρδάκη"
        },
        "effectiveDateTime": "2021-11-10T06:16:00Z",
        "specimen": {
          "reference": "urn:uuid:e6b334e6-d4f0-466e-be14-cf46377aae72"
        }
      }
    },
    {
      "fullUrl": "urn:uuid:26919b45-db76-47b2-88f6-cdfaface1b0e",
      "resource": {
        "resourceType": "Observation",
        "id": "26919b45-db76-47b2-88f6-cdfaface1b0e",
        "meta": {
          "profile": [
            "http://hl7.eu/fhir/laboratory/StructureDefinition/Observation-resultslab-eu-lab"
          ]
        },
        "performer": [
          {
            "display": "The Central European Lab"
          }
        ],
        "category": [
          {
            "coding": [
              {
                "system": "http://terminology.hl7.org/CodeSystem/observation-category",
                "code": "laboratory"
              }
            ]
          }
        ],
        "code": {
          "coding": [
            {
              "code": "6298-4",
              "system": "http://loinc.org",
              "display": "Potassium [Moles/volume] in Blood"
            }
          ],
          "text": "Potassium [Moles/volume] in Blood"
        },
        "valueQuantity": {
          "system": "http://unitsofmeasure.org",
          "value": 4.5,
          "unit": "mmol/L",
          "code": "mmol/L"
        },
        "referenceRange": [
          {
            "low": {
              "value": 3.5,
              "code": "mmol/L",
              "system": "http://unitsofmeasure.org"
            }
          },
          {
            "high": {
              "value": 5.3,
              "code": "mmol/L",
              "system": "http://unitsofmeasure.org"
            }
          }
        ],
        "text": {
          "status": "generated",
          "div": "<div xmlns=\"http://www.w3.org/1999/xhtml\"><table class=\"hl7__eu__lab__report\"><tr><th>Test</th><th>10-Nov-2021</th><th>Reference&#xA0;Range</th><th>Unit</th></tr><tr><td>Potassium [Moles/volume] in Blood</td><td>4.5</td><td>3.5 - 5.3</td><td></td><td>mmol/L</td></tr></table></div>"
        },
        "status": "final",
        "subject": {
          "reference": "urn:uuid:46726fd3-45ae-4d96-b742-33e3ec85089a",
          "display": "Θεμιστοκλής Λιναρδάκη"
        },
        "effectiveDateTime": "2021-11-10T06:16:00Z",
        "specimen": {
          "reference": "urn:uuid:e6b334e6-d4f0-466e-be14-cf46377aae72"
        }
      }
    },
    {
      "fullUrl": "urn:uuid:ea69e538-7417-41cd-86d4-25eb335c266b",
      "resource": {
        "resourceType": "Observation",
        "id": "ea69e538-7417-41cd-86d4-25eb335c266b",
        "meta": {
          "profile": [
            "http://hl7.eu/fhir/laboratory/StructureDefinition/Observation-resultslab-eu-lab"
          ]
        },
        "performer": [
          {
            "display": "The Central European Lab"
          }
        ],
        "category": [
          {
            "coding": [
              {
                "system": "http://terminology.hl7.org/CodeSystem/observation-category",
                "code": "laboratory"
              }
            ]
          }
        ],
        "code": {
          "coding": [
            {
              "code": "2069-3",
              "system": "http://loinc.org",
              "display": "Chloride [Moles/volume] in Blood"
            }
          ],
          "text": "Chloride [Moles/volume] in Blood"
        },
        "valueQuantity": {
          "system": "http://unitsofmeasure.org",
          "value": 110.7,
          "unit": "mmol/L",
          "code": "mmol/L"
        },
        "referenceRange": [
          {
            "low": {
              "value": 98,
              "code": "mmol/L",
              "system": "http://unitsofmeasure.org"
            }
          },
          {
            "high": {
              "value": 110,
              "code": "mmol/L",
              "system": "http://unitsofmeasure.org"
            }
          }
        ],
        "interpretation": [
          {
            "coding": [
              {
                "code": "H",
                "system": "http://terminology.hl7.org/CodeSystem/v3-ObservationInterpretation",
                "display": "High"
              }
            ]
          }
        ],
        "text": {
          "status": "generated",
          "div": "<div xmlns=\"http://www.w3.org/1999/xhtml\"><table class=\"hl7__eu__lab__report\"><tr><th>Test</th><th>10-Nov-2021</th><th>Reference&#xA0;Range</th><th>Unit</th></tr><tr><td>Chloride [Moles/volume] in Blood</td><td>110.7</td><td>98 - 110</td><td>H</td><td>mmol/L</td></tr></table></div>"
        },
        "status": "final",
        "subject": {
          "reference": "urn:uuid:46726fd3-45ae-4d96-b742-33e3ec85089a",
          "display": "Θεμιστοκλής Λιναρδάκη"
        },
        "effectiveDateTime": "2021-11-10T06:16:00Z",
        "specimen": {
          "reference": "urn:uuid:e6b334e6-d4f0-466e-be14-cf46377aae72"
        }
      }
    },
    {
      "fullUrl": "urn:uuid:79ef510c-e557-4971-bdac-bac4f979055c",
      "resource": {
        "resourceType": "Observation",
        "id": "79ef510c-e557-4971-bdac-bac4f979055c",
        "meta": {
          "profile": [
            "http://hl7.eu/fhir/laboratory/StructureDefinition/Observation-resultslab-eu-lab"
          ]
        },
        "performer": [
          {
            "display": "The Central European Lab"
          }
        ],
        "category": [
          {
            "coding": [
              {
                "system": "http://terminology.hl7.org/CodeSystem/observation-category",
                "code": "laboratory"
              }
            ]
          }
        ],
        "code": {
          "coding": [
            {
              "code": "20565-8",
              "system": "http://loinc.org",
              "display": "Carbon dioxide, total [Moles/volume] in Blood"
            }
          ],
          "text": "Carbon dioxide, total [Moles/volume] in Blood"
        },
        "valueQuantity": {
          "system": "http://unitsofmeasure.org",
          "value": 26.6,
          "unit": "mmol/L",
          "code": "mmol/L"
        },
        "referenceRange": [
          {
            "low": {
              "value": 22,
              "code": "mmol/L",
              "system": "http://unitsofmeasure.org"
            }
          },
          {
            "high": {
              "value": 29,
              "code": "mmol/L",
              "system": "http://unitsofmeasure.org"
            }
          }
        ],
        "text": {
          "status": "generated",
          "div": "<div xmlns=\"http://www.w3.org/1999/xhtml\"><table class=\"hl7__eu__lab__report\"><tr><th>Test</th><th>10-Nov-2021</th><th>Reference&#xA0;Range</th><th>Unit</th></tr><tr><td>Carbon dioxide, total [Moles/volume] in Blood</td><td>26.6</td><td>22 - 29</td><td></td><td>mmol/L</td></tr></table></div>"
        },
        "status": "final",
        "subject": {
          "reference": "urn:uuid:46726fd3-45ae-4d96-b742-33e3ec85089a",
          "display": "Θεμιστοκλής Λιναρδάκη"
        },
        "effectiveDateTime": "2021-11-10T06:16:00Z",
        "specimen": {
          "reference": "urn:uuid:e6b334e6-d4f0-466e-be14-cf46377aae72"
        }
      }
    },
    {
      "fullUrl": "urn:uuid:ec2bb8eb-c235-4fdf-ba60-288461191934",
      "resource": {
        "resourceType": "Observation",
        "id": "ec2bb8eb-c235-4fdf-ba60-288461191934",
        "meta": {
          "profile": [
            "http://hl7.eu/fhir/laboratory/StructureDefinition/Observation-resultslab-eu-lab"
          ]
        },
        "performer": [
          {
            "display": "The Central European Lab"
          }
        ],
        "category": [
          {
            "coding": [
              {
                "system": "http://terminology.hl7.org/CodeSystem/observation-category",
                "code": "laboratory"
              }
            ]
          }
        ],
        "code": {
          "coding": [
            {
              "code": "2093-3",
              "system": "http://loinc.org",
              "display": "Cholesterol [Mass/volume] in Serum or Plasma"
            }
          ],
          "text": "Cholesterol [Mass/volume] in Serum or Plasma"
        },
        "valueQuantity": {
          "system": "http://unitsofmeasure.org",
          "value": 92.7,
          "unit": "mg/dL",
          "code": "mg/dL"
        },
        "referenceRange": [
          {
            "low": {
              "value": 125,
              "code": "mg/dL",
              "system": "http://unitsofmeasure.org"
            }
          },
          {
            "high": {
              "value": 200,
              "code": "mg/dL",
              "system": "http://unitsofmeasure.org"
            }
          }
        ],
        "interpretation": [
          {
            "coding": [
              {
                "code": "L",
                "system": "http://terminology.hl7.org/CodeSystem/v3-ObservationInterpretation",
                "display": "Low"
              }
            ]
          }
        ],
        "text": {
          "status": "generated",
          "div": "<div xmlns=\"http://www.w3.org/1999/xhtml\"><table class=\"hl7__eu__lab__report\"><tr><th>Test</th><th>10-Nov-2021</th><th>Reference&#xA0;Range</th><th>Unit</th></tr><tr><td>Cholesterol [Mass/volume] in Serum or Plasma</td><td>92.7</td><td>125 - 200</td><td>L</td><td>mg/dL</td></tr></table></div>"
        },
        "status": "final",
        "subject": {
          "reference": "urn:uuid:46726fd3-45ae-4d96-b742-33e3ec85089a",
          "display": "Θεμιστοκλής Λιναρδάκη"
        },
        "effectiveDateTime": "2021-11-10T06:16:00Z",
        "specimen": {
          "reference": "urn:uuid:23e651ea-6b13-4d92-9aab-be2661336b80"
        }
      }
    },
    {
      "fullUrl": "urn:uuid:32ac4422-678f-4d61-9100-3f752ce8f773",
      "resource": {
        "resourceType": "Observation",
        "id": "32ac4422-678f-4d61-9100-3f752ce8f773",
        "meta": {
          "profile": [
            "http://hl7.eu/fhir/laboratory/StructureDefinition/Observation-resultslab-eu-lab"
          ]
        },
        "performer": [
          {
            "display": "The Central European Lab"
          }
        ],
        "category": [
          {
            "coding": [
              {
                "system": "http://terminology.hl7.org/CodeSystem/observation-category",
                "code": "laboratory"
              }
            ]
          }
        ],
        "code": {
          "coding": [
            {
              "code": "2571-8",
              "system": "http://loinc.org",
              "display": "Triglyceride [Mass/volume] in Serum or Plasma"
            }
          ],
          "text": "Triglyceride [Mass/volume] in Serum or Plasma"
        },
        "valueQuantity": {
          "system": "http://unitsofmeasure.org",
          "value": 115.8,
          "unit": "mg/dL",
          "code": "mg/dL"
        },
        "referenceRange": [
          {
            "low": {
              "value": 0,
              "code": "mg/dL",
              "system": "http://unitsofmeasure.org"
            }
          },
          {
            "high": {
              "value": 150,
              "code": "mg/dL",
              "system": "http://unitsofmeasure.org"
            }
          }
        ],
        "text": {
          "status": "generated",
          "div": "<div xmlns=\"http://www.w3.org/1999/xhtml\"><table class=\"hl7__eu__lab__report\"><tr><th>Test</th><th>10-Nov-2021</th><th>Reference&#xA0;Range</th><th>Unit</th></tr><tr><td>Triglyceride [Mass/volume] in Serum or Plasma</td><td>115.8</td><td>0 - 150</td><td></td><td>mg/dL</td></tr></table></div>"
        },
        "status": "final",
        "subject": {
          "reference": "urn:uuid:46726fd3-45ae-4d96-b742-33e3ec85089a",
          "display": "Θεμιστοκλής Λιναρδάκη"
        },
        "effectiveDateTime": "2021-11-10T06:16:00Z",
        "specimen": {
          "reference": "urn:uuid:23e651ea-6b13-4d92-9aab-be2661336b80"
        }
      }
    },
    {
      "fullUrl": "urn:uuid:dbf312c9-fc5c-4c52-b047-d57e83638fb5",
      "resource": {
        "resourceType": "Observation",
        "id": "dbf312c9-fc5c-4c52-b047-d57e83638fb5",
        "meta": {
          "profile": [
            "http://hl7.eu/fhir/laboratory/StructureDefinition/Observation-resultslab-eu-lab"
          ]
        },
        "performer": [
          {
            "display": "The Central European Lab"
          }
        ],
        "category": [
          {
            "coding": [
              {
                "system": "http://terminology.hl7.org/CodeSystem/observation-category",
                "code": "laboratory"
              }
            ]
          }
        ],
        "code": {
          "coding": [
            {
              "code": "18262-6",
              "system": "http://loinc.org",
              "display": "Cholesterol in LDL [Mass/volume] in Serum or Plasma by Direct assay"
            }
          ],
          "text": "Cholesterol in LDL [Mass/volume] in Serum or Plasma by Direct assay"
        },
        "valueQuantity": {
          "system": "http://unitsofmeasure.org",
          "value": 39.7,
          "unit": "mg/dL",
          "code": "mg/dL"
        },
        "referenceRange": [
          {
            "low": {
              "value": 0,
              "code": "mg/dL",
              "system": "http://unitsofmeasure.org"
            }
          },
          {
            "high": {
              "value": 130,
              "code": "mg/dL",
              "system": "http://unitsofmeasure.org"
            }
          }
        ],
        "text": {
          "status": "generated",
          "div": "<div xmlns=\"http://www.w3.org/1999/xhtml\"><table class=\"hl7__eu__lab__report\"><tr><th>Test</th><th>10-Nov-2021</th><th>Reference&#xA0;Range</th><th>Unit</th></tr><tr><td>Cholesterol in LDL [Mass/volume] in Serum or Plasma by Direct assay</td><td>39.7</td><td>0 - 130</td><td></td><td>mg/dL</td></tr></table></div>"
        },
        "status": "final",
        "subject": {
          "reference": "urn:uuid:46726fd3-45ae-4d96-b742-33e3ec85089a",
          "display": "Θεμιστοκλής Λιναρδάκη"
        },
        "effectiveDateTime": "2021-11-10T06:16:00Z",
        "specimen": {
          "reference": "urn:uuid:23e651ea-6b13-4d92-9aab-be2661336b80"
        }
      }
    },
    {
      "fullUrl": "urn:uuid:1b3cf0f9-f54d-4cd5-b2be-1d4bfe138ecb",
      "resource": {
        "resourceType": "Observation",
        "id": "1b3cf0f9-f54d-4cd5-b2be-1d4bfe138ecb",
        "meta": {
          "profile": [
            "http://hl7.eu/fhir/laboratory/StructureDefinition/Observation-resultslab-eu-lab"
          ]
        },
        "performer": [
          {
            "display": "The Central European Lab"
          }
        ],
        "category": [
          {
            "coding": [
              {
                "system": "http://terminology.hl7.org/CodeSystem/observation-category",
                "code": "laboratory"
              }
            ]
          }
        ],
        "code": {
          "coding": [
            {
              "code": "2085-9",
              "system": "http://loinc.org",
              "display": "Cholesterol in HDL [Mass/volume] in Serum or Plasma"
            }
          ],
          "text": "Cholesterol in HDL [Mass/volume] in Serum or Plasma"
        },
        "valueQuantity": {
          "system": "http://unitsofmeasure.org",
          "value": 29.9,
          "unit": "mg/dL",
          "code": "mg/dL"
        },
        "referenceRange": [
          {
            "low": {
              "value": 40,
              "code": "mg/dL",
              "system": "http://unitsofmeasure.org"
            }
          },
          {
            "high": {
              "value": 60,
              "code": "mg/dL",
              "system": "http://unitsofmeasure.org"
            }
          }
        ],
        "interpretation": [
          {
            "coding": [
              {
                "code": "L",
                "system": "http://terminology.hl7.org/CodeSystem/v3-ObservationInterpretation",
                "display": "Low"
              }
            ]
          }
        ],
        "text": {
          "status": "generated",
          "div": "<div xmlns=\"http://www.w3.org/1999/xhtml\"><table class=\"hl7__eu__lab__report\"><tr><th>Test</th><th>10-Nov-2021</th><th>Reference&#xA0;Range</th><th>Unit</th></tr><tr><td>Cholesterol in HDL [Mass/volume] in Serum or Plasma</td><td>29.9</td><td>40 - 60</td><td>L</td><td>mg/dL</td></tr></table></div>"
        },
        "status": "final",
        "subject": {
          "reference": "urn:uuid:46726fd3-45ae-4d96-b742-33e3ec85089a",
          "display": "Θεμιστοκλής Λιναρδάκη"
        },
        "effectiveDateTime": "2021-11-10T06:16:00Z",
        "specimen": {
          "reference": "urn:uuid:23e651ea-6b13-4d92-9aab-be2661336b80"
        }
      }
    },
    {
      "fullUrl": "urn:uuid:7cba5db2-6a76-4fce-a5df-281df50f64c7",
      "resource": {
        "resourceType": "Device",
        "id": "7cba5db2-6a76-4fce-a5df-281df50f64c7",
        "deviceName": [
          {
            "name": "SYNDERAI Synthetic Generator",
            "type": "manufacturer-name"
          }
        ],
        "version": [
          {
            "value": "5.0"
          }
        ],
        "text": {
          "status": "generated",
          "div": "<div xmlns=\"http://www.w3.org/1999/xhtml\">SYNDERAI Synthetic Generator v5.0</div>"
        },
        "status": "active\"",
        "distinctIdentifier": "synderai-generator-50",
        "manufacturer": "SYNDERAI Project"
      }
    },
    {
      "fullUrl": "urn:uuid:4ede5b2b-d70b-49ad-9f53-cae71969d97f",
      "resource": {
        "resourceType": "Provenance",
        "id": "4ede5b2b-d70b-49ad-9f53-cae71969d97f",
        "target": [
          {
            "reference": "Patient/46726fd3-45ae-4d96-b742-33e3ec85089a"
          },
          {
            "reference": "Bundle/c2229fbb-7436-46d1-8f41-86c18c561aa0"
          },
          {
            "reference": "Composition/ba926e51-39af-4fad-b3a2-5ccd12fab3ac"
          },
          {
            "reference": "PractitionerRole/cbac2064-5b2e-481b-8996-fc1920f40179"
          },
          {
            "reference": "Practitioner/76d2865e-3826-4a07-99a1-db7b25412674"
          },
          {
            "reference": "PractitionerRole/698bc1c3-e33e-4f0d-8899-09f3d1937278"
          },
          {
            "reference": "Organization/048b2073-4a82-4056-8994-fae23930a9c7"
          }
        ],
        "activity": {
          "text": "Synthetic Example Data Generation"
        },
        "policy": [
          "https://synderai.net/synderai-synthetic-data-policy"
        ],
        "agent": [
          {
            "type": {
              "text": "author"
            },
            "who": {
              "reference": "Device/7cba5db2-6a76-4fce-a5df-281df50f64c7"
            }
          }
        ],
        "reason": [
          {
            "text": "Interoperability Testing and Training (non-clinical use)"
          }
        ],
        "text": {
          "status": "generated",
          "div": "<div xmlns=\"http://www.w3.org/1999/xhtml\">Provenance for SYNDERAI Synthetic Example Data Resource</div>"
        },
        "recorded": "2021-11-10T07:16:00Z"
      }
    },
    {
      "fullUrl": "urn:uuid:cbac2064-5b2e-481b-8996-fc1920f40179",
      "resource": {
        "resourceType": "PractitionerRole",
        "id": "cbac2064-5b2e-481b-8996-fc1920f40179",
        "meta": {
          "profile": [
            "http://hl7.eu/fhir/base/StructureDefinition/practitionerRole-eu"
          ]
        },
        "text": {
          "status": "generated",
          "div": "<div xmlns=\"http://www.w3.org/1999/xhtml\">Laboratory Role Id: cbac2064-5b2e-481b-8996-fc1920f40179</div>"
        },
        "practitioner": {
          "reference": "urn:uuid:76d2865e-3826-4a07-99a1-db7b25412674"
        }
      }
    },
    {
      "fullUrl": "urn:uuid:76d2865e-3826-4a07-99a1-db7b25412674",
      "resource": {
        "resourceType": "Practitioner",
        "id": "76d2865e-3826-4a07-99a1-db7b25412674",
        "meta": {
          "profile": [
            "http://hl7.eu/fhir/base/StructureDefinition/practitioner-eu"
          ]
        },
        "identifier": [
          {
            "assigner": {
              "display": "HL7 Europe"
            },
            "system": "urn:oid:2.16.840.1.113883.2.51.999",
            "value": "6a25ba52-dc3e-4d65-8f51-a0febcce3430"
          }
        ],
        "name": [
          {
            "prefix": [
              "dr"
            ],
            "given": [
              "Ex"
            ],
            "family": "Ample"
          }
        ],
        "address": [
          {
            "line": [
              "Laboratoire Central Européenne",
              "Boulevard du Jardin Botanique 32"
            ],
            "postalCode": "1000",
            "city": "Brussels",
            "country": "Belgium"
          }
        ],
        "text": {
          "status": "generated",
          "div": "<div xmlns=\"http://www.w3.org/1999/xhtml\">Laboratory: Laboratoire Central Européenne, 1000 Brussels, Belgium</div>"
        }
      }
    }
  ],
  "type": "document",
  "timestamp": "2021-11-10T07:16:00Z"
}
