{
  "resourceType": "Bundle",
  "id": "10fbdc9f-e7e3-4a76-89fd-64cc0681f712",
  "meta": {
    "profile": [
      "http://hl7.eu/fhir/laboratory/StructureDefinition/Bundle-eu-lab"
    ]
  },
  "identifier": {
    "assigner": {
      "display": "HL7 Europe"
    },
    "system": "urn:oid:2.16.840.1.113883.2.51.999",
    "value": "6037c21d-b41f-4cd8-9f89-c83bd4598ead"
  },
  "entry": [
    {
      "fullUrl": "urn:uuid:dcaec202-0c52-4402-91c7-836ac527160f",
      "resource": {
        "resourceType": "Composition",
        "id": "dcaec202-0c52-4402-91c7-836ac527160f",
        "meta": {
          "profile": [
            "http://hl7.eu/fhir/laboratory/StructureDefinition/Composition-eu-lab"
          ]
        },
        "identifier": {
          "assigner": {
            "display": "HL7 Europe"
          },
          "system": "urn:oid:2.16.840.1.113883.2.51.999",
          "value": "b446a4d9-0205-4010-bf3e-d1da7030c3a0"
        },
        "author": [
          {
            "reference": "urn:uuid:4f7a7c24-9a40-46d2-b938-d93d2a5d50e8"
          }
        ],
        "category": [
          {
            "coding": [
              {
                "code": "26436-6",
                "system": "http://loinc.org",
                "display": "Laboratory studies (set)"
              }
            ]
          }
        ],
        "type": {
          "coding": [
            {
              "code": "11502-2",
              "system": "http://loinc.org",
              "display": "Laboratory report"
            }
          ],
          "text": "Laboratory Report"
        },
        "section": [
          {
            "code": {
              "coding": [
                {
                  "code": "26436-6",
                  "system": "http://loinc.org",
                  "display": "Laboratory studies (set)"
                }
              ],
              "text": "Laboratory studies"
            },
            "section": [
              {
                "code": {
                  "coding": [
                    {
                      "code": "$18719-5",
                      "system": "http://loinc.org",
                      "display": "Chemistry studies (set)"
                    }
                  ],
                  "text": "Chemistry"
                },
                "entry": [
                  {
                    "reference": "urn:uuid:1daee6fd-20ae-4350-b222-76a7d90ca708"
                  },
                  {
                    "reference": "urn:uuid:cced7121-3048-4dd6-a394-5549060fcd87"
                  },
                  {
                    "reference": "urn:uuid:f61e1874-3bce-4821-8261-7a957694f11c"
                  },
                  {
                    "reference": "urn:uuid:deae3778-c5b8-4613-8d12-7938f9deff77"
                  },
                  {
                    "reference": "urn:uuid:ef39e649-c067-4140-aa24-fdc999567d08"
                  },
                  {
                    "reference": "urn:uuid:01348a3a-bff9-4982-8b84-f1a6a4680e31"
                  },
                  {
                    "reference": "urn:uuid:82f67e22-4c21-4e33-8740-cc8f78d4efdd"
                  },
                  {
                    "reference": "urn:uuid:4526c43e-54dc-41c9-9a0c-ed934834eb2e"
                  },
                  {
                    "reference": "urn:uuid:9edacc7f-b629-4f6c-95db-b65bd4efba8b"
                  },
                  {
                    "reference": "urn:uuid:1b4fd0c3-0a45-490f-a5e0-57ee8f084405"
                  },
                  {
                    "reference": "urn:uuid:585ea15f-d346-4f47-9d5a-172ffd9a35c4"
                  }
                ],
                "text": {
                  "status": "generated",
                  "div": "<div xmlns=\"http://www.w3.org/1999/xhtml\"><h3>Chemistry</h3><table class=\"hl7__eu__lab__report\"><thead><tr><th>Test</th><th>22-MAY-2017</th><th>Reference&#xA0;Range</th><th>Unit</th></tr></thead><tbody><tr><td>pH of Arterial blood</td><td><strong>7.0 L</strong></td><td>7.35 - 7.45</td><td>[pH]</td></tr><tr><td>Carbon dioxide [Partial pressure] in Arterial blood</td><td>42.3</td><td>38 - 48</td><td>mm[Hg]</td></tr><tr><td>Oxygen [Partial pressure] in Arterial blood</td><td>81.9</td><td>75 - 100</td><td>mm[Hg]</td></tr><tr><td>Bicarbonate [Moles/volume] in Arterial blood</td><td>24.9</td><td>22 - 31</td><td>mmol/L</td></tr><tr><td>Oxygen saturation in Arterial blood</td><td><strong>94.0 L</strong></td><td>95 - 100</td><td>%</td></tr><tr><td>pH of Venous blood</td><td>7.4</td><td>7.35 - 7.45</td><td>[pH]</td></tr><tr><td>Carbon dioxide [Partial pressure] in Venous blood</td><td>39.5</td><td>22 - 48</td><td>mm[Hg]</td></tr><tr><td>Oxygen [Partial pressure] in Venous blood</td><td>40.7</td><td>30 - 50</td><td>mm[Hg]</td></tr><tr><td>Bicarbonate [Moles/volume] in Venous blood</td><td>27.2</td><td>22 - 32</td><td>mmol/L</td></tr><tr><td>Carbon dioxide, total [Moles/volume] in Venous blood</td><td>1.6</td><td>1.2 - 2.6</td><td>mmol/L</td></tr><tr><td>Magnesium [Mass/volume] in Serum or Plasma</td><td>1.9</td><td>1.7 - 2.6</td><td>mg/dL</td></tr></tbody></table></div>"
                },
                "title": "Chemistry"
              },
              {
                "code": {
                  "coding": [
                    {
                      "code": "$18720-3",
                      "system": "http://loinc.org",
                      "display": "Coagulation studies (set)"
                    }
                  ],
                  "text": "Coagulation"
                },
                "entry": [
                  {
                    "reference": "urn:uuid:a765c792-de6b-4ff9-994f-18a3714351ad"
                  }
                ],
                "text": {
                  "status": "generated",
                  "div": "<div xmlns=\"http://www.w3.org/1999/xhtml\"><h3>Coagulation</h3><table class=\"hl7__eu__lab__report\"><thead><tr><th>Test</th><th>22-MAY-2017</th><th>Reference&#xA0;Range</th><th>Unit</th></tr></thead><tbody><tr><td>Activated clotting time (ACT) of Blood by Coagulation assay</td><td>115.9</td><td>70 - 120</td><td>s</td></tr></tbody></table></div>"
                },
                "title": "Coagulation"
              }
            ],
            "title": "Laboratory Report"
          },
          {
            "text": {
              "status": "generated",
              "div": "<div xmlns=\"http://www.w3.org/1999/xhtml\"><h3>Annotation</h3><table class=\"hl7__eu__lab__report\"><tr><th>Conclusion and Recommendations based on this report and previous findings known to us</th></tr><tr><td>The results show severe arterial acidemia (arterial pH 7.0, low O₂ saturation), with normal pCO₂ and bicarbonate, suggesting a primary metabolic acidosis. Oxygenation is slightly reduced. Venous blood gases and electrolytes are within normal limits. Immediate clinical evaluation is recommended due to the life-threatening low arterial pH.</td></tr></table></div>"
            },
            "code": {
              "coding": [
                {
                  "system": "http://loinc.org",
                  "code": "48767-8",
                  "display": "Annotation comment"
                }
              ]
            },
            "title": "Annotation comment"
          }
        ],
        "status": "final",
        "subject": {
          "reference": "urn:uuid:a34a1d08-38cd-4b3d-af69-a1d27fbd9ef1",
          "display": "Aniela Prażmo"
        },
        "date": "2017-05-22T00:18:12Z",
        "title": "Laboratory Report",
        "confidentiality": "N"
      }
    },
    {
      "fullUrl": "urn:uuid:172ee041-dde0-40f1-9366-57b20dddaff6",
      "resource": {
        "resourceType": "DiagnosticReport",
        "id": "172ee041-dde0-40f1-9366-57b20dddaff6",
        "meta": {
          "profile": [
            "http://hl7.eu/fhir/laboratory/StructureDefinition/DiagnosticReport-eu-lab"
          ]
        },
        "identifier": [
          {
            "assigner": {
              "display": "HL7 Europe"
            },
            "system": "urn:oid:2.16.840.1.113883.2.51.999",
            "value": "acfc9762-ca86-48ea-9519-897413dc831a"
          }
        ],
        "extension": [
          {
            "url": "http://hl7.org/fhir/5.0/StructureDefinition/extension-DiagnosticReport.composition",
            "valueReference": {
              "reference": "urn:uuid:b446a4d9-0205-4010-bf3e-d1da7030c3a0"
            }
          }
        ],
        "category": [
          {
            "coding": [
              {
                "code": "26436-6",
                "system": "http://loinc.org",
                "display": "Laboratory studies (set)"
              }
            ]
          }
        ],
        "specimen": [
          {
            "reference": "urn:uuid:2717ac2f-3255-4f4a-bdf5-fd4ff9a5e919"
          },
          {
            "reference": "urn:uuid:20f6d61d-e948-4950-b85d-f3ee47f02bca"
          },
          {
            "reference": "urn:uuid:d7659760-13c6-40bd-a185-33c25bbf7cb4"
          },
          {
            "reference": "urn:uuid:456ac09f-8354-4954-8aa8-f20d4a79999f"
          }
        ],
        "result": [
          {
            "reference": "urn:uuid:a765c792-de6b-4ff9-994f-18a3714351ad"
          },
          {
            "reference": "urn:uuid:1daee6fd-20ae-4350-b222-76a7d90ca708"
          },
          {
            "reference": "urn:uuid:cced7121-3048-4dd6-a394-5549060fcd87"
          },
          {
            "reference": "urn:uuid:f61e1874-3bce-4821-8261-7a957694f11c"
          },
          {
            "reference": "urn:uuid:deae3778-c5b8-4613-8d12-7938f9deff77"
          },
          {
            "reference": "urn:uuid:ef39e649-c067-4140-aa24-fdc999567d08"
          },
          {
            "reference": "urn:uuid:01348a3a-bff9-4982-8b84-f1a6a4680e31"
          },
          {
            "reference": "urn:uuid:82f67e22-4c21-4e33-8740-cc8f78d4efdd"
          },
          {
            "reference": "urn:uuid:4526c43e-54dc-41c9-9a0c-ed934834eb2e"
          },
          {
            "reference": "urn:uuid:9edacc7f-b629-4f6c-95db-b65bd4efba8b"
          },
          {
            "reference": "urn:uuid:1b4fd0c3-0a45-490f-a5e0-57ee8f084405"
          },
          {
            "reference": "urn:uuid:585ea15f-d346-4f47-9d5a-172ffd9a35c4"
          }
        ],
        "status": "registered",
        "code": {
          "coding": [
            {
              "code": "11502-2",
              "system": "http://loinc.org",
              "display": "Laboratory report"
            }
          ]
        },
        "subject": {
          "reference": "urn:uuid:a34a1d08-38cd-4b3d-af69-a1d27fbd9ef1",
          "display": "Aniela Prażmo"
        }
      }
    },
    {
      "fullUrl": "urn:uuid:a34a1d08-38cd-4b3d-af69-a1d27fbd9ef1",
      "resource": {
        "resourceType": "Patient",
        "id": "a34a1d08-38cd-4b3d-af69-a1d27fbd9ef1",
        "meta": {
          "security": [
            {
              "system": "http://terminology.hl7.org/CodeSystem/v3-ActReason",
              "code": "HTEST"
            },
            {
              "system": "http://terminology.hl7.org/CodeSystem/v3-ActReason",
              "code": "TRAIN"
            }
          ],
          "tag": [
            {
              "system": "https://synderai.net/fhir/CodeSystem/tags",
              "code": "synthetic",
              "display": "SYNDERAI Synthetic data"
            }
          ],
          "profile": [
            "http://hl7.eu/fhir/base/StructureDefinition/patient-eu-core"
          ]
        },
        "identifier": [
          {
            "type": {
              "coding": [
                {
                  "code": "PT",
                  "system": "http://terminology.hl7.org/CodeSystem/v2-0203"
                }
              ]
            },
            "system": "http://ec.europa.eu/identifier/eci",
            "value": "9657-869171-7"
          },
          {
            "type": {
              "coding": [
                {
                  "code": "MR",
                  "system": "http://terminology.hl7.org/CodeSystem/v2-0203"
                }
              ]
            },
            "system": "http://local.setting.eu/identifier",
            "value": "ab00158c-e2d0-01e4-6cf5-730949937551"
          }
        ],
        "name": [
          {
            "family": "Prażmo"
          },
          {
            "given": [
              "Aniela"
            ]
          },
          {
            "text": "Aniela Prażmo"
          }
        ],
        "address": [
          {
            "line": [
              "pl. Kołłątaja 62/43"
            ],
            "use": "home",
            "type": "physical",
            "postalCode": "97-200",
            "city": "Tomaszów Mazowiecki",
            "country": "Poland"
          }
        ],
        "telecom": [
          {
            "system": "phone",
            "value": "+48 782 809 233"
          }
        ],
        "extension": [
          {
            "url": "http://hl7.org/fhir/StructureDefinition/patient-nationality",
            "valueCodeableConcept": {
              "coding": [
                {
                  "code": "PL",
                  "system": "http://hl7.org/fhir/ValueSet/country"
                }
              ]
            }
          }
        ],
        "text": {
          "status": "generated",
          "div": "<div xmlns=\"http://www.w3.org/1999/xhtml\"><table class=\"hl7__ips\"><tr><td>Aniela Prażmo</td><td>female</td><td>08-Feb-1941</td></tr></table></div>"
        },
        "gender": "female",
        "birthDate": "1941-02-08"
      }
    },
    {
      "fullUrl": "urn:uuid:ffb00833-3844-4441-a1d5-c25b3553d13e",
      "resource": {
        "resourceType": "ServiceRequest",
        "id": "ffb00833-3844-4441-a1d5-c25b3553d13e",
        "meta": {
          "profile": [
            "http://hl7.eu/fhir/laboratory/StructureDefinition/ServiceRequest-eu-lab"
          ]
        },
        "identifier": [
          {
            "system": "http://example.org",
            "value": "85529e3d-160a-41b1-85f1-55cd9b0e966d"
          }
        ],
        "specimen": [
          {
            "reference": "urn:uuid:2717ac2f-3255-4f4a-bdf5-fd4ff9a5e919"
          },
          {
            "reference": "urn:uuid:20f6d61d-e948-4950-b85d-f3ee47f02bca"
          },
          {
            "reference": "urn:uuid:d7659760-13c6-40bd-a185-33c25bbf7cb4"
          },
          {
            "reference": "urn:uuid:456ac09f-8354-4954-8aa8-f20d4a79999f"
          }
        ],
        "reasonCode": [
          {
            "coding": [
              {
                "code": "64859006",
                "system": "http://snomed.info/sct",
                "display": "Osteoporosis"
              }
            ]
          },
          {
            "coding": [
              {
                "code": "55822004",
                "system": "http://snomed.info/sct",
                "display": "Hyperlipidemia"
              }
            ]
          },
          {
            "coding": [
              {
                "code": "414545008",
                "system": "http://snomed.info/sct",
                "display": "Ischemic heart disease"
              }
            ]
          },
          {
            "coding": [
              {
                "code": "59621000",
                "system": "http://snomed.info/sct",
                "display": "Essential hypertension"
              }
            ]
          },
          {
            "coding": [
              {
                "code": "40055000",
                "system": "http://snomed.info/sct",
                "display": "Chronic sinusitis"
              }
            ]
          }
        ],
        "status": "active",
        "intent": "order",
        "code": {
          "coding": [
            {
              "code": "108252007",
              "system": "http://snomed.info/sct",
              "display": "Laboratory procedure"
            }
          ]
        },
        "subject": {
          "reference": "urn:uuid:a34a1d08-38cd-4b3d-af69-a1d27fbd9ef1",
          "display": "Aniela Prażmo"
        },
        "requester": {
          "reference": "urn:uuid:c09af73f-324a-46c5-b0ac-2b2756297cd4"
        }
      }
    },
    {
      "fullUrl": "urn:uuid:c09af73f-324a-46c5-b0ac-2b2756297cd4",
      "resource": {
        "resourceType": "PractitionerRole",
        "id": "c09af73f-324a-46c5-b0ac-2b2756297cd4",
        "meta": {
          "profile": [
            "http://hl7.eu/fhir/base/StructureDefinition/practitionerRole-eu"
          ]
        },
        "text": {
          "status": "generated",
          "div": "<div xmlns=\"http://www.w3.org/1999/xhtml\">Provider Role Id: c09af73f-324a-46c5-b0ac-2b2756297cd4</div>"
        },
        "organization": {
          "reference": "urn:uuid:0f9a27e9-f10a-4bc2-90bf-7515d21db481"
        }
      }
    },
    {
      "fullUrl": "urn:uuid:0f9a27e9-f10a-4bc2-90bf-7515d21db481",
      "resource": {
        "resourceType": "Organization",
        "id": "0f9a27e9-f10a-4bc2-90bf-7515d21db481",
        "meta": {
          "profile": [
            "http://hl7.eu/fhir/base/StructureDefinition/organization-eu"
          ]
        },
        "identifier": [
          {
            "assigner": {
              "display": "HL7 Europe"
            },
            "system": "urn:oid:2.16.840.1.113883.2.51.999",
            "value": "6d4a3c14-3b79-4a77-8345-5cdf283bb37e"
          }
        ],
        "address": [
          {
            "city": "Tomaszów Mazowiecki",
            "postalCode": "97-200",
            "country": "Poland"
          }
        ],
        "text": {
          "status": "generated",
          "div": "<div xmlns=\"http://www.w3.org/1999/xhtml\">Provider Organization: Poradnia rehabilitacyjna</div>"
        },
        "name": "Poradnia rehabilitacyjna"
      }
    },
    {
      "fullUrl": "urn:uuid:2717ac2f-3255-4f4a-bdf5-fd4ff9a5e919",
      "resource": {
        "resourceType": "Specimen",
        "id": "2717ac2f-3255-4f4a-bdf5-fd4ff9a5e919",
        "meta": {
          "profile": [
            "http://hl7.eu/fhir/laboratory/StructureDefinition/Specimen-eu-lab"
          ]
        },
        "collection": {
          "collectedDateTime": "2017-05-21"
        },
        "text": {
          "status": "generated",
          "div": "<div xmlns=\"http://www.w3.org/1999/xhtml\"><table class=\"hl7__eu__lab__report\"><tr><th>Specimen</th><th>Collection Date</th></tr><tr><td>Whole blood specimen (specimen)</td><td><span class=\"nb\">21-May-2017</span></td></tr></table></div>"
        },
        "type": {
          "coding": [
            {
              "code": "258580003",
              "system": "http://snomed.info/sct",
              "display": "Whole blood specimen (specimen)"
            }
          ]
        }
      }
    },
    {
      "fullUrl": "urn:uuid:20f6d61d-e948-4950-b85d-f3ee47f02bca",
      "resource": {
        "resourceType": "Specimen",
        "id": "20f6d61d-e948-4950-b85d-f3ee47f02bca",
        "meta": {
          "profile": [
            "http://hl7.eu/fhir/laboratory/StructureDefinition/Specimen-eu-lab"
          ]
        },
        "collection": {
          "collectedDateTime": "2017-05-21"
        },
        "text": {
          "status": "generated",
          "div": "<div xmlns=\"http://www.w3.org/1999/xhtml\"><table class=\"hl7__eu__lab__report\"><tr><th>Specimen</th><th>Collection Date</th></tr><tr><td>Arterial blood specimen</td><td><span class=\"nb\">21-May-2017</span></td></tr></table></div>"
        },
        "type": {
          "coding": [
            {
              "code": "122552005",
              "system": "http://snomed.info/sct",
              "display": "Arterial blood specimen"
            }
          ]
        }
      }
    },
    {
      "fullUrl": "urn:uuid:d7659760-13c6-40bd-a185-33c25bbf7cb4",
      "resource": {
        "resourceType": "Specimen",
        "id": "d7659760-13c6-40bd-a185-33c25bbf7cb4",
        "meta": {
          "profile": [
            "http://hl7.eu/fhir/laboratory/StructureDefinition/Specimen-eu-lab"
          ]
        },
        "collection": {
          "collectedDateTime": "2017-05-21"
        },
        "text": {
          "status": "generated",
          "div": "<div xmlns=\"http://www.w3.org/1999/xhtml\"><table class=\"hl7__eu__lab__report\"><tr><th>Specimen</th><th>Collection Date</th></tr><tr><td>Venous blood specimen</td><td><span class=\"nb\">21-May-2017</span></td></tr></table></div>"
        },
        "type": {
          "coding": [
            {
              "code": "122555007",
              "system": "http://snomed.info/sct",
              "display": "Venous blood specimen"
            }
          ]
        }
      }
    },
    {
      "fullUrl": "urn:uuid:456ac09f-8354-4954-8aa8-f20d4a79999f",
      "resource": {
        "resourceType": "Specimen",
        "id": "456ac09f-8354-4954-8aa8-f20d4a79999f",
        "meta": {
          "profile": [
            "http://hl7.eu/fhir/laboratory/StructureDefinition/Specimen-eu-lab"
          ]
        },
        "collection": {
          "collectedDateTime": "2017-05-21"
        },
        "text": {
          "status": "generated",
          "div": "<div xmlns=\"http://www.w3.org/1999/xhtml\"><table class=\"hl7__eu__lab__report\"><tr><th>Specimen</th><th>Collection Date</th></tr><tr><td>Acellular blood (serum or plasma) specimen</td><td><span class=\"nb\">21-May-2017</span></td></tr></table></div>"
        },
        "type": {
          "coding": [
            {
              "code": "122592007",
              "system": "http://snomed.info/sct",
              "display": "Acellular blood (serum or plasma) specimen"
            }
          ]
        }
      }
    },
    {
      "fullUrl": "urn:uuid:a765c792-de6b-4ff9-994f-18a3714351ad",
      "resource": {
        "resourceType": "Observation",
        "id": "a765c792-de6b-4ff9-994f-18a3714351ad",
        "meta": {
          "profile": [
            "http://hl7.eu/fhir/laboratory/StructureDefinition/Observation-resultslab-eu-lab"
          ]
        },
        "performer": [
          {
            "display": "The Central European Lab"
          }
        ],
        "category": [
          {
            "coding": [
              {
                "system": "http://terminology.hl7.org/CodeSystem/observation-category",
                "code": "laboratory"
              }
            ]
          }
        ],
        "code": {
          "coding": [
            {
              "code": "3184-9",
              "system": "http://loinc.org",
              "display": "Activated clotting time (ACT) of Blood by Coagulation assay"
            }
          ],
          "text": "Activated clotting time (ACT) of Blood by Coagulation assay"
        },
        "valueQuantity": {
          "system": "http://unitsofmeasure.org",
          "value": 115.9,
          "unit": "s",
          "code": "s"
        },
        "referenceRange": [
          {
            "low": {
              "value": 70,
              "code": "seconds",
              "system": "http://unitsofmeasure.org"
            }
          },
          {
            "high": {
              "value": 120,
              "code": "seconds",
              "system": "http://unitsofmeasure.org"
            }
          }
        ],
        "text": {
          "status": "generated",
          "div": "<div xmlns=\"http://www.w3.org/1999/xhtml\"><table class=\"hl7__eu__lab__report\"><tr><th>Test</th><th>22-May-2017</th><th>Reference&#xA0;Range</th><th>Unit</th></tr><tr><td>Activated clotting time (ACT) of Blood by Coagulation assay</td><td>115.9</td><td>70 - 120</td><td></td><td>s</td></tr></table></div>"
        },
        "status": "final",
        "subject": {
          "reference": "urn:uuid:a34a1d08-38cd-4b3d-af69-a1d27fbd9ef1",
          "display": "Aniela Prażmo"
        },
        "effectiveDateTime": "2017-05-21T22:18:12Z",
        "specimen": {
          "reference": "urn:uuid:2717ac2f-3255-4f4a-bdf5-fd4ff9a5e919"
        }
      }
    },
    {
      "fullUrl": "urn:uuid:1daee6fd-20ae-4350-b222-76a7d90ca708",
      "resource": {
        "resourceType": "Observation",
        "id": "1daee6fd-20ae-4350-b222-76a7d90ca708",
        "meta": {
          "profile": [
            "http://hl7.eu/fhir/laboratory/StructureDefinition/Observation-resultslab-eu-lab"
          ]
        },
        "performer": [
          {
            "display": "The Central European Lab"
          }
        ],
        "category": [
          {
            "coding": [
              {
                "system": "http://terminology.hl7.org/CodeSystem/observation-category",
                "code": "laboratory"
              }
            ]
          }
        ],
        "code": {
          "coding": [
            {
              "code": "2744-1",
              "system": "http://loinc.org",
              "display": "pH of Arterial blood"
            }
          ],
          "text": "pH of Arterial blood"
        },
        "valueQuantity": {
          "system": "http://unitsofmeasure.org",
          "value": 7,
          "unit": "[pH]",
          "code": "[pH]"
        },
        "referenceRange": [
          {
            "low": {
              "value": 7.35,
              "code": "pH",
              "system": "http://unitsofmeasure.org"
            }
          },
          {
            "high": {
              "value": 7.45,
              "code": "pH",
              "system": "http://unitsofmeasure.org"
            }
          }
        ],
        "interpretation": [
          {
            "coding": [
              {
                "code": "L",
                "system": "http://terminology.hl7.org/CodeSystem/v3-ObservationInterpretation",
                "display": "Low"
              }
            ]
          }
        ],
        "text": {
          "status": "generated",
          "div": "<div xmlns=\"http://www.w3.org/1999/xhtml\"><table class=\"hl7__eu__lab__report\"><tr><th>Test</th><th>22-May-2017</th><th>Reference&#xA0;Range</th><th>Unit</th></tr><tr><td>pH of Arterial blood</td><td>7.0</td><td>7.35 - 7.45</td><td>L</td><td>[pH]</td></tr></table></div>"
        },
        "status": "final",
        "subject": {
          "reference": "urn:uuid:a34a1d08-38cd-4b3d-af69-a1d27fbd9ef1",
          "display": "Aniela Prażmo"
        },
        "effectiveDateTime": "2017-05-21T22:18:12Z",
        "specimen": {
          "reference": "urn:uuid:20f6d61d-e948-4950-b85d-f3ee47f02bca"
        }
      }
    },
    {
      "fullUrl": "urn:uuid:cced7121-3048-4dd6-a394-5549060fcd87",
      "resource": {
        "resourceType": "Observation",
        "id": "cced7121-3048-4dd6-a394-5549060fcd87",
        "meta": {
          "profile": [
            "http://hl7.eu/fhir/laboratory/StructureDefinition/Observation-resultslab-eu-lab"
          ]
        },
        "performer": [
          {
            "display": "The Central European Lab"
          }
        ],
        "category": [
          {
            "coding": [
              {
                "system": "http://terminology.hl7.org/CodeSystem/observation-category",
                "code": "laboratory"
              }
            ]
          }
        ],
        "code": {
          "coding": [
            {
              "code": "2019-8",
              "system": "http://loinc.org",
              "display": "Carbon dioxide [Partial pressure] in Arterial blood"
            }
          ],
          "text": "Carbon dioxide [Partial pressure] in Arterial blood"
        },
        "valueQuantity": {
          "system": "http://unitsofmeasure.org",
          "value": 42.3,
          "unit": "mm[Hg]",
          "code": "mm[Hg]"
        },
        "referenceRange": [
          {
            "low": {
              "value": 38,
              "code": "mm[Hg]",
              "system": "http://unitsofmeasure.org"
            }
          },
          {
            "high": {
              "value": 48,
              "code": "mm[Hg]",
              "system": "http://unitsofmeasure.org"
            }
          }
        ],
        "text": {
          "status": "generated",
          "div": "<div xmlns=\"http://www.w3.org/1999/xhtml\"><table class=\"hl7__eu__lab__report\"><tr><th>Test</th><th>22-May-2017</th><th>Reference&#xA0;Range</th><th>Unit</th></tr><tr><td>Carbon dioxide [Partial pressure] in Arterial blood</td><td>42.3</td><td>38 - 48</td><td></td><td>mm[Hg]</td></tr></table></div>"
        },
        "status": "final",
        "subject": {
          "reference": "urn:uuid:a34a1d08-38cd-4b3d-af69-a1d27fbd9ef1",
          "display": "Aniela Prażmo"
        },
        "effectiveDateTime": "2017-05-21T22:18:12Z",
        "specimen": {
          "reference": "urn:uuid:20f6d61d-e948-4950-b85d-f3ee47f02bca"
        }
      }
    },
    {
      "fullUrl": "urn:uuid:f61e1874-3bce-4821-8261-7a957694f11c",
      "resource": {
        "resourceType": "Observation",
        "id": "f61e1874-3bce-4821-8261-7a957694f11c",
        "meta": {
          "profile": [
            "http://hl7.eu/fhir/laboratory/StructureDefinition/Observation-resultslab-eu-lab"
          ]
        },
        "performer": [
          {
            "display": "The Central European Lab"
          }
        ],
        "category": [
          {
            "coding": [
              {
                "system": "http://terminology.hl7.org/CodeSystem/observation-category",
                "code": "laboratory"
              }
            ]
          }
        ],
        "code": {
          "coding": [
            {
              "code": "2703-7",
              "system": "http://loinc.org",
              "display": "Oxygen [Partial pressure] in Arterial blood"
            }
          ],
          "text": "Oxygen [Partial pressure] in Arterial blood"
        },
        "valueQuantity": {
          "system": "http://unitsofmeasure.org",
          "value": 81.9,
          "unit": "mm[Hg]",
          "code": "mm[Hg]"
        },
        "referenceRange": [
          {
            "low": {
              "value": 75,
              "code": "mm[Hg]",
              "system": "http://unitsofmeasure.org"
            }
          },
          {
            "high": {
              "value": 100,
              "code": "mm[Hg]",
              "system": "http://unitsofmeasure.org"
            }
          }
        ],
        "text": {
          "status": "generated",
          "div": "<div xmlns=\"http://www.w3.org/1999/xhtml\"><table class=\"hl7__eu__lab__report\"><tr><th>Test</th><th>22-May-2017</th><th>Reference&#xA0;Range</th><th>Unit</th></tr><tr><td>Oxygen [Partial pressure] in Arterial blood</td><td>81.9</td><td>75 - 100</td><td></td><td>mm[Hg]</td></tr></table></div>"
        },
        "status": "final",
        "subject": {
          "reference": "urn:uuid:a34a1d08-38cd-4b3d-af69-a1d27fbd9ef1",
          "display": "Aniela Prażmo"
        },
        "effectiveDateTime": "2017-05-21T22:18:12Z",
        "specimen": {
          "reference": "urn:uuid:20f6d61d-e948-4950-b85d-f3ee47f02bca"
        }
      }
    },
    {
      "fullUrl": "urn:uuid:deae3778-c5b8-4613-8d12-7938f9deff77",
      "resource": {
        "resourceType": "Observation",
        "id": "deae3778-c5b8-4613-8d12-7938f9deff77",
        "meta": {
          "profile": [
            "http://hl7.eu/fhir/laboratory/StructureDefinition/Observation-resultslab-eu-lab"
          ]
        },
        "performer": [
          {
            "display": "The Central European Lab"
          }
        ],
        "category": [
          {
            "coding": [
              {
                "system": "http://terminology.hl7.org/CodeSystem/observation-category",
                "code": "laboratory"
              }
            ]
          }
        ],
        "code": {
          "coding": [
            {
              "code": "1960-4",
              "system": "http://loinc.org",
              "display": "Bicarbonate [Moles/volume] in Arterial blood"
            }
          ],
          "text": "Bicarbonate [Moles/volume] in Arterial blood"
        },
        "valueQuantity": {
          "system": "http://unitsofmeasure.org",
          "value": 24.9,
          "unit": "mmol/L",
          "code": "mmol/L"
        },
        "referenceRange": [
          {
            "low": {
              "value": 22,
              "code": "mmol/L",
              "system": "http://unitsofmeasure.org"
            }
          },
          {
            "high": {
              "value": 31,
              "code": "mmol/L",
              "system": "http://unitsofmeasure.org"
            }
          }
        ],
        "text": {
          "status": "generated",
          "div": "<div xmlns=\"http://www.w3.org/1999/xhtml\"><table class=\"hl7__eu__lab__report\"><tr><th>Test</th><th>22-May-2017</th><th>Reference&#xA0;Range</th><th>Unit</th></tr><tr><td>Bicarbonate [Moles/volume] in Arterial blood</td><td>24.9</td><td>22 - 31</td><td></td><td>mmol/L</td></tr></table></div>"
        },
        "status": "final",
        "subject": {
          "reference": "urn:uuid:a34a1d08-38cd-4b3d-af69-a1d27fbd9ef1",
          "display": "Aniela Prażmo"
        },
        "effectiveDateTime": "2017-05-21T22:18:12Z",
        "specimen": {
          "reference": "urn:uuid:20f6d61d-e948-4950-b85d-f3ee47f02bca"
        }
      }
    },
    {
      "fullUrl": "urn:uuid:ef39e649-c067-4140-aa24-fdc999567d08",
      "resource": {
        "resourceType": "Observation",
        "id": "ef39e649-c067-4140-aa24-fdc999567d08",
        "meta": {
          "profile": [
            "http://hl7.eu/fhir/laboratory/StructureDefinition/Observation-resultslab-eu-lab"
          ]
        },
        "performer": [
          {
            "display": "The Central European Lab"
          }
        ],
        "category": [
          {
            "coding": [
              {
                "system": "http://terminology.hl7.org/CodeSystem/observation-category",
                "code": "laboratory"
              }
            ]
          }
        ],
        "code": {
          "coding": [
            {
              "code": "2708-6",
              "system": "http://loinc.org",
              "display": "Oxygen saturation in Arterial blood"
            }
          ],
          "text": "Oxygen saturation in Arterial blood"
        },
        "valueQuantity": {
          "system": "http://unitsofmeasure.org",
          "value": 94,
          "unit": "%",
          "code": "%"
        },
        "referenceRange": [
          {
            "low": {
              "value": 95,
              "code": "%",
              "system": "http://unitsofmeasure.org"
            }
          },
          {
            "high": {
              "value": 100,
              "code": "%",
              "system": "http://unitsofmeasure.org"
            }
          }
        ],
        "interpretation": [
          {
            "coding": [
              {
                "code": "L",
                "system": "http://terminology.hl7.org/CodeSystem/v3-ObservationInterpretation",
                "display": "Low"
              }
            ]
          }
        ],
        "text": {
          "status": "generated",
          "div": "<div xmlns=\"http://www.w3.org/1999/xhtml\"><table class=\"hl7__eu__lab__report\"><tr><th>Test</th><th>22-May-2017</th><th>Reference&#xA0;Range</th><th>Unit</th></tr><tr><td>Oxygen saturation in Arterial blood</td><td>94.0</td><td>95 - 100</td><td>L</td><td>%</td></tr></table></div>"
        },
        "status": "final",
        "subject": {
          "reference": "urn:uuid:a34a1d08-38cd-4b3d-af69-a1d27fbd9ef1",
          "display": "Aniela Prażmo"
        },
        "effectiveDateTime": "2017-05-21T22:18:12Z",
        "specimen": {
          "reference": "urn:uuid:20f6d61d-e948-4950-b85d-f3ee47f02bca"
        }
      }
    },
    {
      "fullUrl": "urn:uuid:01348a3a-bff9-4982-8b84-f1a6a4680e31",
      "resource": {
        "resourceType": "Observation",
        "id": "01348a3a-bff9-4982-8b84-f1a6a4680e31",
        "meta": {
          "profile": [
            "http://hl7.eu/fhir/laboratory/StructureDefinition/Observation-resultslab-eu-lab"
          ]
        },
        "performer": [
          {
            "display": "The Central European Lab"
          }
        ],
        "category": [
          {
            "coding": [
              {
                "system": "http://terminology.hl7.org/CodeSystem/observation-category",
                "code": "laboratory"
              }
            ]
          }
        ],
        "code": {
          "coding": [
            {
              "code": "2746-6",
              "system": "http://loinc.org",
              "display": "pH of Venous blood"
            }
          ],
          "text": "pH of Venous blood"
        },
        "valueQuantity": {
          "system": "http://unitsofmeasure.org",
          "value": 7.4,
          "unit": "[pH]",
          "code": "[pH]"
        },
        "referenceRange": [
          {
            "low": {
              "value": 7.35,
              "code": "pH",
              "system": "http://unitsofmeasure.org"
            }
          },
          {
            "high": {
              "value": 7.45,
              "code": "pH",
              "system": "http://unitsofmeasure.org"
            }
          }
        ],
        "text": {
          "status": "generated",
          "div": "<div xmlns=\"http://www.w3.org/1999/xhtml\"><table class=\"hl7__eu__lab__report\"><tr><th>Test</th><th>22-May-2017</th><th>Reference&#xA0;Range</th><th>Unit</th></tr><tr><td>pH of Venous blood</td><td>7.4</td><td>7.35 - 7.45</td><td></td><td>[pH]</td></tr></table></div>"
        },
        "status": "final",
        "subject": {
          "reference": "urn:uuid:a34a1d08-38cd-4b3d-af69-a1d27fbd9ef1",
          "display": "Aniela Prażmo"
        },
        "effectiveDateTime": "2017-05-21T22:18:12Z",
        "specimen": {
          "reference": "urn:uuid:d7659760-13c6-40bd-a185-33c25bbf7cb4"
        }
      }
    },
    {
      "fullUrl": "urn:uuid:82f67e22-4c21-4e33-8740-cc8f78d4efdd",
      "resource": {
        "resourceType": "Observation",
        "id": "82f67e22-4c21-4e33-8740-cc8f78d4efdd",
        "meta": {
          "profile": [
            "http://hl7.eu/fhir/laboratory/StructureDefinition/Observation-resultslab-eu-lab"
          ]
        },
        "performer": [
          {
            "display": "The Central European Lab"
          }
        ],
        "category": [
          {
            "coding": [
              {
                "system": "http://terminology.hl7.org/CodeSystem/observation-category",
                "code": "laboratory"
              }
            ]
          }
        ],
        "code": {
          "coding": [
            {
              "code": "2021-4",
              "system": "http://loinc.org",
              "display": "Carbon dioxide [Partial pressure] in Venous blood"
            }
          ],
          "text": "Carbon dioxide [Partial pressure] in Venous blood"
        },
        "valueQuantity": {
          "system": "http://unitsofmeasure.org",
          "value": 39.5,
          "unit": "mm[Hg]",
          "code": "mm[Hg]"
        },
        "referenceRange": [
          {
            "low": {
              "value": 22,
              "code": "mm[Hg]",
              "system": "http://unitsofmeasure.org"
            }
          },
          {
            "high": {
              "value": 48,
              "code": "mm[Hg]",
              "system": "http://unitsofmeasure.org"
            }
          }
        ],
        "text": {
          "status": "generated",
          "div": "<div xmlns=\"http://www.w3.org/1999/xhtml\"><table class=\"hl7__eu__lab__report\"><tr><th>Test</th><th>22-May-2017</th><th>Reference&#xA0;Range</th><th>Unit</th></tr><tr><td>Carbon dioxide [Partial pressure] in Venous blood</td><td>39.5</td><td>22 - 48</td><td></td><td>mm[Hg]</td></tr></table></div>"
        },
        "status": "final",
        "subject": {
          "reference": "urn:uuid:a34a1d08-38cd-4b3d-af69-a1d27fbd9ef1",
          "display": "Aniela Prażmo"
        },
        "effectiveDateTime": "2017-05-21T22:18:12Z",
        "specimen": {
          "reference": "urn:uuid:d7659760-13c6-40bd-a185-33c25bbf7cb4"
        }
      }
    },
    {
      "fullUrl": "urn:uuid:4526c43e-54dc-41c9-9a0c-ed934834eb2e",
      "resource": {
        "resourceType": "Observation",
        "id": "4526c43e-54dc-41c9-9a0c-ed934834eb2e",
        "meta": {
          "profile": [
            "http://hl7.eu/fhir/laboratory/StructureDefinition/Observation-resultslab-eu-lab"
          ]
        },
        "performer": [
          {
            "display": "The Central European Lab"
          }
        ],
        "category": [
          {
            "coding": [
              {
                "system": "http://terminology.hl7.org/CodeSystem/observation-category",
                "code": "laboratory"
              }
            ]
          }
        ],
        "code": {
          "coding": [
            {
              "code": "2705-2",
              "system": "http://loinc.org",
              "display": "Oxygen [Partial pressure] in Venous blood"
            }
          ],
          "text": "Oxygen [Partial pressure] in Venous blood"
        },
        "valueQuantity": {
          "system": "http://unitsofmeasure.org",
          "value": 40.7,
          "unit": "mm[Hg]",
          "code": "mm[Hg]"
        },
        "referenceRange": [
          {
            "low": {
              "value": 30,
              "code": "mm[Hg]",
              "system": "http://unitsofmeasure.org"
            }
          },
          {
            "high": {
              "value": 50,
              "code": "mm[Hg]",
              "system": "http://unitsofmeasure.org"
            }
          }
        ],
        "text": {
          "status": "generated",
          "div": "<div xmlns=\"http://www.w3.org/1999/xhtml\"><table class=\"hl7__eu__lab__report\"><tr><th>Test</th><th>22-May-2017</th><th>Reference&#xA0;Range</th><th>Unit</th></tr><tr><td>Oxygen [Partial pressure] in Venous blood</td><td>40.7</td><td>30 - 50</td><td></td><td>mm[Hg]</td></tr></table></div>"
        },
        "status": "final",
        "subject": {
          "reference": "urn:uuid:a34a1d08-38cd-4b3d-af69-a1d27fbd9ef1",
          "display": "Aniela Prażmo"
        },
        "effectiveDateTime": "2017-05-21T22:18:12Z",
        "specimen": {
          "reference": "urn:uuid:d7659760-13c6-40bd-a185-33c25bbf7cb4"
        }
      }
    },
    {
      "fullUrl": "urn:uuid:9edacc7f-b629-4f6c-95db-b65bd4efba8b",
      "resource": {
        "resourceType": "Observation",
        "id": "9edacc7f-b629-4f6c-95db-b65bd4efba8b",
        "meta": {
          "profile": [
            "http://hl7.eu/fhir/laboratory/StructureDefinition/Observation-resultslab-eu-lab"
          ]
        },
        "performer": [
          {
            "display": "The Central European Lab"
          }
        ],
        "category": [
          {
            "coding": [
              {
                "system": "http://terminology.hl7.org/CodeSystem/observation-category",
                "code": "laboratory"
              }
            ]
          }
        ],
        "code": {
          "coding": [
            {
              "code": "14627-4",
              "system": "http://loinc.org",
              "display": "Bicarbonate [Moles/volume] in Venous blood"
            }
          ],
          "text": "Bicarbonate [Moles/volume] in Venous blood"
        },
        "valueQuantity": {
          "system": "http://unitsofmeasure.org",
          "value": 27.2,
          "unit": "mmol/L",
          "code": "mmol/L"
        },
        "referenceRange": [
          {
            "low": {
              "value": 22,
              "code": "mmol/L",
              "system": "http://unitsofmeasure.org"
            }
          },
          {
            "high": {
              "value": 32,
              "code": "mmol/L",
              "system": "http://unitsofmeasure.org"
            }
          }
        ],
        "text": {
          "status": "generated",
          "div": "<div xmlns=\"http://www.w3.org/1999/xhtml\"><table class=\"hl7__eu__lab__report\"><tr><th>Test</th><th>22-May-2017</th><th>Reference&#xA0;Range</th><th>Unit</th></tr><tr><td>Bicarbonate [Moles/volume] in Venous blood</td><td>27.2</td><td>22 - 32</td><td></td><td>mmol/L</td></tr></table></div>"
        },
        "status": "final",
        "subject": {
          "reference": "urn:uuid:a34a1d08-38cd-4b3d-af69-a1d27fbd9ef1",
          "display": "Aniela Prażmo"
        },
        "effectiveDateTime": "2017-05-21T22:18:12Z",
        "specimen": {
          "reference": "urn:uuid:d7659760-13c6-40bd-a185-33c25bbf7cb4"
        }
      }
    },
    {
      "fullUrl": "urn:uuid:1b4fd0c3-0a45-490f-a5e0-57ee8f084405",
      "resource": {
        "resourceType": "Observation",
        "id": "1b4fd0c3-0a45-490f-a5e0-57ee8f084405",
        "meta": {
          "profile": [
            "http://hl7.eu/fhir/laboratory/StructureDefinition/Observation-resultslab-eu-lab"
          ]
        },
        "performer": [
          {
            "display": "The Central European Lab"
          }
        ],
        "category": [
          {
            "coding": [
              {
                "system": "http://terminology.hl7.org/CodeSystem/observation-category",
                "code": "laboratory"
              }
            ]
          }
        ],
        "code": {
          "coding": [
            {
              "code": "2027-1",
              "system": "http://loinc.org",
              "display": "Carbon dioxide, total [Moles/volume] in Venous blood"
            }
          ],
          "text": "Carbon dioxide, total [Moles/volume] in Venous blood"
        },
        "valueQuantity": {
          "system": "http://unitsofmeasure.org",
          "value": 1.6,
          "unit": "mmol/L",
          "code": "mmol/L"
        },
        "referenceRange": [
          {
            "low": {
              "value": 1.2,
              "code": "mmol/L",
              "system": "http://unitsofmeasure.org"
            }
          },
          {
            "high": {
              "value": 2.6,
              "code": "mmol/L",
              "system": "http://unitsofmeasure.org"
            }
          }
        ],
        "text": {
          "status": "generated",
          "div": "<div xmlns=\"http://www.w3.org/1999/xhtml\"><table class=\"hl7__eu__lab__report\"><tr><th>Test</th><th>22-May-2017</th><th>Reference&#xA0;Range</th><th>Unit</th></tr><tr><td>Carbon dioxide, total [Moles/volume] in Venous blood</td><td>1.6</td><td>1.2 - 2.6</td><td></td><td>mmol/L</td></tr></table></div>"
        },
        "status": "final",
        "subject": {
          "reference": "urn:uuid:a34a1d08-38cd-4b3d-af69-a1d27fbd9ef1",
          "display": "Aniela Prażmo"
        },
        "effectiveDateTime": "2017-05-21T22:18:12Z",
        "specimen": {
          "reference": "urn:uuid:d7659760-13c6-40bd-a185-33c25bbf7cb4"
        }
      }
    },
    {
      "fullUrl": "urn:uuid:585ea15f-d346-4f47-9d5a-172ffd9a35c4",
      "resource": {
        "resourceType": "Observation",
        "id": "585ea15f-d346-4f47-9d5a-172ffd9a35c4",
        "meta": {
          "profile": [
            "http://hl7.eu/fhir/laboratory/StructureDefinition/Observation-resultslab-eu-lab"
          ]
        },
        "performer": [
          {
            "display": "The Central European Lab"
          }
        ],
        "category": [
          {
            "coding": [
              {
                "system": "http://terminology.hl7.org/CodeSystem/observation-category",
                "code": "laboratory"
              }
            ]
          }
        ],
        "code": {
          "coding": [
            {
              "code": "19123-9",
              "system": "http://loinc.org",
              "display": "Magnesium [Mass/volume] in Serum or Plasma"
            }
          ],
          "text": "Magnesium [Mass/volume] in Serum or Plasma"
        },
        "valueQuantity": {
          "system": "http://unitsofmeasure.org",
          "value": 1.9,
          "unit": "mg/dL",
          "code": "mg/dL"
        },
        "referenceRange": [
          {
            "low": {
              "value": 1.7,
              "code": "mg/dL",
              "system": "http://unitsofmeasure.org"
            }
          },
          {
            "high": {
              "value": 2.6,
              "code": "mg/dL",
              "system": "http://unitsofmeasure.org"
            }
          }
        ],
        "text": {
          "status": "generated",
          "div": "<div xmlns=\"http://www.w3.org/1999/xhtml\"><table class=\"hl7__eu__lab__report\"><tr><th>Test</th><th>22-May-2017</th><th>Reference&#xA0;Range</th><th>Unit</th></tr><tr><td>Magnesium [Mass/volume] in Serum or Plasma</td><td>1.9</td><td>1.7 - 2.6</td><td></td><td>mg/dL</td></tr></table></div>"
        },
        "status": "final",
        "subject": {
          "reference": "urn:uuid:a34a1d08-38cd-4b3d-af69-a1d27fbd9ef1",
          "display": "Aniela Prażmo"
        },
        "effectiveDateTime": "2017-05-21T22:18:12Z",
        "specimen": {
          "reference": "urn:uuid:456ac09f-8354-4954-8aa8-f20d4a79999f"
        }
      }
    },
    {
      "fullUrl": "urn:uuid:14150073-dba7-4d63-aa6c-81a0ddbf5d48",
      "resource": {
        "resourceType": "Device",
        "id": "14150073-dba7-4d63-aa6c-81a0ddbf5d48",
        "deviceName": [
          {
            "name": "SYNDERAI Synthetic Generator",
            "type": "manufacturer-name"
          }
        ],
        "version": [
          {
            "value": "5.0"
          }
        ],
        "text": {
          "status": "generated",
          "div": "<div xmlns=\"http://www.w3.org/1999/xhtml\">SYNDERAI Synthetic Generator v5.0</div>"
        },
        "status": "active\"",
        "distinctIdentifier": "synderai-generator-50",
        "manufacturer": "SYNDERAI Project"
      }
    },
    {
      "fullUrl": "urn:uuid:bcc11472-5ca0-4286-b98a-24dd3d403852",
      "resource": {
        "resourceType": "Provenance",
        "id": "bcc11472-5ca0-4286-b98a-24dd3d403852",
        "target": [
          {
            "reference": "Patient/a34a1d08-38cd-4b3d-af69-a1d27fbd9ef1"
          },
          {
            "reference": "Bundle/10fbdc9f-e7e3-4a76-89fd-64cc0681f712"
          },
          {
            "reference": "Composition/dcaec202-0c52-4402-91c7-836ac527160f"
          },
          {
            "reference": "PractitionerRole/4f7a7c24-9a40-46d2-b938-d93d2a5d50e8"
          },
          {
            "reference": "Practitioner/e80bae96-f102-4607-9e93-d655fae31d87"
          },
          {
            "reference": "PractitionerRole/c09af73f-324a-46c5-b0ac-2b2756297cd4"
          },
          {
            "reference": "Organization/0f9a27e9-f10a-4bc2-90bf-7515d21db481"
          }
        ],
        "activity": {
          "text": "Synthetic Example Data Generation"
        },
        "policy": [
          "https://synderai.net/synderai-synthetic-data-policy"
        ],
        "agent": [
          {
            "type": {
              "text": "author"
            },
            "who": {
              "reference": "Device/14150073-dba7-4d63-aa6c-81a0ddbf5d48"
            }
          }
        ],
        "reason": [
          {
            "text": "Interoperability Testing and Training (non-clinical use)"
          }
        ],
        "text": {
          "status": "generated",
          "div": "<div xmlns=\"http://www.w3.org/1999/xhtml\">Provenance for SYNDERAI Synthetic Example Data Resource</div>"
        },
        "recorded": "2017-05-22T00:18:12Z"
      }
    },
    {
      "fullUrl": "urn:uuid:4f7a7c24-9a40-46d2-b938-d93d2a5d50e8",
      "resource": {
        "resourceType": "PractitionerRole",
        "id": "4f7a7c24-9a40-46d2-b938-d93d2a5d50e8",
        "meta": {
          "profile": [
            "http://hl7.eu/fhir/base/StructureDefinition/practitionerRole-eu"
          ]
        },
        "text": {
          "status": "generated",
          "div": "<div xmlns=\"http://www.w3.org/1999/xhtml\">Laboratory Role Id: 4f7a7c24-9a40-46d2-b938-d93d2a5d50e8</div>"
        },
        "practitioner": {
          "reference": "urn:uuid:e80bae96-f102-4607-9e93-d655fae31d87"
        }
      }
    },
    {
      "fullUrl": "urn:uuid:e80bae96-f102-4607-9e93-d655fae31d87",
      "resource": {
        "resourceType": "Practitioner",
        "id": "e80bae96-f102-4607-9e93-d655fae31d87",
        "meta": {
          "profile": [
            "http://hl7.eu/fhir/base/StructureDefinition/practitioner-eu"
          ]
        },
        "identifier": [
          {
            "assigner": {
              "display": "HL7 Europe"
            },
            "system": "urn:oid:2.16.840.1.113883.2.51.999",
            "value": "e51e0d04-f092-42b6-bd9f-12b7622c1f53"
          }
        ],
        "name": [
          {
            "prefix": [
              "dr"
            ],
            "given": [
              "Ex"
            ],
            "family": "Ample"
          }
        ],
        "address": [
          {
            "line": [
              "Laboratoire Central Européenne",
              "Boulevard du Jardin Botanique 32"
            ],
            "postalCode": "1000",
            "city": "Brussels",
            "country": "Belgium"
          }
        ],
        "text": {
          "status": "generated",
          "div": "<div xmlns=\"http://www.w3.org/1999/xhtml\">Laboratory: Laboratoire Central Européenne, 1000 Brussels, Belgium</div>"
        }
      }
    }
  ],
  "type": "document",
  "timestamp": "2017-05-22T00:18:12Z"
}
