{
  "resourceType": "Bundle",
  "id": "4ab5175f-dd1d-40c7-b8ca-90ff9f484ef9",
  "meta": {
    "profile": [
      "http://hl7.eu/fhir/laboratory/StructureDefinition/Bundle-eu-lab"
    ]
  },
  "identifier": {
    "assigner": {
      "display": "HL7 Europe"
    },
    "system": "urn:oid:2.16.840.1.113883.2.51.999",
    "value": "cf92be47-d0aa-4b3c-a800-d862ed0b8213"
  },
  "entry": [
    {
      "fullUrl": "urn:uuid:4a40bc40-d8b8-4b62-bfbc-89cce2f7732b",
      "resource": {
        "resourceType": "Composition",
        "id": "4a40bc40-d8b8-4b62-bfbc-89cce2f7732b",
        "meta": {
          "profile": [
            "http://hl7.eu/fhir/laboratory/StructureDefinition/Composition-eu-lab"
          ]
        },
        "identifier": {
          "assigner": {
            "display": "HL7 Europe"
          },
          "system": "urn:oid:2.16.840.1.113883.2.51.999",
          "value": "74e9e3d5-8b18-465a-b364-5f52ecbb6df2"
        },
        "author": [
          {
            "reference": "urn:uuid:b3d0378e-4a02-4202-98cb-270d7f3427e7"
          }
        ],
        "category": [
          {
            "coding": [
              {
                "code": "26436-6",
                "system": "http://loinc.org",
                "display": "Laboratory studies (set)"
              }
            ]
          }
        ],
        "type": {
          "coding": [
            {
              "code": "11502-2",
              "system": "http://loinc.org",
              "display": "Laboratory report"
            }
          ],
          "text": "Laboratory Report"
        },
        "section": [
          {
            "code": {
              "coding": [
                {
                  "code": "26436-6",
                  "system": "http://loinc.org",
                  "display": "Laboratory studies (set)"
                }
              ],
              "text": "Laboratory studies"
            },
            "section": [
              {
                "code": {
                  "coding": [
                    {
                      "code": "$18719-5",
                      "system": "http://loinc.org",
                      "display": "Chemistry studies (set)"
                    }
                  ],
                  "text": "Chemistry"
                },
                "entry": [
                  {
                    "reference": "urn:uuid:a781d4a8-a455-48b0-9147-e08db0e9bd3c"
                  },
                  {
                    "reference": "urn:uuid:3d085655-1cfa-4c4a-8a5f-16dba3480466"
                  },
                  {
                    "reference": "urn:uuid:9d1c25ee-c266-4d82-8f79-5e60af2a4aa9"
                  },
                  {
                    "reference": "urn:uuid:4bcca08f-4f50-4d2a-8754-88b2eb84597f"
                  },
                  {
                    "reference": "urn:uuid:9410c11c-b4db-4390-8db7-7ef8d48760c6"
                  },
                  {
                    "reference": "urn:uuid:417a4d7b-499b-47c6-9d1a-fd078fa0f7c6"
                  },
                  {
                    "reference": "urn:uuid:a0652cf3-5ba4-49b5-8f7a-5d484b89173b"
                  },
                  {
                    "reference": "urn:uuid:4c7f0ed7-b6f1-4dcf-939f-39fe5ab02670"
                  },
                  {
                    "reference": "urn:uuid:81b22b68-a37e-4698-a4e7-95dd83b784c4"
                  }
                ],
                "text": {
                  "status": "generated",
                  "div": "<div xmlns=\"http://www.w3.org/1999/xhtml\"><h3>Chemistry</h3><table class=\"hl7__eu__lab__report\"><thead><tr><th>Test</th><th>18-APR-2025</th><th>Reference&#xA0;Range</th><th>Unit</th></tr></thead><tbody><tr><td>Hemoglobin A1c/Hemoglobin.total in Blood</td><td><strong>6.0 H</strong></td><td>4.8 - 5.7</td><td>%</td></tr><tr><td>Glucose [Mass/volume] in Blood</td><td>70.6</td><td>70 - 140</td><td>mg/dL</td></tr><tr><td>Urea nitrogen [Mass/volume] in Blood</td><td>7.1</td><td>7 - 25</td><td>mg/dL</td></tr><tr><td>Creatinine [Mass/volume] in Blood</td><td>0.9</td><td>0.6 - 1.3</td><td>mg/dL</td></tr><tr><td>Calcium [Mass/volume] in Blood</td><td>9.1</td><td>8.5 - 10.5</td><td>mg/dL</td></tr><tr><td>Sodium [Moles/volume] in Blood</td><td>142.5</td><td>135 - 145</td><td>mmol/L</td></tr><tr><td>Potassium [Moles/volume] in Blood</td><td>4.9</td><td>3.5 - 5.1</td><td>mmol/L</td></tr><tr><td>Chloride [Moles/volume] in Blood</td><td><strong>109.5 H</strong></td><td>98 - 108</td><td>mmol/L</td></tr><tr><td>Carbon dioxide, total [Moles/volume] in Blood</td><td><strong>20.8 L</strong></td><td>22 - 29</td><td>mmol/L</td></tr></tbody></table></div>"
                },
                "title": "Chemistry"
              }
            ],
            "title": "Laboratory Report"
          },
          {
            "text": {
              "status": "generated",
              "div": "<div xmlns=\"http://www.w3.org/1999/xhtml\"><h3>Annotation</h3><table class=\"hl7__eu__lab__report\"><tr><th>Conclusion and Recommendations based on this report and previous findings known to us</th></tr><tr><td>The patient shows mildly elevated HbA1c, indicating impaired glucose control or possible prediabetes, despite a normal fasting glucose. Chloride is slightly elevated and total CO₂ is mildly decreased, which may suggest a mild metabolic acidosis or compensation. Renal function and electrolytes are otherwise within normal limits. Clinical correlation is recommended.</td></tr></table></div>"
            },
            "code": {
              "coding": [
                {
                  "system": "http://loinc.org",
                  "code": "48767-8",
                  "display": "Annotation comment"
                }
              ]
            },
            "title": "Annotation comment"
          }
        ],
        "status": "final",
        "subject": {
          "reference": "urn:uuid:47526471-cb23-422a-9a17-6399a528d3e3",
          "display": "Bethany Begum"
        },
        "date": "2025-04-18T13:40:40Z",
        "title": "Laboratory Report",
        "confidentiality": "N"
      }
    },
    {
      "fullUrl": "urn:uuid:4b0216a2-0f23-4dfb-8a3c-18f9b2d38e08",
      "resource": {
        "resourceType": "DiagnosticReport",
        "id": "4b0216a2-0f23-4dfb-8a3c-18f9b2d38e08",
        "meta": {
          "profile": [
            "http://hl7.eu/fhir/laboratory/StructureDefinition/DiagnosticReport-eu-lab"
          ]
        },
        "identifier": [
          {
            "assigner": {
              "display": "HL7 Europe"
            },
            "system": "urn:oid:2.16.840.1.113883.2.51.999",
            "value": "4fa1bf74-f4dc-4982-bda0-53742b200b7d"
          }
        ],
        "extension": [
          {
            "url": "http://hl7.org/fhir/5.0/StructureDefinition/extension-DiagnosticReport.composition",
            "valueReference": {
              "reference": "urn:uuid:74e9e3d5-8b18-465a-b364-5f52ecbb6df2"
            }
          }
        ],
        "category": [
          {
            "coding": [
              {
                "code": "26436-6",
                "system": "http://loinc.org",
                "display": "Laboratory studies (set)"
              }
            ]
          }
        ],
        "specimen": [
          {
            "reference": "urn:uuid:cd34f6a6-b4a0-4526-a5e4-8c60d8a565f9"
          }
        ],
        "result": [
          {
            "reference": "urn:uuid:a781d4a8-a455-48b0-9147-e08db0e9bd3c"
          },
          {
            "reference": "urn:uuid:3d085655-1cfa-4c4a-8a5f-16dba3480466"
          },
          {
            "reference": "urn:uuid:9d1c25ee-c266-4d82-8f79-5e60af2a4aa9"
          },
          {
            "reference": "urn:uuid:4bcca08f-4f50-4d2a-8754-88b2eb84597f"
          },
          {
            "reference": "urn:uuid:9410c11c-b4db-4390-8db7-7ef8d48760c6"
          },
          {
            "reference": "urn:uuid:417a4d7b-499b-47c6-9d1a-fd078fa0f7c6"
          },
          {
            "reference": "urn:uuid:a0652cf3-5ba4-49b5-8f7a-5d484b89173b"
          },
          {
            "reference": "urn:uuid:4c7f0ed7-b6f1-4dcf-939f-39fe5ab02670"
          },
          {
            "reference": "urn:uuid:81b22b68-a37e-4698-a4e7-95dd83b784c4"
          }
        ],
        "status": "registered",
        "code": {
          "coding": [
            {
              "code": "11502-2",
              "system": "http://loinc.org",
              "display": "Laboratory report"
            }
          ]
        },
        "subject": {
          "reference": "urn:uuid:47526471-cb23-422a-9a17-6399a528d3e3",
          "display": "Bethany Begum"
        }
      }
    },
    {
      "fullUrl": "urn:uuid:47526471-cb23-422a-9a17-6399a528d3e3",
      "resource": {
        "resourceType": "Patient",
        "id": "47526471-cb23-422a-9a17-6399a528d3e3",
        "meta": {
          "security": [
            {
              "system": "http://terminology.hl7.org/CodeSystem/v3-ActReason",
              "code": "HTEST"
            },
            {
              "system": "http://terminology.hl7.org/CodeSystem/v3-ActReason",
              "code": "TRAIN"
            }
          ],
          "tag": [
            {
              "system": "https://synderai.net/fhir/CodeSystem/tags",
              "code": "synthetic",
              "display": "SYNDERAI Synthetic data"
            }
          ],
          "profile": [
            "http://hl7.eu/fhir/base/StructureDefinition/patient-eu-core"
          ]
        },
        "identifier": [
          {
            "type": {
              "coding": [
                {
                  "code": "PT",
                  "system": "http://terminology.hl7.org/CodeSystem/v2-0203"
                }
              ]
            },
            "system": "http://ec.europa.eu/identifier/eci",
            "value": "2365-936148-1"
          },
          {
            "type": {
              "coding": [
                {
                  "code": "MR",
                  "system": "http://terminology.hl7.org/CodeSystem/v2-0203"
                }
              ]
            },
            "system": "http://local.setting.eu/identifier",
            "value": "853b213b-8bf3-d90f-2018-79d547156fd7"
          }
        ],
        "name": [
          {
            "family": "Begum"
          },
          {
            "given": [
              "Bethany"
            ]
          },
          {
            "text": "Bethany Begum"
          }
        ],
        "address": [
          {
            "line": [
              "Studio 22e",
              "Joe unions"
            ],
            "use": "home",
            "type": "physical",
            "postalCode": "M1",
            "city": "Manchester",
            "country": "United Kingdom"
          }
        ],
        "telecom": [
          {
            "system": "phone",
            "value": "(029) 2018200"
          }
        ],
        "extension": [
          {
            "url": "http://hl7.org/fhir/StructureDefinition/patient-nationality",
            "valueCodeableConcept": {
              "coding": [
                {
                  "code": "GB",
                  "system": "http://hl7.org/fhir/ValueSet/country"
                }
              ]
            }
          }
        ],
        "text": {
          "status": "generated",
          "div": "<div xmlns=\"http://www.w3.org/1999/xhtml\"><table class=\"hl7__ips\"><tr><td>Bethany Begum</td><td>female</td><td>19-Jan-1976</td></tr></table></div>"
        },
        "gender": "female",
        "birthDate": "1976-01-19"
      }
    },
    {
      "fullUrl": "urn:uuid:347948fb-f177-4e4a-bfb8-af57e85b7886",
      "resource": {
        "resourceType": "ServiceRequest",
        "id": "347948fb-f177-4e4a-bfb8-af57e85b7886",
        "meta": {
          "profile": [
            "http://hl7.eu/fhir/laboratory/StructureDefinition/ServiceRequest-eu-lab"
          ]
        },
        "identifier": [
          {
            "system": "http://example.org",
            "value": "51276fa2-7464-4531-bcbb-742df81ec532"
          }
        ],
        "specimen": [
          {
            "reference": "urn:uuid:cd34f6a6-b4a0-4526-a5e4-8c60d8a565f9"
          }
        ],
        "reasonCode": [
          {
            "coding": [
              {
                "code": "55822004",
                "system": "http://snomed.info/sct",
                "display": "Hyperlipidemia"
              }
            ]
          },
          {
            "coding": [
              {
                "code": "15777000",
                "system": "http://snomed.info/sct",
                "display": "Prediabetes"
              }
            ]
          },
          {
            "coding": [
              {
                "code": "40055000",
                "system": "http://snomed.info/sct",
                "display": "Chronic sinusitis"
              }
            ]
          }
        ],
        "status": "active",
        "intent": "order",
        "code": {
          "coding": [
            {
              "code": "108252007",
              "system": "http://snomed.info/sct",
              "display": "Laboratory procedure"
            }
          ]
        },
        "subject": {
          "reference": "urn:uuid:47526471-cb23-422a-9a17-6399a528d3e3",
          "display": "Bethany Begum"
        },
        "requester": {
          "reference": "urn:uuid:603718b0-89ec-4f54-bdec-659c89a0fd39"
        }
      }
    },
    {
      "fullUrl": "urn:uuid:603718b0-89ec-4f54-bdec-659c89a0fd39",
      "resource": {
        "resourceType": "PractitionerRole",
        "id": "603718b0-89ec-4f54-bdec-659c89a0fd39",
        "meta": {
          "profile": [
            "http://hl7.eu/fhir/base/StructureDefinition/practitionerRole-eu"
          ]
        },
        "text": {
          "status": "generated",
          "div": "<div xmlns=\"http://www.w3.org/1999/xhtml\">Provider Role Id: 603718b0-89ec-4f54-bdec-659c89a0fd39</div>"
        },
        "organization": {
          "reference": "urn:uuid:8e22bb53-5ea5-4973-b043-5faff710ab86"
        }
      }
    },
    {
      "fullUrl": "urn:uuid:8e22bb53-5ea5-4973-b043-5faff710ab86",
      "resource": {
        "resourceType": "Organization",
        "id": "8e22bb53-5ea5-4973-b043-5faff710ab86",
        "meta": {
          "profile": [
            "http://hl7.eu/fhir/base/StructureDefinition/organization-eu"
          ]
        },
        "identifier": [
          {
            "assigner": {
              "display": "HL7 Europe"
            },
            "system": "urn:oid:2.16.840.1.113883.2.51.999",
            "value": "8dfe4402-246b-4e60-b2ca-9c9b6928b329"
          }
        ],
        "address": [
          {
            "line": [
              "City Road 204"
            ],
            "city": "Manchester",
            "postalCode": "M3 3",
            "country": "United Kingdom"
          }
        ],
        "text": {
          "status": "generated",
          "div": "<div xmlns=\"http://www.w3.org/1999/xhtml\">Provider Organization: Cornbrook Medical Practice</div>"
        },
        "name": "Cornbrook Medical Practice"
      }
    },
    {
      "fullUrl": "urn:uuid:cd34f6a6-b4a0-4526-a5e4-8c60d8a565f9",
      "resource": {
        "resourceType": "Specimen",
        "id": "cd34f6a6-b4a0-4526-a5e4-8c60d8a565f9",
        "meta": {
          "profile": [
            "http://hl7.eu/fhir/laboratory/StructureDefinition/Specimen-eu-lab"
          ]
        },
        "collection": {
          "collectedDateTime": "2025-04-18"
        },
        "text": {
          "status": "generated",
          "div": "<div xmlns=\"http://www.w3.org/1999/xhtml\"><table class=\"hl7__eu__lab__report\"><tr><th>Specimen</th><th>Collection Date</th></tr><tr><td>Whole blood specimen (specimen)</td><td><span class=\"nb\">18-Apr-2025</span></td></tr></table></div>"
        },
        "type": {
          "coding": [
            {
              "code": "258580003",
              "system": "http://snomed.info/sct",
              "display": "Whole blood specimen (specimen)"
            }
          ]
        }
      }
    },
    {
      "fullUrl": "urn:uuid:a781d4a8-a455-48b0-9147-e08db0e9bd3c",
      "resource": {
        "resourceType": "Observation",
        "id": "a781d4a8-a455-48b0-9147-e08db0e9bd3c",
        "meta": {
          "profile": [
            "http://hl7.eu/fhir/laboratory/StructureDefinition/Observation-resultslab-eu-lab"
          ]
        },
        "performer": [
          {
            "display": "The Central European Lab"
          }
        ],
        "category": [
          {
            "coding": [
              {
                "system": "http://terminology.hl7.org/CodeSystem/observation-category",
                "code": "laboratory"
              }
            ]
          }
        ],
        "code": {
          "coding": [
            {
              "code": "4548-4",
              "system": "http://loinc.org",
              "display": "Hemoglobin A1c/Hemoglobin.total in Blood"
            }
          ],
          "text": "Hemoglobin A1c/Hemoglobin.total in Blood"
        },
        "valueQuantity": {
          "system": "http://unitsofmeasure.org",
          "value": 6,
          "unit": "%",
          "code": "%"
        },
        "referenceRange": [
          {
            "low": {
              "value": 4.8,
              "code": "%",
              "system": "http://unitsofmeasure.org"
            }
          },
          {
            "high": {
              "value": 5.7,
              "code": "%",
              "system": "http://unitsofmeasure.org"
            }
          }
        ],
        "interpretation": [
          {
            "coding": [
              {
                "code": "H",
                "system": "http://terminology.hl7.org/CodeSystem/v3-ObservationInterpretation",
                "display": "High"
              }
            ]
          }
        ],
        "text": {
          "status": "generated",
          "div": "<div xmlns=\"http://www.w3.org/1999/xhtml\"><table class=\"hl7__eu__lab__report\"><tr><th>Test</th><th>18-Apr-2025</th><th>Reference&#xA0;Range</th><th>Unit</th></tr><tr><td>Hemoglobin A1c/Hemoglobin.total in Blood</td><td>6.0</td><td>4.8 - 5.7</td><td>H</td><td>%</td></tr></table></div>"
        },
        "status": "final",
        "subject": {
          "reference": "urn:uuid:47526471-cb23-422a-9a17-6399a528d3e3",
          "display": "Bethany Begum"
        },
        "effectiveDateTime": "2025-04-18T11:40:40Z",
        "specimen": {
          "reference": "urn:uuid:cd34f6a6-b4a0-4526-a5e4-8c60d8a565f9"
        }
      }
    },
    {
      "fullUrl": "urn:uuid:3d085655-1cfa-4c4a-8a5f-16dba3480466",
      "resource": {
        "resourceType": "Observation",
        "id": "3d085655-1cfa-4c4a-8a5f-16dba3480466",
        "meta": {
          "profile": [
            "http://hl7.eu/fhir/laboratory/StructureDefinition/Observation-resultslab-eu-lab"
          ]
        },
        "performer": [
          {
            "display": "The Central European Lab"
          }
        ],
        "category": [
          {
            "coding": [
              {
                "system": "http://terminology.hl7.org/CodeSystem/observation-category",
                "code": "laboratory"
              }
            ]
          }
        ],
        "code": {
          "coding": [
            {
              "code": "2339-0",
              "system": "http://loinc.org",
              "display": "Glucose [Mass/volume] in Blood"
            }
          ],
          "text": "Glucose [Mass/volume] in Blood"
        },
        "valueQuantity": {
          "system": "http://unitsofmeasure.org",
          "value": 70.6,
          "unit": "mg/dL",
          "code": "mg/dL"
        },
        "referenceRange": [
          {
            "low": {
              "value": 70,
              "code": "mg/dL",
              "system": "http://unitsofmeasure.org"
            }
          },
          {
            "high": {
              "value": 140,
              "code": "mg/dL",
              "system": "http://unitsofmeasure.org"
            }
          }
        ],
        "text": {
          "status": "generated",
          "div": "<div xmlns=\"http://www.w3.org/1999/xhtml\"><table class=\"hl7__eu__lab__report\"><tr><th>Test</th><th>18-Apr-2025</th><th>Reference&#xA0;Range</th><th>Unit</th></tr><tr><td>Glucose [Mass/volume] in Blood</td><td>70.6</td><td>70 - 140</td><td></td><td>mg/dL</td></tr></table></div>"
        },
        "status": "final",
        "subject": {
          "reference": "urn:uuid:47526471-cb23-422a-9a17-6399a528d3e3",
          "display": "Bethany Begum"
        },
        "effectiveDateTime": "2025-04-18T11:40:40Z",
        "specimen": {
          "reference": "urn:uuid:cd34f6a6-b4a0-4526-a5e4-8c60d8a565f9"
        }
      }
    },
    {
      "fullUrl": "urn:uuid:9d1c25ee-c266-4d82-8f79-5e60af2a4aa9",
      "resource": {
        "resourceType": "Observation",
        "id": "9d1c25ee-c266-4d82-8f79-5e60af2a4aa9",
        "meta": {
          "profile": [
            "http://hl7.eu/fhir/laboratory/StructureDefinition/Observation-resultslab-eu-lab"
          ]
        },
        "performer": [
          {
            "display": "The Central European Lab"
          }
        ],
        "category": [
          {
            "coding": [
              {
                "system": "http://terminology.hl7.org/CodeSystem/observation-category",
                "code": "laboratory"
              }
            ]
          }
        ],
        "code": {
          "coding": [
            {
              "code": "6299-2",
              "system": "http://loinc.org",
              "display": "Urea nitrogen [Mass/volume] in Blood"
            }
          ],
          "text": "Urea nitrogen [Mass/volume] in Blood"
        },
        "valueQuantity": {
          "system": "http://unitsofmeasure.org",
          "value": 7.1,
          "unit": "mg/dL",
          "code": "mg/dL"
        },
        "referenceRange": [
          {
            "low": {
              "value": 7,
              "code": "mg/dL",
              "system": "http://unitsofmeasure.org"
            }
          },
          {
            "high": {
              "value": 25,
              "code": "mg/dL",
              "system": "http://unitsofmeasure.org"
            }
          }
        ],
        "text": {
          "status": "generated",
          "div": "<div xmlns=\"http://www.w3.org/1999/xhtml\"><table class=\"hl7__eu__lab__report\"><tr><th>Test</th><th>18-Apr-2025</th><th>Reference&#xA0;Range</th><th>Unit</th></tr><tr><td>Urea nitrogen [Mass/volume] in Blood</td><td>7.1</td><td>7 - 25</td><td></td><td>mg/dL</td></tr></table></div>"
        },
        "status": "final",
        "subject": {
          "reference": "urn:uuid:47526471-cb23-422a-9a17-6399a528d3e3",
          "display": "Bethany Begum"
        },
        "effectiveDateTime": "2025-04-18T11:40:40Z",
        "specimen": {
          "reference": "urn:uuid:cd34f6a6-b4a0-4526-a5e4-8c60d8a565f9"
        }
      }
    },
    {
      "fullUrl": "urn:uuid:4bcca08f-4f50-4d2a-8754-88b2eb84597f",
      "resource": {
        "resourceType": "Observation",
        "id": "4bcca08f-4f50-4d2a-8754-88b2eb84597f",
        "meta": {
          "profile": [
            "http://hl7.eu/fhir/laboratory/StructureDefinition/Observation-resultslab-eu-lab"
          ]
        },
        "performer": [
          {
            "display": "The Central European Lab"
          }
        ],
        "category": [
          {
            "coding": [
              {
                "system": "http://terminology.hl7.org/CodeSystem/observation-category",
                "code": "laboratory"
              }
            ]
          }
        ],
        "code": {
          "coding": [
            {
              "code": "38483-4",
              "system": "http://loinc.org",
              "display": "Creatinine [Mass/volume] in Blood"
            }
          ],
          "text": "Creatinine [Mass/volume] in Blood"
        },
        "valueQuantity": {
          "system": "http://unitsofmeasure.org",
          "value": 0.9,
          "unit": "mg/dL",
          "code": "mg/dL"
        },
        "referenceRange": [
          {
            "low": {
              "value": 0.6,
              "code": "mg/dL",
              "system": "http://unitsofmeasure.org"
            }
          },
          {
            "high": {
              "value": 1.3,
              "code": "mg/dL",
              "system": "http://unitsofmeasure.org"
            }
          }
        ],
        "text": {
          "status": "generated",
          "div": "<div xmlns=\"http://www.w3.org/1999/xhtml\"><table class=\"hl7__eu__lab__report\"><tr><th>Test</th><th>18-Apr-2025</th><th>Reference&#xA0;Range</th><th>Unit</th></tr><tr><td>Creatinine [Mass/volume] in Blood</td><td>0.9</td><td>0.6 - 1.3</td><td></td><td>mg/dL</td></tr></table></div>"
        },
        "status": "final",
        "subject": {
          "reference": "urn:uuid:47526471-cb23-422a-9a17-6399a528d3e3",
          "display": "Bethany Begum"
        },
        "effectiveDateTime": "2025-04-18T11:40:40Z",
        "specimen": {
          "reference": "urn:uuid:cd34f6a6-b4a0-4526-a5e4-8c60d8a565f9"
        }
      }
    },
    {
      "fullUrl": "urn:uuid:9410c11c-b4db-4390-8db7-7ef8d48760c6",
      "resource": {
        "resourceType": "Observation",
        "id": "9410c11c-b4db-4390-8db7-7ef8d48760c6",
        "meta": {
          "profile": [
            "http://hl7.eu/fhir/laboratory/StructureDefinition/Observation-resultslab-eu-lab"
          ]
        },
        "performer": [
          {
            "display": "The Central European Lab"
          }
        ],
        "category": [
          {
            "coding": [
              {
                "system": "http://terminology.hl7.org/CodeSystem/observation-category",
                "code": "laboratory"
              }
            ]
          }
        ],
        "code": {
          "coding": [
            {
              "code": "49765-1",
              "system": "http://loinc.org",
              "display": "Calcium [Mass/volume] in Blood"
            }
          ],
          "text": "Calcium [Mass/volume] in Blood"
        },
        "valueQuantity": {
          "system": "http://unitsofmeasure.org",
          "value": 9.1,
          "unit": "mg/dL",
          "code": "mg/dL"
        },
        "referenceRange": [
          {
            "low": {
              "value": 8.5,
              "code": "mg/dL",
              "system": "http://unitsofmeasure.org"
            }
          },
          {
            "high": {
              "value": 10.5,
              "code": "mg/dL",
              "system": "http://unitsofmeasure.org"
            }
          }
        ],
        "text": {
          "status": "generated",
          "div": "<div xmlns=\"http://www.w3.org/1999/xhtml\"><table class=\"hl7__eu__lab__report\"><tr><th>Test</th><th>18-Apr-2025</th><th>Reference&#xA0;Range</th><th>Unit</th></tr><tr><td>Calcium [Mass/volume] in Blood</td><td>9.1</td><td>8.5 - 10.5</td><td></td><td>mg/dL</td></tr></table></div>"
        },
        "status": "final",
        "subject": {
          "reference": "urn:uuid:47526471-cb23-422a-9a17-6399a528d3e3",
          "display": "Bethany Begum"
        },
        "effectiveDateTime": "2025-04-18T11:40:40Z",
        "specimen": {
          "reference": "urn:uuid:cd34f6a6-b4a0-4526-a5e4-8c60d8a565f9"
        }
      }
    },
    {
      "fullUrl": "urn:uuid:417a4d7b-499b-47c6-9d1a-fd078fa0f7c6",
      "resource": {
        "resourceType": "Observation",
        "id": "417a4d7b-499b-47c6-9d1a-fd078fa0f7c6",
        "meta": {
          "profile": [
            "http://hl7.eu/fhir/laboratory/StructureDefinition/Observation-resultslab-eu-lab"
          ]
        },
        "performer": [
          {
            "display": "The Central European Lab"
          }
        ],
        "category": [
          {
            "coding": [
              {
                "system": "http://terminology.hl7.org/CodeSystem/observation-category",
                "code": "laboratory"
              }
            ]
          }
        ],
        "code": {
          "coding": [
            {
              "code": "2947-0",
              "system": "http://loinc.org",
              "display": "Sodium [Moles/volume] in Blood"
            }
          ],
          "text": "Sodium [Moles/volume] in Blood"
        },
        "valueQuantity": {
          "system": "http://unitsofmeasure.org",
          "value": 142.5,
          "unit": "mmol/L",
          "code": "mmol/L"
        },
        "referenceRange": [
          {
            "low": {
              "value": 135,
              "code": "mmol/L",
              "system": "http://unitsofmeasure.org"
            }
          },
          {
            "high": {
              "value": 145,
              "code": "mmol/L",
              "system": "http://unitsofmeasure.org"
            }
          }
        ],
        "text": {
          "status": "generated",
          "div": "<div xmlns=\"http://www.w3.org/1999/xhtml\"><table class=\"hl7__eu__lab__report\"><tr><th>Test</th><th>18-Apr-2025</th><th>Reference&#xA0;Range</th><th>Unit</th></tr><tr><td>Sodium [Moles/volume] in Blood</td><td>142.5</td><td>135 - 145</td><td></td><td>mmol/L</td></tr></table></div>"
        },
        "status": "final",
        "subject": {
          "reference": "urn:uuid:47526471-cb23-422a-9a17-6399a528d3e3",
          "display": "Bethany Begum"
        },
        "effectiveDateTime": "2025-04-18T11:40:40Z",
        "specimen": {
          "reference": "urn:uuid:cd34f6a6-b4a0-4526-a5e4-8c60d8a565f9"
        }
      }
    },
    {
      "fullUrl": "urn:uuid:a0652cf3-5ba4-49b5-8f7a-5d484b89173b",
      "resource": {
        "resourceType": "Observation",
        "id": "a0652cf3-5ba4-49b5-8f7a-5d484b89173b",
        "meta": {
          "profile": [
            "http://hl7.eu/fhir/laboratory/StructureDefinition/Observation-resultslab-eu-lab"
          ]
        },
        "performer": [
          {
            "display": "The Central European Lab"
          }
        ],
        "category": [
          {
            "coding": [
              {
                "system": "http://terminology.hl7.org/CodeSystem/observation-category",
                "code": "laboratory"
              }
            ]
          }
        ],
        "code": {
          "coding": [
            {
              "code": "6298-4",
              "system": "http://loinc.org",
              "display": "Potassium [Moles/volume] in Blood"
            }
          ],
          "text": "Potassium [Moles/volume] in Blood"
        },
        "valueQuantity": {
          "system": "http://unitsofmeasure.org",
          "value": 4.9,
          "unit": "mmol/L",
          "code": "mmol/L"
        },
        "referenceRange": [
          {
            "low": {
              "value": 3.5,
              "code": "mmol/L",
              "system": "http://unitsofmeasure.org"
            }
          },
          {
            "high": {
              "value": 5.1,
              "code": "mmol/L",
              "system": "http://unitsofmeasure.org"
            }
          }
        ],
        "text": {
          "status": "generated",
          "div": "<div xmlns=\"http://www.w3.org/1999/xhtml\"><table class=\"hl7__eu__lab__report\"><tr><th>Test</th><th>18-Apr-2025</th><th>Reference&#xA0;Range</th><th>Unit</th></tr><tr><td>Potassium [Moles/volume] in Blood</td><td>4.9</td><td>3.5 - 5.1</td><td></td><td>mmol/L</td></tr></table></div>"
        },
        "status": "final",
        "subject": {
          "reference": "urn:uuid:47526471-cb23-422a-9a17-6399a528d3e3",
          "display": "Bethany Begum"
        },
        "effectiveDateTime": "2025-04-18T11:40:40Z",
        "specimen": {
          "reference": "urn:uuid:cd34f6a6-b4a0-4526-a5e4-8c60d8a565f9"
        }
      }
    },
    {
      "fullUrl": "urn:uuid:4c7f0ed7-b6f1-4dcf-939f-39fe5ab02670",
      "resource": {
        "resourceType": "Observation",
        "id": "4c7f0ed7-b6f1-4dcf-939f-39fe5ab02670",
        "meta": {
          "profile": [
            "http://hl7.eu/fhir/laboratory/StructureDefinition/Observation-resultslab-eu-lab"
          ]
        },
        "performer": [
          {
            "display": "The Central European Lab"
          }
        ],
        "category": [
          {
            "coding": [
              {
                "system": "http://terminology.hl7.org/CodeSystem/observation-category",
                "code": "laboratory"
              }
            ]
          }
        ],
        "code": {
          "coding": [
            {
              "code": "2069-3",
              "system": "http://loinc.org",
              "display": "Chloride [Moles/volume] in Blood"
            }
          ],
          "text": "Chloride [Moles/volume] in Blood"
        },
        "valueQuantity": {
          "system": "http://unitsofmeasure.org",
          "value": 109.5,
          "unit": "mmol/L",
          "code": "mmol/L"
        },
        "referenceRange": [
          {
            "low": {
              "value": 98,
              "code": "mmol/L",
              "system": "http://unitsofmeasure.org"
            }
          },
          {
            "high": {
              "value": 108,
              "code": "mmol/L",
              "system": "http://unitsofmeasure.org"
            }
          }
        ],
        "interpretation": [
          {
            "coding": [
              {
                "code": "H",
                "system": "http://terminology.hl7.org/CodeSystem/v3-ObservationInterpretation",
                "display": "High"
              }
            ]
          }
        ],
        "text": {
          "status": "generated",
          "div": "<div xmlns=\"http://www.w3.org/1999/xhtml\"><table class=\"hl7__eu__lab__report\"><tr><th>Test</th><th>18-Apr-2025</th><th>Reference&#xA0;Range</th><th>Unit</th></tr><tr><td>Chloride [Moles/volume] in Blood</td><td>109.5</td><td>98 - 108</td><td>H</td><td>mmol/L</td></tr></table></div>"
        },
        "status": "final",
        "subject": {
          "reference": "urn:uuid:47526471-cb23-422a-9a17-6399a528d3e3",
          "display": "Bethany Begum"
        },
        "effectiveDateTime": "2025-04-18T11:40:40Z",
        "specimen": {
          "reference": "urn:uuid:cd34f6a6-b4a0-4526-a5e4-8c60d8a565f9"
        }
      }
    },
    {
      "fullUrl": "urn:uuid:81b22b68-a37e-4698-a4e7-95dd83b784c4",
      "resource": {
        "resourceType": "Observation",
        "id": "81b22b68-a37e-4698-a4e7-95dd83b784c4",
        "meta": {
          "profile": [
            "http://hl7.eu/fhir/laboratory/StructureDefinition/Observation-resultslab-eu-lab"
          ]
        },
        "performer": [
          {
            "display": "The Central European Lab"
          }
        ],
        "category": [
          {
            "coding": [
              {
                "system": "http://terminology.hl7.org/CodeSystem/observation-category",
                "code": "laboratory"
              }
            ]
          }
        ],
        "code": {
          "coding": [
            {
              "code": "20565-8",
              "system": "http://loinc.org",
              "display": "Carbon dioxide, total [Moles/volume] in Blood"
            }
          ],
          "text": "Carbon dioxide, total [Moles/volume] in Blood"
        },
        "valueQuantity": {
          "system": "http://unitsofmeasure.org",
          "value": 20.8,
          "unit": "mmol/L",
          "code": "mmol/L"
        },
        "referenceRange": [
          {
            "low": {
              "value": 22,
              "code": "mmol/L",
              "system": "http://unitsofmeasure.org"
            }
          },
          {
            "high": {
              "value": 29,
              "code": "mmol/L",
              "system": "http://unitsofmeasure.org"
            }
          }
        ],
        "interpretation": [
          {
            "coding": [
              {
                "code": "L",
                "system": "http://terminology.hl7.org/CodeSystem/v3-ObservationInterpretation",
                "display": "Low"
              }
            ]
          }
        ],
        "text": {
          "status": "generated",
          "div": "<div xmlns=\"http://www.w3.org/1999/xhtml\"><table class=\"hl7__eu__lab__report\"><tr><th>Test</th><th>18-Apr-2025</th><th>Reference&#xA0;Range</th><th>Unit</th></tr><tr><td>Carbon dioxide, total [Moles/volume] in Blood</td><td>20.8</td><td>22 - 29</td><td>L</td><td>mmol/L</td></tr></table></div>"
        },
        "status": "final",
        "subject": {
          "reference": "urn:uuid:47526471-cb23-422a-9a17-6399a528d3e3",
          "display": "Bethany Begum"
        },
        "effectiveDateTime": "2025-04-18T11:40:40Z",
        "specimen": {
          "reference": "urn:uuid:cd34f6a6-b4a0-4526-a5e4-8c60d8a565f9"
        }
      }
    },
    {
      "fullUrl": "urn:uuid:8fb3c747-24bf-4449-92d6-dd7c056591d5",
      "resource": {
        "resourceType": "Device",
        "id": "8fb3c747-24bf-4449-92d6-dd7c056591d5",
        "deviceName": [
          {
            "name": "SYNDERAI Synthetic Generator",
            "type": "manufacturer-name"
          }
        ],
        "version": [
          {
            "value": "5.0"
          }
        ],
        "text": {
          "status": "generated",
          "div": "<div xmlns=\"http://www.w3.org/1999/xhtml\">SYNDERAI Synthetic Generator v5.0</div>"
        },
        "status": "active\"",
        "distinctIdentifier": "synderai-generator-50",
        "manufacturer": "SYNDERAI Project"
      }
    },
    {
      "fullUrl": "urn:uuid:8b757918-4d2d-467c-93be-8da3d50d619c",
      "resource": {
        "resourceType": "Provenance",
        "id": "8b757918-4d2d-467c-93be-8da3d50d619c",
        "target": [
          {
            "reference": "Patient/47526471-cb23-422a-9a17-6399a528d3e3"
          },
          {
            "reference": "Bundle/4ab5175f-dd1d-40c7-b8ca-90ff9f484ef9"
          },
          {
            "reference": "Composition/4a40bc40-d8b8-4b62-bfbc-89cce2f7732b"
          },
          {
            "reference": "PractitionerRole/b3d0378e-4a02-4202-98cb-270d7f3427e7"
          },
          {
            "reference": "Practitioner/a81b1f56-8063-450e-bf26-17c2a18657d6"
          },
          {
            "reference": "PractitionerRole/603718b0-89ec-4f54-bdec-659c89a0fd39"
          },
          {
            "reference": "Organization/8e22bb53-5ea5-4973-b043-5faff710ab86"
          }
        ],
        "activity": {
          "text": "Synthetic Example Data Generation"
        },
        "policy": [
          "https://synderai.net/synderai-synthetic-data-policy"
        ],
        "agent": [
          {
            "type": {
              "text": "author"
            },
            "who": {
              "reference": "Device/8fb3c747-24bf-4449-92d6-dd7c056591d5"
            }
          }
        ],
        "reason": [
          {
            "text": "Interoperability Testing and Training (non-clinical use)"
          }
        ],
        "text": {
          "status": "generated",
          "div": "<div xmlns=\"http://www.w3.org/1999/xhtml\">Provenance for SYNDERAI Synthetic Example Data Resource</div>"
        },
        "recorded": "2025-04-18T13:40:40Z"
      }
    },
    {
      "fullUrl": "urn:uuid:b3d0378e-4a02-4202-98cb-270d7f3427e7",
      "resource": {
        "resourceType": "PractitionerRole",
        "id": "b3d0378e-4a02-4202-98cb-270d7f3427e7",
        "meta": {
          "profile": [
            "http://hl7.eu/fhir/base/StructureDefinition/practitionerRole-eu"
          ]
        },
        "text": {
          "status": "generated",
          "div": "<div xmlns=\"http://www.w3.org/1999/xhtml\">Laboratory Role Id: b3d0378e-4a02-4202-98cb-270d7f3427e7</div>"
        },
        "practitioner": {
          "reference": "urn:uuid:a81b1f56-8063-450e-bf26-17c2a18657d6"
        }
      }
    },
    {
      "fullUrl": "urn:uuid:a81b1f56-8063-450e-bf26-17c2a18657d6",
      "resource": {
        "resourceType": "Practitioner",
        "id": "a81b1f56-8063-450e-bf26-17c2a18657d6",
        "meta": {
          "profile": [
            "http://hl7.eu/fhir/base/StructureDefinition/practitioner-eu"
          ]
        },
        "identifier": [
          {
            "assigner": {
              "display": "HL7 Europe"
            },
            "system": "urn:oid:2.16.840.1.113883.2.51.999",
            "value": "9d0990ad-5bb7-496f-9af0-839eb64ede27"
          }
        ],
        "name": [
          {
            "prefix": [
              "dr"
            ],
            "given": [
              "Ex"
            ],
            "family": "Ample"
          }
        ],
        "address": [
          {
            "line": [
              "Laboratoire Central Européenne",
              "Boulevard du Jardin Botanique 32"
            ],
            "postalCode": "1000",
            "city": "Brussels",
            "country": "Belgium"
          }
        ],
        "text": {
          "status": "generated",
          "div": "<div xmlns=\"http://www.w3.org/1999/xhtml\">Laboratory: Laboratoire Central Européenne, 1000 Brussels, Belgium</div>"
        }
      }
    }
  ],
  "type": "document",
  "timestamp": "2025-04-18T13:40:40Z"
}
