{
  "resourceType": "Bundle",
  "id": "dfe0dfae-2337-4266-98f8-eaf97abe4a2a",
  "meta": {
    "profile": [
      "http://hl7.eu/fhir/laboratory/StructureDefinition/Bundle-eu-lab"
    ]
  },
  "identifier": {
    "assigner": {
      "display": "HL7 Europe"
    },
    "system": "urn:oid:2.16.840.1.113883.2.51.999",
    "value": "a40d7aba-bd7d-48ba-b5b4-e43b40e77dbf"
  },
  "entry": [
    {
      "fullUrl": "urn:uuid:8abfba4c-aee3-484b-981f-d9810db1f620",
      "resource": {
        "resourceType": "Composition",
        "id": "8abfba4c-aee3-484b-981f-d9810db1f620",
        "meta": {
          "profile": [
            "http://hl7.eu/fhir/laboratory/StructureDefinition/Composition-eu-lab"
          ]
        },
        "identifier": {
          "assigner": {
            "display": "HL7 Europe"
          },
          "system": "urn:oid:2.16.840.1.113883.2.51.999",
          "value": "51ebda21-1bba-4a69-9220-6e96e10fe64b"
        },
        "author": [
          {
            "reference": "urn:uuid:8d48bcbe-07bb-406b-afd7-465d395ec294"
          }
        ],
        "category": [
          {
            "coding": [
              {
                "code": "26436-6",
                "system": "http://loinc.org",
                "display": "Laboratory studies (set)"
              }
            ]
          }
        ],
        "type": {
          "coding": [
            {
              "code": "11502-2",
              "system": "http://loinc.org",
              "display": "Laboratory report"
            }
          ],
          "text": "Laboratory Report"
        },
        "section": [
          {
            "code": {
              "coding": [
                {
                  "code": "26436-6",
                  "system": "http://loinc.org",
                  "display": "Laboratory studies (set)"
                }
              ],
              "text": "Laboratory studies"
            },
            "section": [
              {
                "code": {
                  "coding": [
                    {
                      "code": "$18719-5",
                      "system": "http://loinc.org",
                      "display": "Chemistry studies (set)"
                    }
                  ],
                  "text": "Chemistry"
                },
                "entry": [
                  {
                    "reference": "urn:uuid:ae827853-7cca-4574-ae46-2b2852a861f1"
                  },
                  {
                    "reference": "urn:uuid:1c01cb97-9437-4d6a-a0bb-a7d9103cf376"
                  },
                  {
                    "reference": "urn:uuid:c9d7ca19-c0f7-4511-a950-59bdab7496ee"
                  },
                  {
                    "reference": "urn:uuid:a9b64f87-6b26-485e-86f3-920394fca432"
                  },
                  {
                    "reference": "urn:uuid:4470a332-a1b7-4e2a-8a72-8d1bdcef3ab5"
                  },
                  {
                    "reference": "urn:uuid:dd87ad96-da68-41ff-a019-7c86d9cac5b6"
                  },
                  {
                    "reference": "urn:uuid:105efb13-df0e-45a7-a09e-f8fddf781436"
                  },
                  {
                    "reference": "urn:uuid:30406eb2-4a94-4adb-841a-7e992c2bc151"
                  },
                  {
                    "reference": "urn:uuid:1a718b37-b62e-4afd-89cb-3deedd26eee0"
                  },
                  {
                    "reference": "urn:uuid:86c1f153-8708-497d-8b20-86fab22f62db"
                  },
                  {
                    "reference": "urn:uuid:39e1edd6-85b4-40ed-8762-59e7d3e33421"
                  },
                  {
                    "reference": "urn:uuid:b2f940d4-3e91-42e0-8842-bc2f52574cdd"
                  },
                  {
                    "reference": "urn:uuid:03798e2f-7da6-42b7-8a55-7a52a7c7088c"
                  },
                  {
                    "reference": "urn:uuid:2080baeb-0819-4325-8fdf-10beb2db4855"
                  },
                  {
                    "reference": "urn:uuid:9303d895-8756-4d13-9ea3-752f13f63bbb"
                  },
                  {
                    "reference": "urn:uuid:02d03d47-417e-4054-8cb9-9bfe5b9d2fdb"
                  },
                  {
                    "reference": "urn:uuid:212ece34-e15b-47b1-9b83-937d69c6586c"
                  },
                  {
                    "reference": "urn:uuid:6623faa6-4788-4cf1-b5c0-6984c6fbf7df"
                  }
                ],
                "text": {
                  "status": "generated",
                  "div": "<div xmlns=\"http://www.w3.org/1999/xhtml\"><h3>Chemistry</h3><table class=\"hl7__eu__lab__report\"><thead><tr><th>Test</th><th>31-JAN-2022</th><th>Reference&#xA0;Range</th><th>Unit</th></tr></thead><tbody><tr><td>Glucose [Mass/volume] in Serum or Plasma</td><td>86.4</td><td>70 - 99</td><td>mg/dL</td></tr><tr><td>Urea nitrogen [Mass/volume] in Serum or Plasma</td><td>9.3</td><td>7 - 50</td><td>mg/dL</td></tr><tr><td>Creatinine [Mass/volume] in Serum or Plasma</td><td><strong>2.1 H</strong></td><td>0.6 - 1.1</td><td>mg/dL</td></tr><tr><td>Calcium [Mass/volume] in Serum or Plasma</td><td>9.2</td><td>8.6 - 10.4</td><td>mg/dL</td></tr><tr><td>Sodium [Moles/volume] in Serum or Plasma</td><td>141.5</td><td>135 - 145</td><td>mmol/L</td></tr><tr><td>Potassium [Moles/volume] in Serum or Plasma</td><td>3.8</td><td>3.5 - 5.1</td><td>mmol/L</td></tr><tr><td>Chloride [Moles/volume] in Serum or Plasma</td><td>102.5</td><td>98 - 108</td><td>mmol/L</td></tr><tr><td>Carbon dioxide, total [Moles/volume] in Serum or Plasma</td><td>28.8</td><td>22 - 32</td><td>mmol/L</td></tr><tr><td>Ketones [Presence] in Urine by Test strip</td><td>Urine ketone test = ++</td><td></td><td></td></tr><tr><td>Hemoglobin A1c/Hemoglobin.total in Blood</td><td><strong>3.0 L</strong></td><td>4 - 6.4</td><td>%</td></tr><tr><td>Glucose [Mass/volume] in Blood</td><td>86.4</td><td>70 - 100</td><td>mg/dL</td></tr><tr><td>Urea nitrogen [Mass/volume] in Blood</td><td>9.3</td><td>7 - 43</td><td>mg/dL</td></tr><tr><td>Creatinine [Mass/volume] in Blood</td><td><strong>3.0 H</strong></td><td>0.6 - 1.1</td><td>mg/dL</td></tr><tr><td>Calcium [Mass/volume] in Blood</td><td>9.2</td><td>8.5 - 10.5</td><td>mg/dL</td></tr><tr><td>Sodium [Moles/volume] in Blood</td><td>141.5</td><td>135 - 145</td><td>mmol/L</td></tr><tr><td>Potassium [Moles/volume] in Blood</td><td>3.8</td><td>3.5 - 5.1</td><td>mmol/L</td></tr><tr><td>Chloride [Moles/volume] in Blood</td><td>102.5</td><td>98 - 108</td><td>mmol/L</td></tr><tr><td>Carbon dioxide, total [Moles/volume] in Blood</td><td>28.8</td><td>22 - 29</td><td>mmol/L</td></tr></tbody></table></div>"
                },
                "title": "Chemistry"
              },
              {
                "code": {
                  "coding": [
                    {
                      "code": "$18729-4",
                      "system": "http://loinc.org",
                      "display": "Urinalysis studies (set)"
                    }
                  ],
                  "text": "Urinalysis"
                },
                "entry": [
                  {
                    "reference": "urn:uuid:08130f82-7356-456e-aae7-5c93451c4f89"
                  },
                  {
                    "reference": "urn:uuid:3592a913-1510-4867-88c9-c7affb5f4093"
                  },
                  {
                    "reference": "urn:uuid:5a497a19-6a06-4390-ae5f-6128d87b7123"
                  },
                  {
                    "reference": "urn:uuid:eecf2788-9bf9-4f00-9aa0-94fffbb6b9ab"
                  },
                  {
                    "reference": "urn:uuid:265ad263-3654-4489-b90e-0d7f12c9dbc0"
                  },
                  {
                    "reference": "urn:uuid:0191bb07-791f-49b1-b751-9a55b44cb2b1"
                  },
                  {
                    "reference": "urn:uuid:23280913-19c7-4dcf-870f-71fe21723a03"
                  },
                  {
                    "reference": "urn:uuid:43cf7168-b815-4fda-a146-6aff5babc9f0"
                  },
                  {
                    "reference": "urn:uuid:e99d01df-63d8-4be1-9515-ae33254094ce"
                  },
                  {
                    "reference": "urn:uuid:a393f50e-e910-436e-8baf-685cc80f5655"
                  },
                  {
                    "reference": "urn:uuid:6de622a1-219e-4b7f-83d8-e82ddee09cbd"
                  },
                  {
                    "reference": "urn:uuid:319c5aa7-ce21-4926-9f9b-75c203d3b806"
                  }
                ],
                "text": {
                  "status": "generated",
                  "div": "<div xmlns=\"http://www.w3.org/1999/xhtml\"><h3>Urinalysis</h3><table class=\"hl7__eu__lab__report\"><thead><tr><th>Test</th><th>31-JAN-2022</th><th>Reference&#xA0;Range</th><th>Unit</th></tr></thead><tbody><tr><td>Glucose [Mass/volume] in Urine by Test strip</td><td><strong>1.3 H</strong></td><td>0.8 - 0</td><td>mg/dL</td></tr><tr><td>Glucose [Presence] in Urine by Test strip</td><td>++</td><td></td><td></td></tr><tr><td>Bilirubin.total [Mass/volume] in Urine by Test strip</td><td>0.9</td><td>0 - 1</td><td>mg/dL</td></tr><tr><td>Bilirubin.total [Presence] in Urine by Test strip</td><td>Finding of bilirubin in urine</td><td></td><td></td></tr><tr><td>Ketones [Mass/volume] in Urine by Test strip</td><td><strong>10.8 H</strong></td><td>0 - 4</td><td>mg/dL</td></tr><tr><td>Specific gravity of Urine by Test strip</td><td><strong>1.0 L</strong></td><td>1.005 - 1.03</td><td>{nominal}</td></tr><tr><td>pH of Urine by Test strip</td><td>5.0</td><td>4.6 - 7</td><td>pH</td></tr><tr><td>Protein [Mass/volume] in Urine by Test strip</td><td><strong>256.7 H</strong></td><td>0 - 14</td><td>mg/dL</td></tr><tr><td>Protein [Presence] in Urine by Test strip</td><td>Urine protein test = ++</td><td></td><td></td></tr><tr><td>Nitrite [Presence] in Urine by Test strip</td><td>Urine nitrite negative</td><td></td><td></td></tr><tr><td>Hemoglobin [Presence] in Urine by Test strip</td><td>Urine blood test = negative</td><td></td><td></td></tr><tr><td>Leukocyte esterase [Presence] in Urine by Test strip</td><td>Urine leukocyte test negative</td><td></td><td></td></tr></tbody></table></div>"
                },
                "title": "Urinalysis"
              },
              {
                "code": {
                  "coding": [
                    {
                      "code": "$LP7846-1",
                      "system": "http://loinc.org",
                      "display": "Specimen information"
                    }
                  ],
                  "text": "Specimen information"
                },
                "entry": [
                  {
                    "reference": "urn:uuid:66582881-dde4-47dd-a69a-9278b6db6b1e"
                  },
                  {
                    "reference": "urn:uuid:a461fbbd-2d7b-48c6-9990-5afff1d7fbce"
                  },
                  {
                    "reference": "urn:uuid:55b3aba6-3834-4a56-8764-5f9e0035b021"
                  },
                  {
                    "reference": "urn:uuid:3c6ef4b2-4f21-4d59-9795-442cf143e82f"
                  }
                ],
                "text": {
                  "status": "generated",
                  "div": "<div xmlns=\"http://www.w3.org/1999/xhtml\"><h3>Specimen information</h3><table class=\"hl7__eu__lab__report\"><thead><tr><th>Test</th><th>31-JAN-2022</th><th>Specimen</th><th></th></tr></thead><tbody><tr><td>Appearance of Urine</td><td>Cloudy urine</td><td>Urine</td><td></td></tr><tr><td>Odor of Urine</td><td>Urine smell ammoniacal</td><td>Urine</td><td></td></tr><tr><td>Clarity of Urine</td><td>Translucent</td><td>Urine</td><td></td></tr><tr><td>Color of Urine</td><td>Brown color</td><td>Urine</td><td></td></tr></tbody></table></div>"
                },
                "title": "Specimen information"
              }
            ],
            "title": "Laboratory Report"
          },
          {
            "text": {
              "status": "generated",
              "div": "<div xmlns=\"http://www.w3.org/1999/xhtml\"><h3>Annotation</h3><table class=\"hl7__eu__lab__report\"><tr><th>Conclusion and Recommendations based on this report and previous findings known to us</th></tr><tr><td>The patient shows significantly elevated creatinine, marked proteinuria, glucosuria, and ketonuria, with low urine specific gravity and brown, cloudy urine. These findings suggest impaired renal function, likely chronic kidney disease with possible nephrotic-range proteinuria. The presence of glucosuria with low HbA1c and normal blood glucose may indicate renal glycosuria. Urine findings (color, appearance) may also suggest possible urinary tract pathology. Recommend urgent nephrology evaluation and further workup.</td></tr></table></div>"
            },
            "code": {
              "coding": [
                {
                  "system": "http://loinc.org",
                  "code": "48767-8",
                  "display": "Annotation comment"
                }
              ]
            },
            "title": "Annotation comment"
          }
        ],
        "status": "final",
        "subject": {
          "reference": "urn:uuid:2d7ed524-04e3-41a0-be0c-99ed1dbaa4fa",
          "display": "Meaghan Neary"
        },
        "date": "2022-01-31T23:11:04Z",
        "title": "Laboratory Report",
        "confidentiality": "N"
      }
    },
    {
      "fullUrl": "urn:uuid:6e95c878-3fb3-4d4f-b372-bc4dbaec0757",
      "resource": {
        "resourceType": "DiagnosticReport",
        "id": "6e95c878-3fb3-4d4f-b372-bc4dbaec0757",
        "meta": {
          "profile": [
            "http://hl7.eu/fhir/laboratory/StructureDefinition/DiagnosticReport-eu-lab"
          ]
        },
        "identifier": [
          {
            "assigner": {
              "display": "HL7 Europe"
            },
            "system": "urn:oid:2.16.840.1.113883.2.51.999",
            "value": "6993e528-4c3d-4224-afab-aa8bf165cceb"
          }
        ],
        "extension": [
          {
            "url": "http://hl7.org/fhir/5.0/StructureDefinition/extension-DiagnosticReport.composition",
            "valueReference": {
              "reference": "urn:uuid:51ebda21-1bba-4a69-9220-6e96e10fe64b"
            }
          }
        ],
        "category": [
          {
            "coding": [
              {
                "code": "26436-6",
                "system": "http://loinc.org",
                "display": "Laboratory studies (set)"
              }
            ]
          }
        ],
        "specimen": [
          {
            "reference": "urn:uuid:f40b422a-e73c-4931-b05c-8163fcf0fa2f"
          },
          {
            "reference": "urn:uuid:655f4abc-cbc9-47af-a09a-5b01675b0677"
          },
          {
            "reference": "urn:uuid:67364395-614b-4e1c-8dd6-74b8b71cd958"
          }
        ],
        "result": [
          {
            "reference": "urn:uuid:ae827853-7cca-4574-ae46-2b2852a861f1"
          },
          {
            "reference": "urn:uuid:1c01cb97-9437-4d6a-a0bb-a7d9103cf376"
          },
          {
            "reference": "urn:uuid:c9d7ca19-c0f7-4511-a950-59bdab7496ee"
          },
          {
            "reference": "urn:uuid:a9b64f87-6b26-485e-86f3-920394fca432"
          },
          {
            "reference": "urn:uuid:4470a332-a1b7-4e2a-8a72-8d1bdcef3ab5"
          },
          {
            "reference": "urn:uuid:dd87ad96-da68-41ff-a019-7c86d9cac5b6"
          },
          {
            "reference": "urn:uuid:105efb13-df0e-45a7-a09e-f8fddf781436"
          },
          {
            "reference": "urn:uuid:30406eb2-4a94-4adb-841a-7e992c2bc151"
          },
          {
            "reference": "urn:uuid:66582881-dde4-47dd-a69a-9278b6db6b1e"
          },
          {
            "reference": "urn:uuid:a461fbbd-2d7b-48c6-9990-5afff1d7fbce"
          },
          {
            "reference": "urn:uuid:55b3aba6-3834-4a56-8764-5f9e0035b021"
          },
          {
            "reference": "urn:uuid:3c6ef4b2-4f21-4d59-9795-442cf143e82f"
          },
          {
            "reference": "urn:uuid:08130f82-7356-456e-aae7-5c93451c4f89"
          },
          {
            "reference": "urn:uuid:3592a913-1510-4867-88c9-c7affb5f4093"
          },
          {
            "reference": "urn:uuid:5a497a19-6a06-4390-ae5f-6128d87b7123"
          },
          {
            "reference": "urn:uuid:eecf2788-9bf9-4f00-9aa0-94fffbb6b9ab"
          },
          {
            "reference": "urn:uuid:265ad263-3654-4489-b90e-0d7f12c9dbc0"
          },
          {
            "reference": "urn:uuid:1a718b37-b62e-4afd-89cb-3deedd26eee0"
          },
          {
            "reference": "urn:uuid:0191bb07-791f-49b1-b751-9a55b44cb2b1"
          },
          {
            "reference": "urn:uuid:23280913-19c7-4dcf-870f-71fe21723a03"
          },
          {
            "reference": "urn:uuid:43cf7168-b815-4fda-a146-6aff5babc9f0"
          },
          {
            "reference": "urn:uuid:e99d01df-63d8-4be1-9515-ae33254094ce"
          },
          {
            "reference": "urn:uuid:a393f50e-e910-436e-8baf-685cc80f5655"
          },
          {
            "reference": "urn:uuid:6de622a1-219e-4b7f-83d8-e82ddee09cbd"
          },
          {
            "reference": "urn:uuid:319c5aa7-ce21-4926-9f9b-75c203d3b806"
          },
          {
            "reference": "urn:uuid:86c1f153-8708-497d-8b20-86fab22f62db"
          },
          {
            "reference": "urn:uuid:39e1edd6-85b4-40ed-8762-59e7d3e33421"
          },
          {
            "reference": "urn:uuid:b2f940d4-3e91-42e0-8842-bc2f52574cdd"
          },
          {
            "reference": "urn:uuid:03798e2f-7da6-42b7-8a55-7a52a7c7088c"
          },
          {
            "reference": "urn:uuid:2080baeb-0819-4325-8fdf-10beb2db4855"
          },
          {
            "reference": "urn:uuid:9303d895-8756-4d13-9ea3-752f13f63bbb"
          },
          {
            "reference": "urn:uuid:02d03d47-417e-4054-8cb9-9bfe5b9d2fdb"
          },
          {
            "reference": "urn:uuid:212ece34-e15b-47b1-9b83-937d69c6586c"
          },
          {
            "reference": "urn:uuid:6623faa6-4788-4cf1-b5c0-6984c6fbf7df"
          }
        ],
        "status": "registered",
        "code": {
          "coding": [
            {
              "code": "11502-2",
              "system": "http://loinc.org",
              "display": "Laboratory report"
            }
          ]
        },
        "subject": {
          "reference": "urn:uuid:2d7ed524-04e3-41a0-be0c-99ed1dbaa4fa",
          "display": "Meaghan Neary"
        }
      }
    },
    {
      "fullUrl": "urn:uuid:2d7ed524-04e3-41a0-be0c-99ed1dbaa4fa",
      "resource": {
        "resourceType": "Patient",
        "id": "2d7ed524-04e3-41a0-be0c-99ed1dbaa4fa",
        "meta": {
          "security": [
            {
              "system": "http://terminology.hl7.org/CodeSystem/v3-ActReason",
              "code": "HTEST"
            },
            {
              "system": "http://terminology.hl7.org/CodeSystem/v3-ActReason",
              "code": "TRAIN"
            }
          ],
          "tag": [
            {
              "system": "https://synderai.net/fhir/CodeSystem/tags",
              "code": "synthetic",
              "display": "SYNDERAI Synthetic data"
            }
          ],
          "profile": [
            "http://hl7.eu/fhir/base/StructureDefinition/patient-eu-core"
          ]
        },
        "identifier": [
          {
            "type": {
              "coding": [
                {
                  "code": "PT",
                  "system": "http://terminology.hl7.org/CodeSystem/v2-0203"
                }
              ]
            },
            "system": "http://ec.europa.eu/identifier/eci",
            "value": "1586-567257-8"
          },
          {
            "type": {
              "coding": [
                {
                  "code": "MR",
                  "system": "http://terminology.hl7.org/CodeSystem/v2-0203"
                }
              ]
            },
            "system": "http://local.setting.eu/identifier",
            "value": "443e6379-f231-b364-3ccb-644740a1aa2a"
          }
        ],
        "name": [
          {
            "family": "Neary"
          },
          {
            "given": [
              "Meaghan"
            ]
          },
          {
            "text": "Meaghan Neary"
          }
        ],
        "address": [
          {
            "line": [
              "64 Linskey Street"
            ],
            "use": "home",
            "type": "physical",
            "postalCode": "D02",
            "city": "Dublin",
            "country": "Ireland"
          }
        ],
        "telecom": [
          {
            "system": "phone",
            "value": "001-967-573-0911x465"
          }
        ],
        "extension": [
          {
            "url": "http://hl7.org/fhir/StructureDefinition/patient-nationality",
            "valueCodeableConcept": {
              "coding": [
                {
                  "code": "IE",
                  "system": "http://hl7.org/fhir/ValueSet/country"
                }
              ]
            }
          }
        ],
        "text": {
          "status": "generated",
          "div": "<div xmlns=\"http://www.w3.org/1999/xhtml\"><table class=\"hl7__ips\"><tr><td>Meaghan Neary</td><td>female</td><td>19-Dec-1960</td></tr></table></div>"
        },
        "gender": "female",
        "birthDate": "1960-12-19"
      }
    },
    {
      "fullUrl": "urn:uuid:d4503ca3-d072-4704-899b-a3805c65d844",
      "resource": {
        "resourceType": "ServiceRequest",
        "id": "d4503ca3-d072-4704-899b-a3805c65d844",
        "meta": {
          "profile": [
            "http://hl7.eu/fhir/laboratory/StructureDefinition/ServiceRequest-eu-lab"
          ]
        },
        "identifier": [
          {
            "system": "http://example.org",
            "value": "6693c86c-e3a1-452b-9d2b-268c956d387e"
          }
        ],
        "specimen": [
          {
            "reference": "urn:uuid:f40b422a-e73c-4931-b05c-8163fcf0fa2f"
          },
          {
            "reference": "urn:uuid:655f4abc-cbc9-47af-a09a-5b01675b0677"
          },
          {
            "reference": "urn:uuid:67364395-614b-4e1c-8dd6-74b8b71cd958"
          }
        ],
        "reasonCode": [
          {
            "coding": [
              {
                "code": "55822004",
                "system": "http://snomed.info/sct",
                "display": "Hyperlipidemia"
              }
            ]
          },
          {
            "coding": [
              {
                "code": "433144002",
                "system": "http://snomed.info/sct",
                "display": "Chronic kidney disease stage 3"
              }
            ]
          },
          {
            "coding": [
              {
                "code": "157141000119108",
                "system": "http://snomed.info/sct",
                "display": "Proteinuria due to type 2 diabetes mellitus"
              }
            ]
          },
          {
            "coding": [
              {
                "code": "431856006",
                "system": "http://snomed.info/sct",
                "display": "Chronic kidney disease stage 2"
              }
            ]
          },
          {
            "coding": [
              {
                "code": "90781000119102",
                "system": "http://snomed.info/sct",
                "display": "Microalbuminuria due to type 2 diabetes mellitus"
              }
            ]
          },
          {
            "coding": [
              {
                "code": "127013003",
                "system": "http://snomed.info/sct",
                "display": "Disorder of kidney due to diabetes mellitus"
              }
            ]
          },
          {
            "coding": [
              {
                "code": "431855005",
                "system": "http://snomed.info/sct",
                "display": "Chronic kidney disease stage 1"
              }
            ]
          },
          {
            "coding": [
              {
                "code": "237602007",
                "system": "http://snomed.info/sct",
                "display": "Metabolic syndrome X"
              }
            ]
          },
          {
            "coding": [
              {
                "code": "271737000",
                "system": "http://snomed.info/sct",
                "display": "Anemia"
              }
            ]
          },
          {
            "coding": [
              {
                "code": "15777000",
                "system": "http://snomed.info/sct",
                "display": "Prediabetes"
              }
            ]
          },
          {
            "coding": [
              {
                "code": "59621000",
                "system": "http://snomed.info/sct",
                "display": "Essential hypertension"
              }
            ]
          }
        ],
        "status": "active",
        "intent": "order",
        "code": {
          "coding": [
            {
              "code": "108252007",
              "system": "http://snomed.info/sct",
              "display": "Laboratory procedure"
            }
          ]
        },
        "subject": {
          "reference": "urn:uuid:2d7ed524-04e3-41a0-be0c-99ed1dbaa4fa",
          "display": "Meaghan Neary"
        },
        "requester": {
          "reference": "urn:uuid:8ef7779d-f6c5-4ce9-bc66-586f1b8a160b"
        }
      }
    },
    {
      "fullUrl": "urn:uuid:8ef7779d-f6c5-4ce9-bc66-586f1b8a160b",
      "resource": {
        "resourceType": "PractitionerRole",
        "id": "8ef7779d-f6c5-4ce9-bc66-586f1b8a160b",
        "meta": {
          "profile": [
            "http://hl7.eu/fhir/base/StructureDefinition/practitionerRole-eu"
          ]
        },
        "text": {
          "status": "generated",
          "div": "<div xmlns=\"http://www.w3.org/1999/xhtml\">Provider Role Id: 8ef7779d-f6c5-4ce9-bc66-586f1b8a160b</div>"
        },
        "organization": {
          "reference": "urn:uuid:8325cc9b-1768-487c-9142-453fcbe5d0dd"
        }
      }
    },
    {
      "fullUrl": "urn:uuid:8325cc9b-1768-487c-9142-453fcbe5d0dd",
      "resource": {
        "resourceType": "Organization",
        "id": "8325cc9b-1768-487c-9142-453fcbe5d0dd",
        "meta": {
          "profile": [
            "http://hl7.eu/fhir/base/StructureDefinition/organization-eu"
          ]
        },
        "identifier": [
          {
            "assigner": {
              "display": "HL7 Europe"
            },
            "system": "urn:oid:2.16.840.1.113883.2.51.999",
            "value": "1345cd14-2990-4186-9009-fc4c5fad53ff"
          }
        ],
        "address": [
          {
            "line": [
              "Parnell Square West nan"
            ],
            "city": "Dublin",
            "postalCode": "D01",
            "country": "Ireland"
          }
        ],
        "text": {
          "status": "generated",
          "div": "<div xmlns=\"http://www.w3.org/1999/xhtml\">Provider Organization: Rotunda Hospital</div>"
        },
        "name": "Rotunda Hospital"
      }
    },
    {
      "fullUrl": "urn:uuid:f40b422a-e73c-4931-b05c-8163fcf0fa2f",
      "resource": {
        "resourceType": "Specimen",
        "id": "f40b422a-e73c-4931-b05c-8163fcf0fa2f",
        "meta": {
          "profile": [
            "http://hl7.eu/fhir/laboratory/StructureDefinition/Specimen-eu-lab"
          ]
        },
        "collection": {
          "collectedDateTime": "2022-01-31"
        },
        "text": {
          "status": "generated",
          "div": "<div xmlns=\"http://www.w3.org/1999/xhtml\"><table class=\"hl7__eu__lab__report\"><tr><th>Specimen</th><th>Collection Date</th></tr><tr><td>Acellular blood (serum or plasma) specimen</td><td><span class=\"nb\">31-Jan-2022</span></td></tr></table></div>"
        },
        "type": {
          "coding": [
            {
              "code": "122592007",
              "system": "http://snomed.info/sct",
              "display": "Acellular blood (serum or plasma) specimen"
            }
          ]
        }
      }
    },
    {
      "fullUrl": "urn:uuid:655f4abc-cbc9-47af-a09a-5b01675b0677",
      "resource": {
        "resourceType": "Specimen",
        "id": "655f4abc-cbc9-47af-a09a-5b01675b0677",
        "meta": {
          "profile": [
            "http://hl7.eu/fhir/laboratory/StructureDefinition/Specimen-eu-lab"
          ]
        },
        "collection": {
          "collectedDateTime": "2022-01-31"
        },
        "text": {
          "status": "generated",
          "div": "<div xmlns=\"http://www.w3.org/1999/xhtml\"><table class=\"hl7__eu__lab__report\"><tr><th>Specimen</th><th>Collection Date</th></tr><tr><td>Urine specimen</td><td><span class=\"nb\">31-Jan-2022</span></td></tr></table></div>"
        },
        "type": {
          "coding": [
            {
              "code": "122575003",
              "system": "http://snomed.info/sct",
              "display": "Urine specimen"
            }
          ]
        }
      }
    },
    {
      "fullUrl": "urn:uuid:67364395-614b-4e1c-8dd6-74b8b71cd958",
      "resource": {
        "resourceType": "Specimen",
        "id": "67364395-614b-4e1c-8dd6-74b8b71cd958",
        "meta": {
          "profile": [
            "http://hl7.eu/fhir/laboratory/StructureDefinition/Specimen-eu-lab"
          ]
        },
        "collection": {
          "collectedDateTime": "2022-01-31"
        },
        "text": {
          "status": "generated",
          "div": "<div xmlns=\"http://www.w3.org/1999/xhtml\"><table class=\"hl7__eu__lab__report\"><tr><th>Specimen</th><th>Collection Date</th></tr><tr><td>Whole blood specimen (specimen)</td><td><span class=\"nb\">31-Jan-2022</span></td></tr></table></div>"
        },
        "type": {
          "coding": [
            {
              "code": "258580003",
              "system": "http://snomed.info/sct",
              "display": "Whole blood specimen (specimen)"
            }
          ]
        }
      }
    },
    {
      "fullUrl": "urn:uuid:ae827853-7cca-4574-ae46-2b2852a861f1",
      "resource": {
        "resourceType": "Observation",
        "id": "ae827853-7cca-4574-ae46-2b2852a861f1",
        "meta": {
          "profile": [
            "http://hl7.eu/fhir/laboratory/StructureDefinition/Observation-resultslab-eu-lab"
          ]
        },
        "performer": [
          {
            "display": "The Central European Lab"
          }
        ],
        "category": [
          {
            "coding": [
              {
                "system": "http://terminology.hl7.org/CodeSystem/observation-category",
                "code": "laboratory"
              }
            ]
          }
        ],
        "code": {
          "coding": [
            {
              "code": "2345-7",
              "system": "http://loinc.org",
              "display": "Glucose [Mass/volume] in Serum or Plasma"
            }
          ],
          "text": "Glucose [Mass/volume] in Serum or Plasma"
        },
        "valueQuantity": {
          "system": "http://unitsofmeasure.org",
          "value": 86.4,
          "unit": "mg/dL",
          "code": "mg/dL"
        },
        "referenceRange": [
          {
            "low": {
              "value": 70,
              "code": "mg/dL",
              "system": "http://unitsofmeasure.org"
            }
          },
          {
            "high": {
              "value": 99,
              "code": "mg/dL",
              "system": "http://unitsofmeasure.org"
            }
          }
        ],
        "text": {
          "status": "generated",
          "div": "<div xmlns=\"http://www.w3.org/1999/xhtml\"><table class=\"hl7__eu__lab__report\"><tr><th>Test</th><th>31-Jan-2022</th><th>Reference&#xA0;Range</th><th>Unit</th></tr><tr><td>Glucose [Mass/volume] in Serum or Plasma</td><td>86.4</td><td>70 - 99</td><td></td><td>mg/dL</td></tr></table></div>"
        },
        "status": "final",
        "subject": {
          "reference": "urn:uuid:2d7ed524-04e3-41a0-be0c-99ed1dbaa4fa",
          "display": "Meaghan Neary"
        },
        "effectiveDateTime": "2022-01-31T22:11:04Z",
        "specimen": {
          "reference": "urn:uuid:f40b422a-e73c-4931-b05c-8163fcf0fa2f"
        }
      }
    },
    {
      "fullUrl": "urn:uuid:1c01cb97-9437-4d6a-a0bb-a7d9103cf376",
      "resource": {
        "resourceType": "Observation",
        "id": "1c01cb97-9437-4d6a-a0bb-a7d9103cf376",
        "meta": {
          "profile": [
            "http://hl7.eu/fhir/laboratory/StructureDefinition/Observation-resultslab-eu-lab"
          ]
        },
        "performer": [
          {
            "display": "The Central European Lab"
          }
        ],
        "category": [
          {
            "coding": [
              {
                "system": "http://terminology.hl7.org/CodeSystem/observation-category",
                "code": "laboratory"
              }
            ]
          }
        ],
        "code": {
          "coding": [
            {
              "code": "3094-0",
              "system": "http://loinc.org",
              "display": "Urea nitrogen [Mass/volume] in Serum or Plasma"
            }
          ],
          "text": "Urea nitrogen [Mass/volume] in Serum or Plasma"
        },
        "valueQuantity": {
          "system": "http://unitsofmeasure.org",
          "value": 9.3,
          "unit": "mg/dL",
          "code": "mg/dL"
        },
        "referenceRange": [
          {
            "low": {
              "value": 7,
              "code": "mg/dL",
              "system": "http://unitsofmeasure.org"
            }
          },
          {
            "high": {
              "value": 50,
              "code": "mg/dL",
              "system": "http://unitsofmeasure.org"
            }
          }
        ],
        "text": {
          "status": "generated",
          "div": "<div xmlns=\"http://www.w3.org/1999/xhtml\"><table class=\"hl7__eu__lab__report\"><tr><th>Test</th><th>31-Jan-2022</th><th>Reference&#xA0;Range</th><th>Unit</th></tr><tr><td>Urea nitrogen [Mass/volume] in Serum or Plasma</td><td>9.3</td><td>7 - 50</td><td></td><td>mg/dL</td></tr></table></div>"
        },
        "status": "final",
        "subject": {
          "reference": "urn:uuid:2d7ed524-04e3-41a0-be0c-99ed1dbaa4fa",
          "display": "Meaghan Neary"
        },
        "effectiveDateTime": "2022-01-31T22:11:04Z",
        "specimen": {
          "reference": "urn:uuid:f40b422a-e73c-4931-b05c-8163fcf0fa2f"
        }
      }
    },
    {
      "fullUrl": "urn:uuid:c9d7ca19-c0f7-4511-a950-59bdab7496ee",
      "resource": {
        "resourceType": "Observation",
        "id": "c9d7ca19-c0f7-4511-a950-59bdab7496ee",
        "meta": {
          "profile": [
            "http://hl7.eu/fhir/laboratory/StructureDefinition/Observation-resultslab-eu-lab"
          ]
        },
        "performer": [
          {
            "display": "The Central European Lab"
          }
        ],
        "category": [
          {
            "coding": [
              {
                "system": "http://terminology.hl7.org/CodeSystem/observation-category",
                "code": "laboratory"
              }
            ]
          }
        ],
        "code": {
          "coding": [
            {
              "code": "2160-0",
              "system": "http://loinc.org",
              "display": "Creatinine [Mass/volume] in Serum or Plasma"
            }
          ],
          "text": "Creatinine [Mass/volume] in Serum or Plasma"
        },
        "valueQuantity": {
          "system": "http://unitsofmeasure.org",
          "value": 2.1,
          "unit": "mg/dL",
          "code": "mg/dL"
        },
        "referenceRange": [
          {
            "low": {
              "value": 0.6,
              "code": "mg/dL",
              "system": "http://unitsofmeasure.org"
            }
          },
          {
            "high": {
              "value": 1.1,
              "code": "mg/dL",
              "system": "http://unitsofmeasure.org"
            }
          }
        ],
        "interpretation": [
          {
            "coding": [
              {
                "code": "H",
                "system": "http://terminology.hl7.org/CodeSystem/v3-ObservationInterpretation",
                "display": "High"
              }
            ]
          }
        ],
        "text": {
          "status": "generated",
          "div": "<div xmlns=\"http://www.w3.org/1999/xhtml\"><table class=\"hl7__eu__lab__report\"><tr><th>Test</th><th>31-Jan-2022</th><th>Reference&#xA0;Range</th><th>Unit</th></tr><tr><td>Creatinine [Mass/volume] in Serum or Plasma</td><td>2.1</td><td>0.6 - 1.1</td><td>H</td><td>mg/dL</td></tr></table></div>"
        },
        "status": "final",
        "subject": {
          "reference": "urn:uuid:2d7ed524-04e3-41a0-be0c-99ed1dbaa4fa",
          "display": "Meaghan Neary"
        },
        "effectiveDateTime": "2022-01-31T22:11:04Z",
        "specimen": {
          "reference": "urn:uuid:f40b422a-e73c-4931-b05c-8163fcf0fa2f"
        }
      }
    },
    {
      "fullUrl": "urn:uuid:a9b64f87-6b26-485e-86f3-920394fca432",
      "resource": {
        "resourceType": "Observation",
        "id": "a9b64f87-6b26-485e-86f3-920394fca432",
        "meta": {
          "profile": [
            "http://hl7.eu/fhir/laboratory/StructureDefinition/Observation-resultslab-eu-lab"
          ]
        },
        "performer": [
          {
            "display": "The Central European Lab"
          }
        ],
        "category": [
          {
            "coding": [
              {
                "system": "http://terminology.hl7.org/CodeSystem/observation-category",
                "code": "laboratory"
              }
            ]
          }
        ],
        "code": {
          "coding": [
            {
              "code": "17861-6",
              "system": "http://loinc.org",
              "display": "Calcium [Mass/volume] in Serum or Plasma"
            }
          ],
          "text": "Calcium [Mass/volume] in Serum or Plasma"
        },
        "valueQuantity": {
          "system": "http://unitsofmeasure.org",
          "value": 9.2,
          "unit": "mg/dL",
          "code": "mg/dL"
        },
        "referenceRange": [
          {
            "low": {
              "value": 8.6,
              "code": "mg/dL",
              "system": "http://unitsofmeasure.org"
            }
          },
          {
            "high": {
              "value": 10.4,
              "code": "mg/dL",
              "system": "http://unitsofmeasure.org"
            }
          }
        ],
        "text": {
          "status": "generated",
          "div": "<div xmlns=\"http://www.w3.org/1999/xhtml\"><table class=\"hl7__eu__lab__report\"><tr><th>Test</th><th>31-Jan-2022</th><th>Reference&#xA0;Range</th><th>Unit</th></tr><tr><td>Calcium [Mass/volume] in Serum or Plasma</td><td>9.2</td><td>8.6 - 10.4</td><td></td><td>mg/dL</td></tr></table></div>"
        },
        "status": "final",
        "subject": {
          "reference": "urn:uuid:2d7ed524-04e3-41a0-be0c-99ed1dbaa4fa",
          "display": "Meaghan Neary"
        },
        "effectiveDateTime": "2022-01-31T22:11:04Z",
        "specimen": {
          "reference": "urn:uuid:f40b422a-e73c-4931-b05c-8163fcf0fa2f"
        }
      }
    },
    {
      "fullUrl": "urn:uuid:4470a332-a1b7-4e2a-8a72-8d1bdcef3ab5",
      "resource": {
        "resourceType": "Observation",
        "id": "4470a332-a1b7-4e2a-8a72-8d1bdcef3ab5",
        "meta": {
          "profile": [
            "http://hl7.eu/fhir/laboratory/StructureDefinition/Observation-resultslab-eu-lab"
          ]
        },
        "performer": [
          {
            "display": "The Central European Lab"
          }
        ],
        "category": [
          {
            "coding": [
              {
                "system": "http://terminology.hl7.org/CodeSystem/observation-category",
                "code": "laboratory"
              }
            ]
          }
        ],
        "code": {
          "coding": [
            {
              "code": "2951-2",
              "system": "http://loinc.org",
              "display": "Sodium [Moles/volume] in Serum or Plasma"
            }
          ],
          "text": "Sodium [Moles/volume] in Serum or Plasma"
        },
        "valueQuantity": {
          "system": "http://unitsofmeasure.org",
          "value": 141.5,
          "unit": "mmol/L",
          "code": "mmol/L"
        },
        "referenceRange": [
          {
            "low": {
              "value": 135,
              "code": "mmol/L",
              "system": "http://unitsofmeasure.org"
            }
          },
          {
            "high": {
              "value": 145,
              "code": "mmol/L",
              "system": "http://unitsofmeasure.org"
            }
          }
        ],
        "text": {
          "status": "generated",
          "div": "<div xmlns=\"http://www.w3.org/1999/xhtml\"><table class=\"hl7__eu__lab__report\"><tr><th>Test</th><th>31-Jan-2022</th><th>Reference&#xA0;Range</th><th>Unit</th></tr><tr><td>Sodium [Moles/volume] in Serum or Plasma</td><td>141.5</td><td>135 - 145</td><td></td><td>mmol/L</td></tr></table></div>"
        },
        "status": "final",
        "subject": {
          "reference": "urn:uuid:2d7ed524-04e3-41a0-be0c-99ed1dbaa4fa",
          "display": "Meaghan Neary"
        },
        "effectiveDateTime": "2022-01-31T22:11:04Z",
        "specimen": {
          "reference": "urn:uuid:f40b422a-e73c-4931-b05c-8163fcf0fa2f"
        }
      }
    },
    {
      "fullUrl": "urn:uuid:dd87ad96-da68-41ff-a019-7c86d9cac5b6",
      "resource": {
        "resourceType": "Observation",
        "id": "dd87ad96-da68-41ff-a019-7c86d9cac5b6",
        "meta": {
          "profile": [
            "http://hl7.eu/fhir/laboratory/StructureDefinition/Observation-resultslab-eu-lab"
          ]
        },
        "performer": [
          {
            "display": "The Central European Lab"
          }
        ],
        "category": [
          {
            "coding": [
              {
                "system": "http://terminology.hl7.org/CodeSystem/observation-category",
                "code": "laboratory"
              }
            ]
          }
        ],
        "code": {
          "coding": [
            {
              "code": "2823-3",
              "system": "http://loinc.org",
              "display": "Potassium [Moles/volume] in Serum or Plasma"
            }
          ],
          "text": "Potassium [Moles/volume] in Serum or Plasma"
        },
        "valueQuantity": {
          "system": "http://unitsofmeasure.org",
          "value": 3.8,
          "unit": "mmol/L",
          "code": "mmol/L"
        },
        "referenceRange": [
          {
            "low": {
              "value": 3.5,
              "code": "mmol/L",
              "system": "http://unitsofmeasure.org"
            }
          },
          {
            "high": {
              "value": 5.1,
              "code": "mmol/L",
              "system": "http://unitsofmeasure.org"
            }
          }
        ],
        "text": {
          "status": "generated",
          "div": "<div xmlns=\"http://www.w3.org/1999/xhtml\"><table class=\"hl7__eu__lab__report\"><tr><th>Test</th><th>31-Jan-2022</th><th>Reference&#xA0;Range</th><th>Unit</th></tr><tr><td>Potassium [Moles/volume] in Serum or Plasma</td><td>3.8</td><td>3.5 - 5.1</td><td></td><td>mmol/L</td></tr></table></div>"
        },
        "status": "final",
        "subject": {
          "reference": "urn:uuid:2d7ed524-04e3-41a0-be0c-99ed1dbaa4fa",
          "display": "Meaghan Neary"
        },
        "effectiveDateTime": "2022-01-31T22:11:04Z",
        "specimen": {
          "reference": "urn:uuid:f40b422a-e73c-4931-b05c-8163fcf0fa2f"
        }
      }
    },
    {
      "fullUrl": "urn:uuid:105efb13-df0e-45a7-a09e-f8fddf781436",
      "resource": {
        "resourceType": "Observation",
        "id": "105efb13-df0e-45a7-a09e-f8fddf781436",
        "meta": {
          "profile": [
            "http://hl7.eu/fhir/laboratory/StructureDefinition/Observation-resultslab-eu-lab"
          ]
        },
        "performer": [
          {
            "display": "The Central European Lab"
          }
        ],
        "category": [
          {
            "coding": [
              {
                "system": "http://terminology.hl7.org/CodeSystem/observation-category",
                "code": "laboratory"
              }
            ]
          }
        ],
        "code": {
          "coding": [
            {
              "code": "2075-0",
              "system": "http://loinc.org",
              "display": "Chloride [Moles/volume] in Serum or Plasma"
            }
          ],
          "text": "Chloride [Moles/volume] in Serum or Plasma"
        },
        "valueQuantity": {
          "system": "http://unitsofmeasure.org",
          "value": 102.5,
          "unit": "mmol/L",
          "code": "mmol/L"
        },
        "referenceRange": [
          {
            "low": {
              "value": 98,
              "code": "mmol/L",
              "system": "http://unitsofmeasure.org"
            }
          },
          {
            "high": {
              "value": 108,
              "code": "mmol/L",
              "system": "http://unitsofmeasure.org"
            }
          }
        ],
        "text": {
          "status": "generated",
          "div": "<div xmlns=\"http://www.w3.org/1999/xhtml\"><table class=\"hl7__eu__lab__report\"><tr><th>Test</th><th>31-Jan-2022</th><th>Reference&#xA0;Range</th><th>Unit</th></tr><tr><td>Chloride [Moles/volume] in Serum or Plasma</td><td>102.5</td><td>98 - 108</td><td></td><td>mmol/L</td></tr></table></div>"
        },
        "status": "final",
        "subject": {
          "reference": "urn:uuid:2d7ed524-04e3-41a0-be0c-99ed1dbaa4fa",
          "display": "Meaghan Neary"
        },
        "effectiveDateTime": "2022-01-31T22:11:04Z",
        "specimen": {
          "reference": "urn:uuid:f40b422a-e73c-4931-b05c-8163fcf0fa2f"
        }
      }
    },
    {
      "fullUrl": "urn:uuid:30406eb2-4a94-4adb-841a-7e992c2bc151",
      "resource": {
        "resourceType": "Observation",
        "id": "30406eb2-4a94-4adb-841a-7e992c2bc151",
        "meta": {
          "profile": [
            "http://hl7.eu/fhir/laboratory/StructureDefinition/Observation-resultslab-eu-lab"
          ]
        },
        "performer": [
          {
            "display": "The Central European Lab"
          }
        ],
        "category": [
          {
            "coding": [
              {
                "system": "http://terminology.hl7.org/CodeSystem/observation-category",
                "code": "laboratory"
              }
            ]
          }
        ],
        "code": {
          "coding": [
            {
              "code": "2028-9",
              "system": "http://loinc.org",
              "display": "Carbon dioxide, total [Moles/volume] in Serum or Plasma"
            }
          ],
          "text": "Carbon dioxide, total [Moles/volume] in Serum or Plasma"
        },
        "valueQuantity": {
          "system": "http://unitsofmeasure.org",
          "value": 28.8,
          "unit": "mmol/L",
          "code": "mmol/L"
        },
        "referenceRange": [
          {
            "low": {
              "value": 22,
              "code": "mmol/L",
              "system": "http://unitsofmeasure.org"
            }
          },
          {
            "high": {
              "value": 32,
              "code": "mmol/L",
              "system": "http://unitsofmeasure.org"
            }
          }
        ],
        "text": {
          "status": "generated",
          "div": "<div xmlns=\"http://www.w3.org/1999/xhtml\"><table class=\"hl7__eu__lab__report\"><tr><th>Test</th><th>31-Jan-2022</th><th>Reference&#xA0;Range</th><th>Unit</th></tr><tr><td>Carbon dioxide, total [Moles/volume] in Serum or Plasma</td><td>28.8</td><td>22 - 32</td><td></td><td>mmol/L</td></tr></table></div>"
        },
        "status": "final",
        "subject": {
          "reference": "urn:uuid:2d7ed524-04e3-41a0-be0c-99ed1dbaa4fa",
          "display": "Meaghan Neary"
        },
        "effectiveDateTime": "2022-01-31T22:11:04Z",
        "specimen": {
          "reference": "urn:uuid:f40b422a-e73c-4931-b05c-8163fcf0fa2f"
        }
      }
    },
    {
      "fullUrl": "urn:uuid:66582881-dde4-47dd-a69a-9278b6db6b1e",
      "resource": {
        "resourceType": "Observation",
        "id": "66582881-dde4-47dd-a69a-9278b6db6b1e",
        "meta": {
          "profile": [
            "http://hl7.eu/fhir/laboratory/StructureDefinition/Observation-resultslab-eu-lab"
          ]
        },
        "performer": [
          {
            "display": "The Central European Lab"
          }
        ],
        "category": [
          {
            "coding": [
              {
                "system": "http://terminology.hl7.org/CodeSystem/observation-category",
                "code": "laboratory"
              }
            ]
          }
        ],
        "code": {
          "coding": [
            {
              "code": "5767-9",
              "system": "http://loinc.org",
              "display": "Appearance of Urine"
            }
          ],
          "text": "Appearance of Urine"
        },
        "text": {
          "status": "generated",
          "div": "<div xmlns=\"http://www.w3.org/1999/xhtml\"><table class=\"hl7__eu__lab__report\"><tr><th>Test</th><th>31-Jan-2022</th><th>Reference&#xA0;Range</th><th>Unit</th></tr><tr><td>Appearance of Urine</td></tr></table></div>"
        },
        "status": "final",
        "subject": {
          "reference": "urn:uuid:2d7ed524-04e3-41a0-be0c-99ed1dbaa4fa",
          "display": "Meaghan Neary"
        },
        "effectiveDateTime": "2022-01-31T22:11:04Z",
        "specimen": {
          "reference": "urn:uuid:655f4abc-cbc9-47af-a09a-5b01675b0677"
        }
      }
    },
    {
      "fullUrl": "urn:uuid:a461fbbd-2d7b-48c6-9990-5afff1d7fbce",
      "resource": {
        "resourceType": "Observation",
        "id": "a461fbbd-2d7b-48c6-9990-5afff1d7fbce",
        "meta": {
          "profile": [
            "http://hl7.eu/fhir/laboratory/StructureDefinition/Observation-resultslab-eu-lab"
          ]
        },
        "performer": [
          {
            "display": "The Central European Lab"
          }
        ],
        "category": [
          {
            "coding": [
              {
                "system": "http://terminology.hl7.org/CodeSystem/observation-category",
                "code": "laboratory"
              }
            ]
          }
        ],
        "code": {
          "coding": [
            {
              "code": "34533-0",
              "system": "http://loinc.org",
              "display": "Odor of Urine"
            }
          ],
          "text": "Odor of Urine"
        },
        "text": {
          "status": "generated",
          "div": "<div xmlns=\"http://www.w3.org/1999/xhtml\"><table class=\"hl7__eu__lab__report\"><tr><th>Test</th><th>31-Jan-2022</th><th>Reference&#xA0;Range</th><th>Unit</th></tr><tr><td>Odor of Urine</td></tr></table></div>"
        },
        "status": "final",
        "subject": {
          "reference": "urn:uuid:2d7ed524-04e3-41a0-be0c-99ed1dbaa4fa",
          "display": "Meaghan Neary"
        },
        "effectiveDateTime": "2022-01-31T22:11:04Z",
        "specimen": {
          "reference": "urn:uuid:655f4abc-cbc9-47af-a09a-5b01675b0677"
        }
      }
    },
    {
      "fullUrl": "urn:uuid:55b3aba6-3834-4a56-8764-5f9e0035b021",
      "resource": {
        "resourceType": "Observation",
        "id": "55b3aba6-3834-4a56-8764-5f9e0035b021",
        "meta": {
          "profile": [
            "http://hl7.eu/fhir/laboratory/StructureDefinition/Observation-resultslab-eu-lab"
          ]
        },
        "performer": [
          {
            "display": "The Central European Lab"
          }
        ],
        "category": [
          {
            "coding": [
              {
                "system": "http://terminology.hl7.org/CodeSystem/observation-category",
                "code": "laboratory"
              }
            ]
          }
        ],
        "code": {
          "coding": [
            {
              "code": "32167-9",
              "system": "http://loinc.org",
              "display": "Clarity of Urine"
            }
          ],
          "text": "Clarity of Urine"
        },
        "text": {
          "status": "generated",
          "div": "<div xmlns=\"http://www.w3.org/1999/xhtml\"><table class=\"hl7__eu__lab__report\"><tr><th>Test</th><th>31-Jan-2022</th><th>Reference&#xA0;Range</th><th>Unit</th></tr><tr><td>Clarity of Urine</td></tr></table></div>"
        },
        "status": "final",
        "subject": {
          "reference": "urn:uuid:2d7ed524-04e3-41a0-be0c-99ed1dbaa4fa",
          "display": "Meaghan Neary"
        },
        "effectiveDateTime": "2022-01-31T22:11:04Z",
        "specimen": {
          "reference": "urn:uuid:655f4abc-cbc9-47af-a09a-5b01675b0677"
        }
      }
    },
    {
      "fullUrl": "urn:uuid:3c6ef4b2-4f21-4d59-9795-442cf143e82f",
      "resource": {
        "resourceType": "Observation",
        "id": "3c6ef4b2-4f21-4d59-9795-442cf143e82f",
        "meta": {
          "profile": [
            "http://hl7.eu/fhir/laboratory/StructureDefinition/Observation-resultslab-eu-lab"
          ]
        },
        "performer": [
          {
            "display": "The Central European Lab"
          }
        ],
        "category": [
          {
            "coding": [
              {
                "system": "http://terminology.hl7.org/CodeSystem/observation-category",
                "code": "laboratory"
              }
            ]
          }
        ],
        "code": {
          "coding": [
            {
              "code": "5778-6",
              "system": "http://loinc.org",
              "display": "Color of Urine"
            }
          ],
          "text": "Color of Urine"
        },
        "text": {
          "status": "generated",
          "div": "<div xmlns=\"http://www.w3.org/1999/xhtml\"><table class=\"hl7__eu__lab__report\"><tr><th>Test</th><th>31-Jan-2022</th><th>Reference&#xA0;Range</th><th>Unit</th></tr><tr><td>Color of Urine</td></tr></table></div>"
        },
        "status": "final",
        "subject": {
          "reference": "urn:uuid:2d7ed524-04e3-41a0-be0c-99ed1dbaa4fa",
          "display": "Meaghan Neary"
        },
        "effectiveDateTime": "2022-01-31T22:11:04Z",
        "specimen": {
          "reference": "urn:uuid:655f4abc-cbc9-47af-a09a-5b01675b0677"
        }
      }
    },
    {
      "fullUrl": "urn:uuid:08130f82-7356-456e-aae7-5c93451c4f89",
      "resource": {
        "resourceType": "Observation",
        "id": "08130f82-7356-456e-aae7-5c93451c4f89",
        "meta": {
          "profile": [
            "http://hl7.eu/fhir/laboratory/StructureDefinition/Observation-resultslab-eu-lab"
          ]
        },
        "performer": [
          {
            "display": "The Central European Lab"
          }
        ],
        "category": [
          {
            "coding": [
              {
                "system": "http://terminology.hl7.org/CodeSystem/observation-category",
                "code": "laboratory"
              }
            ]
          }
        ],
        "code": {
          "coding": [
            {
              "code": "5792-7",
              "system": "http://loinc.org",
              "display": "Glucose [Mass/volume] in Urine by Test strip"
            }
          ],
          "text": "Glucose [Mass/volume] in Urine by Test strip"
        },
        "valueQuantity": {
          "system": "http://unitsofmeasure.org",
          "value": 1.3,
          "unit": "mg/dL",
          "code": "mg/dL"
        },
        "referenceRange": [
          {
            "low": {
              "value": 0.8,
              "code": "mg/dL",
              "system": "http://unitsofmeasure.org"
            }
          },
          {
            "high": {
              "value": 0,
              "code": "mg/dL",
              "system": "http://unitsofmeasure.org"
            }
          }
        ],
        "interpretation": [
          {
            "coding": [
              {
                "code": "H",
                "system": "http://terminology.hl7.org/CodeSystem/v3-ObservationInterpretation",
                "display": "High"
              }
            ]
          }
        ],
        "text": {
          "status": "generated",
          "div": "<div xmlns=\"http://www.w3.org/1999/xhtml\"><table class=\"hl7__eu__lab__report\"><tr><th>Test</th><th>31-Jan-2022</th><th>Reference&#xA0;Range</th><th>Unit</th></tr><tr><td>Glucose [Mass/volume] in Urine by Test strip</td><td>1.3</td><td>0.8 - 0</td><td>H</td><td>mg/dL</td></tr></table></div>"
        },
        "status": "final",
        "subject": {
          "reference": "urn:uuid:2d7ed524-04e3-41a0-be0c-99ed1dbaa4fa",
          "display": "Meaghan Neary"
        },
        "effectiveDateTime": "2022-01-31T22:11:04Z",
        "specimen": {
          "reference": "urn:uuid:655f4abc-cbc9-47af-a09a-5b01675b0677"
        }
      }
    },
    {
      "fullUrl": "urn:uuid:3592a913-1510-4867-88c9-c7affb5f4093",
      "resource": {
        "resourceType": "Observation",
        "id": "3592a913-1510-4867-88c9-c7affb5f4093",
        "meta": {
          "profile": [
            "http://hl7.eu/fhir/laboratory/StructureDefinition/Observation-resultslab-eu-lab"
          ]
        },
        "performer": [
          {
            "display": "The Central European Lab"
          }
        ],
        "category": [
          {
            "coding": [
              {
                "system": "http://terminology.hl7.org/CodeSystem/observation-category",
                "code": "laboratory"
              }
            ]
          }
        ],
        "code": {
          "coding": [
            {
              "code": "25428-4",
              "system": "http://loinc.org",
              "display": "Glucose [Presence] in Urine by Test strip"
            }
          ],
          "text": "Glucose [Presence] in Urine by Test strip"
        },
        "text": {
          "status": "generated",
          "div": "<div xmlns=\"http://www.w3.org/1999/xhtml\"><table class=\"hl7__eu__lab__report\"><tr><th>Test</th><th>31-Jan-2022</th><th>Reference&#xA0;Range</th><th>Unit</th></tr><tr><td>Glucose [Presence] in Urine by Test strip</td></tr></table></div>"
        },
        "status": "final",
        "subject": {
          "reference": "urn:uuid:2d7ed524-04e3-41a0-be0c-99ed1dbaa4fa",
          "display": "Meaghan Neary"
        },
        "effectiveDateTime": "2022-01-31T22:11:04Z",
        "specimen": {
          "reference": "urn:uuid:655f4abc-cbc9-47af-a09a-5b01675b0677"
        }
      }
    },
    {
      "fullUrl": "urn:uuid:5a497a19-6a06-4390-ae5f-6128d87b7123",
      "resource": {
        "resourceType": "Observation",
        "id": "5a497a19-6a06-4390-ae5f-6128d87b7123",
        "meta": {
          "profile": [
            "http://hl7.eu/fhir/laboratory/StructureDefinition/Observation-resultslab-eu-lab"
          ]
        },
        "performer": [
          {
            "display": "The Central European Lab"
          }
        ],
        "category": [
          {
            "coding": [
              {
                "system": "http://terminology.hl7.org/CodeSystem/observation-category",
                "code": "laboratory"
              }
            ]
          }
        ],
        "code": {
          "coding": [
            {
              "code": "20505-4",
              "system": "http://loinc.org",
              "display": "Bilirubin.total [Mass/volume] in Urine by Test strip"
            }
          ],
          "text": "Bilirubin.total [Mass/volume] in Urine by Test strip"
        },
        "valueQuantity": {
          "system": "http://unitsofmeasure.org",
          "value": 0.9,
          "unit": "mg/dL",
          "code": "mg/dL"
        },
        "referenceRange": [
          {
            "low": {
              "value": 0,
              "code": "mg/dL",
              "system": "http://unitsofmeasure.org"
            }
          },
          {
            "high": {
              "value": 1,
              "code": "mg/dL",
              "system": "http://unitsofmeasure.org"
            }
          }
        ],
        "text": {
          "status": "generated",
          "div": "<div xmlns=\"http://www.w3.org/1999/xhtml\"><table class=\"hl7__eu__lab__report\"><tr><th>Test</th><th>31-Jan-2022</th><th>Reference&#xA0;Range</th><th>Unit</th></tr><tr><td>Bilirubin.total [Mass/volume] in Urine by Test strip</td><td>0.9</td><td>0 - 1</td><td></td><td>mg/dL</td></tr></table></div>"
        },
        "status": "final",
        "subject": {
          "reference": "urn:uuid:2d7ed524-04e3-41a0-be0c-99ed1dbaa4fa",
          "display": "Meaghan Neary"
        },
        "effectiveDateTime": "2022-01-31T22:11:04Z",
        "specimen": {
          "reference": "urn:uuid:655f4abc-cbc9-47af-a09a-5b01675b0677"
        }
      }
    },
    {
      "fullUrl": "urn:uuid:eecf2788-9bf9-4f00-9aa0-94fffbb6b9ab",
      "resource": {
        "resourceType": "Observation",
        "id": "eecf2788-9bf9-4f00-9aa0-94fffbb6b9ab",
        "meta": {
          "profile": [
            "http://hl7.eu/fhir/laboratory/StructureDefinition/Observation-resultslab-eu-lab"
          ]
        },
        "performer": [
          {
            "display": "The Central European Lab"
          }
        ],
        "category": [
          {
            "coding": [
              {
                "system": "http://terminology.hl7.org/CodeSystem/observation-category",
                "code": "laboratory"
              }
            ]
          }
        ],
        "code": {
          "coding": [
            {
              "code": "5770-3",
              "system": "http://loinc.org",
              "display": "Bilirubin.total [Presence] in Urine by Test strip"
            }
          ],
          "text": "Bilirubin.total [Presence] in Urine by Test strip"
        },
        "text": {
          "status": "generated",
          "div": "<div xmlns=\"http://www.w3.org/1999/xhtml\"><table class=\"hl7__eu__lab__report\"><tr><th>Test</th><th>31-Jan-2022</th><th>Reference&#xA0;Range</th><th>Unit</th></tr><tr><td>Bilirubin.total [Presence] in Urine by Test strip</td></tr></table></div>"
        },
        "status": "final",
        "subject": {
          "reference": "urn:uuid:2d7ed524-04e3-41a0-be0c-99ed1dbaa4fa",
          "display": "Meaghan Neary"
        },
        "effectiveDateTime": "2022-01-31T22:11:04Z",
        "specimen": {
          "reference": "urn:uuid:655f4abc-cbc9-47af-a09a-5b01675b0677"
        }
      }
    },
    {
      "fullUrl": "urn:uuid:265ad263-3654-4489-b90e-0d7f12c9dbc0",
      "resource": {
        "resourceType": "Observation",
        "id": "265ad263-3654-4489-b90e-0d7f12c9dbc0",
        "meta": {
          "profile": [
            "http://hl7.eu/fhir/laboratory/StructureDefinition/Observation-resultslab-eu-lab"
          ]
        },
        "performer": [
          {
            "display": "The Central European Lab"
          }
        ],
        "category": [
          {
            "coding": [
              {
                "system": "http://terminology.hl7.org/CodeSystem/observation-category",
                "code": "laboratory"
              }
            ]
          }
        ],
        "code": {
          "coding": [
            {
              "code": "5797-6",
              "system": "http://loinc.org",
              "display": "Ketones [Mass/volume] in Urine by Test strip"
            }
          ],
          "text": "Ketones [Mass/volume] in Urine by Test strip"
        },
        "valueQuantity": {
          "system": "http://unitsofmeasure.org",
          "value": 10.8,
          "unit": "mg/dL",
          "code": "mg/dL"
        },
        "referenceRange": [
          {
            "low": {
              "value": 0,
              "code": "mg/dL",
              "system": "http://unitsofmeasure.org"
            }
          },
          {
            "high": {
              "value": 4,
              "code": "mg/dL",
              "system": "http://unitsofmeasure.org"
            }
          }
        ],
        "interpretation": [
          {
            "coding": [
              {
                "code": "H",
                "system": "http://terminology.hl7.org/CodeSystem/v3-ObservationInterpretation",
                "display": "High"
              }
            ]
          }
        ],
        "text": {
          "status": "generated",
          "div": "<div xmlns=\"http://www.w3.org/1999/xhtml\"><table class=\"hl7__eu__lab__report\"><tr><th>Test</th><th>31-Jan-2022</th><th>Reference&#xA0;Range</th><th>Unit</th></tr><tr><td>Ketones [Mass/volume] in Urine by Test strip</td><td>10.8</td><td>0 - 4</td><td>H</td><td>mg/dL</td></tr></table></div>"
        },
        "status": "final",
        "subject": {
          "reference": "urn:uuid:2d7ed524-04e3-41a0-be0c-99ed1dbaa4fa",
          "display": "Meaghan Neary"
        },
        "effectiveDateTime": "2022-01-31T22:11:04Z",
        "specimen": {
          "reference": "urn:uuid:655f4abc-cbc9-47af-a09a-5b01675b0677"
        }
      }
    },
    {
      "fullUrl": "urn:uuid:1a718b37-b62e-4afd-89cb-3deedd26eee0",
      "resource": {
        "resourceType": "Observation",
        "id": "1a718b37-b62e-4afd-89cb-3deedd26eee0",
        "meta": {
          "profile": [
            "http://hl7.eu/fhir/laboratory/StructureDefinition/Observation-resultslab-eu-lab"
          ]
        },
        "performer": [
          {
            "display": "The Central European Lab"
          }
        ],
        "category": [
          {
            "coding": [
              {
                "system": "http://terminology.hl7.org/CodeSystem/observation-category",
                "code": "laboratory"
              }
            ]
          }
        ],
        "code": {
          "coding": [
            {
              "code": "2514-8",
              "system": "http://loinc.org",
              "display": "Ketones [Presence] in Urine by Test strip"
            }
          ],
          "text": "Ketones [Presence] in Urine by Test strip"
        },
        "text": {
          "status": "generated",
          "div": "<div xmlns=\"http://www.w3.org/1999/xhtml\"><table class=\"hl7__eu__lab__report\"><tr><th>Test</th><th>31-Jan-2022</th><th>Reference&#xA0;Range</th><th>Unit</th></tr><tr><td>Ketones [Presence] in Urine by Test strip</td></tr></table></div>"
        },
        "status": "final",
        "subject": {
          "reference": "urn:uuid:2d7ed524-04e3-41a0-be0c-99ed1dbaa4fa",
          "display": "Meaghan Neary"
        },
        "effectiveDateTime": "2022-01-31T22:11:04Z",
        "specimen": {
          "reference": "urn:uuid:655f4abc-cbc9-47af-a09a-5b01675b0677"
        }
      }
    },
    {
      "fullUrl": "urn:uuid:0191bb07-791f-49b1-b751-9a55b44cb2b1",
      "resource": {
        "resourceType": "Observation",
        "id": "0191bb07-791f-49b1-b751-9a55b44cb2b1",
        "meta": {
          "profile": [
            "http://hl7.eu/fhir/laboratory/StructureDefinition/Observation-resultslab-eu-lab"
          ]
        },
        "performer": [
          {
            "display": "The Central European Lab"
          }
        ],
        "category": [
          {
            "coding": [
              {
                "system": "http://terminology.hl7.org/CodeSystem/observation-category",
                "code": "laboratory"
              }
            ]
          }
        ],
        "code": {
          "coding": [
            {
              "code": "5811-5",
              "system": "http://loinc.org",
              "display": "Specific gravity of Urine by Test strip"
            }
          ],
          "text": "Specific gravity of Urine by Test strip"
        },
        "valueQuantity": {
          "system": "http://unitsofmeasure.org",
          "value": 1,
          "unit": "{nominal}",
          "code": "{nominal}"
        },
        "referenceRange": [
          {
            "low": {
              "value": 1.005,
              "code": "g/mL",
              "system": "http://unitsofmeasure.org"
            }
          },
          {
            "high": {
              "value": 1.03,
              "code": "g/mL",
              "system": "http://unitsofmeasure.org"
            }
          }
        ],
        "interpretation": [
          {
            "coding": [
              {
                "code": "L",
                "system": "http://terminology.hl7.org/CodeSystem/v3-ObservationInterpretation",
                "display": "Low"
              }
            ]
          }
        ],
        "text": {
          "status": "generated",
          "div": "<div xmlns=\"http://www.w3.org/1999/xhtml\"><table class=\"hl7__eu__lab__report\"><tr><th>Test</th><th>31-Jan-2022</th><th>Reference&#xA0;Range</th><th>Unit</th></tr><tr><td>Specific gravity of Urine by Test strip</td><td>1.0</td><td>1.005 - 1.03</td><td>L</td><td>{nominal}</td></tr></table></div>"
        },
        "status": "final",
        "subject": {
          "reference": "urn:uuid:2d7ed524-04e3-41a0-be0c-99ed1dbaa4fa",
          "display": "Meaghan Neary"
        },
        "effectiveDateTime": "2022-01-31T22:11:04Z",
        "specimen": {
          "reference": "urn:uuid:655f4abc-cbc9-47af-a09a-5b01675b0677"
        }
      }
    },
    {
      "fullUrl": "urn:uuid:23280913-19c7-4dcf-870f-71fe21723a03",
      "resource": {
        "resourceType": "Observation",
        "id": "23280913-19c7-4dcf-870f-71fe21723a03",
        "meta": {
          "profile": [
            "http://hl7.eu/fhir/laboratory/StructureDefinition/Observation-resultslab-eu-lab"
          ]
        },
        "performer": [
          {
            "display": "The Central European Lab"
          }
        ],
        "category": [
          {
            "coding": [
              {
                "system": "http://terminology.hl7.org/CodeSystem/observation-category",
                "code": "laboratory"
              }
            ]
          }
        ],
        "code": {
          "coding": [
            {
              "code": "5803-2",
              "system": "http://loinc.org",
              "display": "pH of Urine by Test strip"
            }
          ],
          "text": "pH of Urine by Test strip"
        },
        "valueQuantity": {
          "system": "http://unitsofmeasure.org",
          "value": 5,
          "unit": "pH",
          "code": "pH"
        },
        "referenceRange": [
          {
            "low": {
              "value": 4.6,
              "code": "pH",
              "system": "http://unitsofmeasure.org"
            }
          },
          {
            "high": {
              "value": 7,
              "code": "pH",
              "system": "http://unitsofmeasure.org"
            }
          }
        ],
        "text": {
          "status": "generated",
          "div": "<div xmlns=\"http://www.w3.org/1999/xhtml\"><table class=\"hl7__eu__lab__report\"><tr><th>Test</th><th>31-Jan-2022</th><th>Reference&#xA0;Range</th><th>Unit</th></tr><tr><td>pH of Urine by Test strip</td><td>5.0</td><td>4.6 - 7</td><td></td><td>pH</td></tr></table></div>"
        },
        "status": "final",
        "subject": {
          "reference": "urn:uuid:2d7ed524-04e3-41a0-be0c-99ed1dbaa4fa",
          "display": "Meaghan Neary"
        },
        "effectiveDateTime": "2022-01-31T22:11:04Z",
        "specimen": {
          "reference": "urn:uuid:655f4abc-cbc9-47af-a09a-5b01675b0677"
        }
      }
    },
    {
      "fullUrl": "urn:uuid:43cf7168-b815-4fda-a146-6aff5babc9f0",
      "resource": {
        "resourceType": "Observation",
        "id": "43cf7168-b815-4fda-a146-6aff5babc9f0",
        "meta": {
          "profile": [
            "http://hl7.eu/fhir/laboratory/StructureDefinition/Observation-resultslab-eu-lab"
          ]
        },
        "performer": [
          {
            "display": "The Central European Lab"
          }
        ],
        "category": [
          {
            "coding": [
              {
                "system": "http://terminology.hl7.org/CodeSystem/observation-category",
                "code": "laboratory"
              }
            ]
          }
        ],
        "code": {
          "coding": [
            {
              "code": "5804-0",
              "system": "http://loinc.org",
              "display": "Protein [Mass/volume] in Urine by Test strip"
            }
          ],
          "text": "Protein [Mass/volume] in Urine by Test strip"
        },
        "valueQuantity": {
          "system": "http://unitsofmeasure.org",
          "value": 256.7,
          "unit": "mg/dL",
          "code": "mg/dL"
        },
        "referenceRange": [
          {
            "low": {
              "value": 0,
              "code": "mg/dL",
              "system": "http://unitsofmeasure.org"
            }
          },
          {
            "high": {
              "value": 14,
              "code": "mg/dL",
              "system": "http://unitsofmeasure.org"
            }
          }
        ],
        "interpretation": [
          {
            "coding": [
              {
                "code": "H",
                "system": "http://terminology.hl7.org/CodeSystem/v3-ObservationInterpretation",
                "display": "High"
              }
            ]
          }
        ],
        "text": {
          "status": "generated",
          "div": "<div xmlns=\"http://www.w3.org/1999/xhtml\"><table class=\"hl7__eu__lab__report\"><tr><th>Test</th><th>31-Jan-2022</th><th>Reference&#xA0;Range</th><th>Unit</th></tr><tr><td>Protein [Mass/volume] in Urine by Test strip</td><td>256.7</td><td>0 - 14</td><td>H</td><td>mg/dL</td></tr></table></div>"
        },
        "status": "final",
        "subject": {
          "reference": "urn:uuid:2d7ed524-04e3-41a0-be0c-99ed1dbaa4fa",
          "display": "Meaghan Neary"
        },
        "effectiveDateTime": "2022-01-31T22:11:04Z",
        "specimen": {
          "reference": "urn:uuid:655f4abc-cbc9-47af-a09a-5b01675b0677"
        }
      }
    },
    {
      "fullUrl": "urn:uuid:e99d01df-63d8-4be1-9515-ae33254094ce",
      "resource": {
        "resourceType": "Observation",
        "id": "e99d01df-63d8-4be1-9515-ae33254094ce",
        "meta": {
          "profile": [
            "http://hl7.eu/fhir/laboratory/StructureDefinition/Observation-resultslab-eu-lab"
          ]
        },
        "performer": [
          {
            "display": "The Central European Lab"
          }
        ],
        "category": [
          {
            "coding": [
              {
                "system": "http://terminology.hl7.org/CodeSystem/observation-category",
                "code": "laboratory"
              }
            ]
          }
        ],
        "code": {
          "coding": [
            {
              "code": "20454-5",
              "system": "http://loinc.org",
              "display": "Protein [Presence] in Urine by Test strip"
            }
          ],
          "text": "Protein [Presence] in Urine by Test strip"
        },
        "text": {
          "status": "generated",
          "div": "<div xmlns=\"http://www.w3.org/1999/xhtml\"><table class=\"hl7__eu__lab__report\"><tr><th>Test</th><th>31-Jan-2022</th><th>Reference&#xA0;Range</th><th>Unit</th></tr><tr><td>Protein [Presence] in Urine by Test strip</td></tr></table></div>"
        },
        "status": "final",
        "subject": {
          "reference": "urn:uuid:2d7ed524-04e3-41a0-be0c-99ed1dbaa4fa",
          "display": "Meaghan Neary"
        },
        "effectiveDateTime": "2022-01-31T22:11:04Z",
        "specimen": {
          "reference": "urn:uuid:655f4abc-cbc9-47af-a09a-5b01675b0677"
        }
      }
    },
    {
      "fullUrl": "urn:uuid:a393f50e-e910-436e-8baf-685cc80f5655",
      "resource": {
        "resourceType": "Observation",
        "id": "a393f50e-e910-436e-8baf-685cc80f5655",
        "meta": {
          "profile": [
            "http://hl7.eu/fhir/laboratory/StructureDefinition/Observation-resultslab-eu-lab"
          ]
        },
        "performer": [
          {
            "display": "The Central European Lab"
          }
        ],
        "category": [
          {
            "coding": [
              {
                "system": "http://terminology.hl7.org/CodeSystem/observation-category",
                "code": "laboratory"
              }
            ]
          }
        ],
        "code": {
          "coding": [
            {
              "code": "5802-4",
              "system": "http://loinc.org",
              "display": "Nitrite [Presence] in Urine by Test strip"
            }
          ],
          "text": "Nitrite [Presence] in Urine by Test strip"
        },
        "text": {
          "status": "generated",
          "div": "<div xmlns=\"http://www.w3.org/1999/xhtml\"><table class=\"hl7__eu__lab__report\"><tr><th>Test</th><th>31-Jan-2022</th><th>Reference&#xA0;Range</th><th>Unit</th></tr><tr><td>Nitrite [Presence] in Urine by Test strip</td></tr></table></div>"
        },
        "status": "final",
        "subject": {
          "reference": "urn:uuid:2d7ed524-04e3-41a0-be0c-99ed1dbaa4fa",
          "display": "Meaghan Neary"
        },
        "effectiveDateTime": "2022-01-31T22:11:04Z",
        "specimen": {
          "reference": "urn:uuid:655f4abc-cbc9-47af-a09a-5b01675b0677"
        }
      }
    },
    {
      "fullUrl": "urn:uuid:6de622a1-219e-4b7f-83d8-e82ddee09cbd",
      "resource": {
        "resourceType": "Observation",
        "id": "6de622a1-219e-4b7f-83d8-e82ddee09cbd",
        "meta": {
          "profile": [
            "http://hl7.eu/fhir/laboratory/StructureDefinition/Observation-resultslab-eu-lab"
          ]
        },
        "performer": [
          {
            "display": "The Central European Lab"
          }
        ],
        "category": [
          {
            "coding": [
              {
                "system": "http://terminology.hl7.org/CodeSystem/observation-category",
                "code": "laboratory"
              }
            ]
          }
        ],
        "code": {
          "coding": [
            {
              "code": "5794-3",
              "system": "http://loinc.org",
              "display": "Hemoglobin [Presence] in Urine by Test strip"
            }
          ],
          "text": "Hemoglobin [Presence] in Urine by Test strip"
        },
        "text": {
          "status": "generated",
          "div": "<div xmlns=\"http://www.w3.org/1999/xhtml\"><table class=\"hl7__eu__lab__report\"><tr><th>Test</th><th>31-Jan-2022</th><th>Reference&#xA0;Range</th><th>Unit</th></tr><tr><td>Hemoglobin [Presence] in Urine by Test strip</td></tr></table></div>"
        },
        "status": "final",
        "subject": {
          "reference": "urn:uuid:2d7ed524-04e3-41a0-be0c-99ed1dbaa4fa",
          "display": "Meaghan Neary"
        },
        "effectiveDateTime": "2022-01-31T22:11:04Z",
        "specimen": {
          "reference": "urn:uuid:655f4abc-cbc9-47af-a09a-5b01675b0677"
        }
      }
    },
    {
      "fullUrl": "urn:uuid:319c5aa7-ce21-4926-9f9b-75c203d3b806",
      "resource": {
        "resourceType": "Observation",
        "id": "319c5aa7-ce21-4926-9f9b-75c203d3b806",
        "meta": {
          "profile": [
            "http://hl7.eu/fhir/laboratory/StructureDefinition/Observation-resultslab-eu-lab"
          ]
        },
        "performer": [
          {
            "display": "The Central European Lab"
          }
        ],
        "category": [
          {
            "coding": [
              {
                "system": "http://terminology.hl7.org/CodeSystem/observation-category",
                "code": "laboratory"
              }
            ]
          }
        ],
        "code": {
          "coding": [
            {
              "code": "5799-2",
              "system": "http://loinc.org",
              "display": "Leukocyte esterase [Presence] in Urine by Test strip"
            }
          ],
          "text": "Leukocyte esterase [Presence] in Urine by Test strip"
        },
        "text": {
          "status": "generated",
          "div": "<div xmlns=\"http://www.w3.org/1999/xhtml\"><table class=\"hl7__eu__lab__report\"><tr><th>Test</th><th>31-Jan-2022</th><th>Reference&#xA0;Range</th><th>Unit</th></tr><tr><td>Leukocyte esterase [Presence] in Urine by Test strip</td></tr></table></div>"
        },
        "status": "final",
        "subject": {
          "reference": "urn:uuid:2d7ed524-04e3-41a0-be0c-99ed1dbaa4fa",
          "display": "Meaghan Neary"
        },
        "effectiveDateTime": "2022-01-31T22:11:04Z",
        "specimen": {
          "reference": "urn:uuid:655f4abc-cbc9-47af-a09a-5b01675b0677"
        }
      }
    },
    {
      "fullUrl": "urn:uuid:86c1f153-8708-497d-8b20-86fab22f62db",
      "resource": {
        "resourceType": "Observation",
        "id": "86c1f153-8708-497d-8b20-86fab22f62db",
        "meta": {
          "profile": [
            "http://hl7.eu/fhir/laboratory/StructureDefinition/Observation-resultslab-eu-lab"
          ]
        },
        "performer": [
          {
            "display": "The Central European Lab"
          }
        ],
        "category": [
          {
            "coding": [
              {
                "system": "http://terminology.hl7.org/CodeSystem/observation-category",
                "code": "laboratory"
              }
            ]
          }
        ],
        "code": {
          "coding": [
            {
              "code": "4548-4",
              "system": "http://loinc.org",
              "display": "Hemoglobin A1c/Hemoglobin.total in Blood"
            }
          ],
          "text": "Hemoglobin A1c/Hemoglobin.total in Blood"
        },
        "valueQuantity": {
          "system": "http://unitsofmeasure.org",
          "value": 3,
          "unit": "%",
          "code": "%"
        },
        "referenceRange": [
          {
            "low": {
              "value": 4,
              "code": "%",
              "system": "http://unitsofmeasure.org"
            }
          },
          {
            "high": {
              "value": 6.4,
              "code": "%",
              "system": "http://unitsofmeasure.org"
            }
          }
        ],
        "interpretation": [
          {
            "coding": [
              {
                "code": "L",
                "system": "http://terminology.hl7.org/CodeSystem/v3-ObservationInterpretation",
                "display": "Low"
              }
            ]
          }
        ],
        "text": {
          "status": "generated",
          "div": "<div xmlns=\"http://www.w3.org/1999/xhtml\"><table class=\"hl7__eu__lab__report\"><tr><th>Test</th><th>31-Jan-2022</th><th>Reference&#xA0;Range</th><th>Unit</th></tr><tr><td>Hemoglobin A1c/Hemoglobin.total in Blood</td><td>3.0</td><td>4 - 6.4</td><td>L</td><td>%</td></tr></table></div>"
        },
        "status": "final",
        "subject": {
          "reference": "urn:uuid:2d7ed524-04e3-41a0-be0c-99ed1dbaa4fa",
          "display": "Meaghan Neary"
        },
        "effectiveDateTime": "2022-01-31T22:11:04Z",
        "specimen": {
          "reference": "urn:uuid:67364395-614b-4e1c-8dd6-74b8b71cd958"
        }
      }
    },
    {
      "fullUrl": "urn:uuid:39e1edd6-85b4-40ed-8762-59e7d3e33421",
      "resource": {
        "resourceType": "Observation",
        "id": "39e1edd6-85b4-40ed-8762-59e7d3e33421",
        "meta": {
          "profile": [
            "http://hl7.eu/fhir/laboratory/StructureDefinition/Observation-resultslab-eu-lab"
          ]
        },
        "performer": [
          {
            "display": "The Central European Lab"
          }
        ],
        "category": [
          {
            "coding": [
              {
                "system": "http://terminology.hl7.org/CodeSystem/observation-category",
                "code": "laboratory"
              }
            ]
          }
        ],
        "code": {
          "coding": [
            {
              "code": "2339-0",
              "system": "http://loinc.org",
              "display": "Glucose [Mass/volume] in Blood"
            }
          ],
          "text": "Glucose [Mass/volume] in Blood"
        },
        "valueQuantity": {
          "system": "http://unitsofmeasure.org",
          "value": 86.4,
          "unit": "mg/dL",
          "code": "mg/dL"
        },
        "referenceRange": [
          {
            "low": {
              "value": 70,
              "code": "mg/dL",
              "system": "http://unitsofmeasure.org"
            }
          },
          {
            "high": {
              "value": 100,
              "code": "mg/dL",
              "system": "http://unitsofmeasure.org"
            }
          }
        ],
        "text": {
          "status": "generated",
          "div": "<div xmlns=\"http://www.w3.org/1999/xhtml\"><table class=\"hl7__eu__lab__report\"><tr><th>Test</th><th>31-Jan-2022</th><th>Reference&#xA0;Range</th><th>Unit</th></tr><tr><td>Glucose [Mass/volume] in Blood</td><td>86.4</td><td>70 - 100</td><td></td><td>mg/dL</td></tr></table></div>"
        },
        "status": "final",
        "subject": {
          "reference": "urn:uuid:2d7ed524-04e3-41a0-be0c-99ed1dbaa4fa",
          "display": "Meaghan Neary"
        },
        "effectiveDateTime": "2022-01-31T22:11:04Z",
        "specimen": {
          "reference": "urn:uuid:67364395-614b-4e1c-8dd6-74b8b71cd958"
        }
      }
    },
    {
      "fullUrl": "urn:uuid:b2f940d4-3e91-42e0-8842-bc2f52574cdd",
      "resource": {
        "resourceType": "Observation",
        "id": "b2f940d4-3e91-42e0-8842-bc2f52574cdd",
        "meta": {
          "profile": [
            "http://hl7.eu/fhir/laboratory/StructureDefinition/Observation-resultslab-eu-lab"
          ]
        },
        "performer": [
          {
            "display": "The Central European Lab"
          }
        ],
        "category": [
          {
            "coding": [
              {
                "system": "http://terminology.hl7.org/CodeSystem/observation-category",
                "code": "laboratory"
              }
            ]
          }
        ],
        "code": {
          "coding": [
            {
              "code": "6299-2",
              "system": "http://loinc.org",
              "display": "Urea nitrogen [Mass/volume] in Blood"
            }
          ],
          "text": "Urea nitrogen [Mass/volume] in Blood"
        },
        "valueQuantity": {
          "system": "http://unitsofmeasure.org",
          "value": 9.3,
          "unit": "mg/dL",
          "code": "mg/dL"
        },
        "referenceRange": [
          {
            "low": {
              "value": 7,
              "code": "mg/dL",
              "system": "http://unitsofmeasure.org"
            }
          },
          {
            "high": {
              "value": 43,
              "code": "mg/dL",
              "system": "http://unitsofmeasure.org"
            }
          }
        ],
        "text": {
          "status": "generated",
          "div": "<div xmlns=\"http://www.w3.org/1999/xhtml\"><table class=\"hl7__eu__lab__report\"><tr><th>Test</th><th>31-Jan-2022</th><th>Reference&#xA0;Range</th><th>Unit</th></tr><tr><td>Urea nitrogen [Mass/volume] in Blood</td><td>9.3</td><td>7 - 43</td><td></td><td>mg/dL</td></tr></table></div>"
        },
        "status": "final",
        "subject": {
          "reference": "urn:uuid:2d7ed524-04e3-41a0-be0c-99ed1dbaa4fa",
          "display": "Meaghan Neary"
        },
        "effectiveDateTime": "2022-01-31T22:11:04Z",
        "specimen": {
          "reference": "urn:uuid:67364395-614b-4e1c-8dd6-74b8b71cd958"
        }
      }
    },
    {
      "fullUrl": "urn:uuid:03798e2f-7da6-42b7-8a55-7a52a7c7088c",
      "resource": {
        "resourceType": "Observation",
        "id": "03798e2f-7da6-42b7-8a55-7a52a7c7088c",
        "meta": {
          "profile": [
            "http://hl7.eu/fhir/laboratory/StructureDefinition/Observation-resultslab-eu-lab"
          ]
        },
        "performer": [
          {
            "display": "The Central European Lab"
          }
        ],
        "category": [
          {
            "coding": [
              {
                "system": "http://terminology.hl7.org/CodeSystem/observation-category",
                "code": "laboratory"
              }
            ]
          }
        ],
        "code": {
          "coding": [
            {
              "code": "38483-4",
              "system": "http://loinc.org",
              "display": "Creatinine [Mass/volume] in Blood"
            }
          ],
          "text": "Creatinine [Mass/volume] in Blood"
        },
        "valueQuantity": {
          "system": "http://unitsofmeasure.org",
          "value": 3,
          "unit": "mg/dL",
          "code": "mg/dL"
        },
        "referenceRange": [
          {
            "low": {
              "value": 0.6,
              "code": "mg/dL",
              "system": "http://unitsofmeasure.org"
            }
          },
          {
            "high": {
              "value": 1.1,
              "code": "mg/dL",
              "system": "http://unitsofmeasure.org"
            }
          }
        ],
        "interpretation": [
          {
            "coding": [
              {
                "code": "H",
                "system": "http://terminology.hl7.org/CodeSystem/v3-ObservationInterpretation",
                "display": "High"
              }
            ]
          }
        ],
        "text": {
          "status": "generated",
          "div": "<div xmlns=\"http://www.w3.org/1999/xhtml\"><table class=\"hl7__eu__lab__report\"><tr><th>Test</th><th>31-Jan-2022</th><th>Reference&#xA0;Range</th><th>Unit</th></tr><tr><td>Creatinine [Mass/volume] in Blood</td><td>3.0</td><td>0.6 - 1.1</td><td>H</td><td>mg/dL</td></tr></table></div>"
        },
        "status": "final",
        "subject": {
          "reference": "urn:uuid:2d7ed524-04e3-41a0-be0c-99ed1dbaa4fa",
          "display": "Meaghan Neary"
        },
        "effectiveDateTime": "2022-01-31T22:11:04Z",
        "specimen": {
          "reference": "urn:uuid:67364395-614b-4e1c-8dd6-74b8b71cd958"
        }
      }
    },
    {
      "fullUrl": "urn:uuid:2080baeb-0819-4325-8fdf-10beb2db4855",
      "resource": {
        "resourceType": "Observation",
        "id": "2080baeb-0819-4325-8fdf-10beb2db4855",
        "meta": {
          "profile": [
            "http://hl7.eu/fhir/laboratory/StructureDefinition/Observation-resultslab-eu-lab"
          ]
        },
        "performer": [
          {
            "display": "The Central European Lab"
          }
        ],
        "category": [
          {
            "coding": [
              {
                "system": "http://terminology.hl7.org/CodeSystem/observation-category",
                "code": "laboratory"
              }
            ]
          }
        ],
        "code": {
          "coding": [
            {
              "code": "49765-1",
              "system": "http://loinc.org",
              "display": "Calcium [Mass/volume] in Blood"
            }
          ],
          "text": "Calcium [Mass/volume] in Blood"
        },
        "valueQuantity": {
          "system": "http://unitsofmeasure.org",
          "value": 9.2,
          "unit": "mg/dL",
          "code": "mg/dL"
        },
        "referenceRange": [
          {
            "low": {
              "value": 8.5,
              "code": "mg/dL",
              "system": "http://unitsofmeasure.org"
            }
          },
          {
            "high": {
              "value": 10.5,
              "code": "mg/dL",
              "system": "http://unitsofmeasure.org"
            }
          }
        ],
        "text": {
          "status": "generated",
          "div": "<div xmlns=\"http://www.w3.org/1999/xhtml\"><table class=\"hl7__eu__lab__report\"><tr><th>Test</th><th>31-Jan-2022</th><th>Reference&#xA0;Range</th><th>Unit</th></tr><tr><td>Calcium [Mass/volume] in Blood</td><td>9.2</td><td>8.5 - 10.5</td><td></td><td>mg/dL</td></tr></table></div>"
        },
        "status": "final",
        "subject": {
          "reference": "urn:uuid:2d7ed524-04e3-41a0-be0c-99ed1dbaa4fa",
          "display": "Meaghan Neary"
        },
        "effectiveDateTime": "2022-01-31T22:11:04Z",
        "specimen": {
          "reference": "urn:uuid:67364395-614b-4e1c-8dd6-74b8b71cd958"
        }
      }
    },
    {
      "fullUrl": "urn:uuid:9303d895-8756-4d13-9ea3-752f13f63bbb",
      "resource": {
        "resourceType": "Observation",
        "id": "9303d895-8756-4d13-9ea3-752f13f63bbb",
        "meta": {
          "profile": [
            "http://hl7.eu/fhir/laboratory/StructureDefinition/Observation-resultslab-eu-lab"
          ]
        },
        "performer": [
          {
            "display": "The Central European Lab"
          }
        ],
        "category": [
          {
            "coding": [
              {
                "system": "http://terminology.hl7.org/CodeSystem/observation-category",
                "code": "laboratory"
              }
            ]
          }
        ],
        "code": {
          "coding": [
            {
              "code": "2947-0",
              "system": "http://loinc.org",
              "display": "Sodium [Moles/volume] in Blood"
            }
          ],
          "text": "Sodium [Moles/volume] in Blood"
        },
        "valueQuantity": {
          "system": "http://unitsofmeasure.org",
          "value": 141.5,
          "unit": "mmol/L",
          "code": "mmol/L"
        },
        "referenceRange": [
          {
            "low": {
              "value": 135,
              "code": "mmol/L",
              "system": "http://unitsofmeasure.org"
            }
          },
          {
            "high": {
              "value": 145,
              "code": "mmol/L",
              "system": "http://unitsofmeasure.org"
            }
          }
        ],
        "text": {
          "status": "generated",
          "div": "<div xmlns=\"http://www.w3.org/1999/xhtml\"><table class=\"hl7__eu__lab__report\"><tr><th>Test</th><th>31-Jan-2022</th><th>Reference&#xA0;Range</th><th>Unit</th></tr><tr><td>Sodium [Moles/volume] in Blood</td><td>141.5</td><td>135 - 145</td><td></td><td>mmol/L</td></tr></table></div>"
        },
        "status": "final",
        "subject": {
          "reference": "urn:uuid:2d7ed524-04e3-41a0-be0c-99ed1dbaa4fa",
          "display": "Meaghan Neary"
        },
        "effectiveDateTime": "2022-01-31T22:11:04Z",
        "specimen": {
          "reference": "urn:uuid:67364395-614b-4e1c-8dd6-74b8b71cd958"
        }
      }
    },
    {
      "fullUrl": "urn:uuid:02d03d47-417e-4054-8cb9-9bfe5b9d2fdb",
      "resource": {
        "resourceType": "Observation",
        "id": "02d03d47-417e-4054-8cb9-9bfe5b9d2fdb",
        "meta": {
          "profile": [
            "http://hl7.eu/fhir/laboratory/StructureDefinition/Observation-resultslab-eu-lab"
          ]
        },
        "performer": [
          {
            "display": "The Central European Lab"
          }
        ],
        "category": [
          {
            "coding": [
              {
                "system": "http://terminology.hl7.org/CodeSystem/observation-category",
                "code": "laboratory"
              }
            ]
          }
        ],
        "code": {
          "coding": [
            {
              "code": "6298-4",
              "system": "http://loinc.org",
              "display": "Potassium [Moles/volume] in Blood"
            }
          ],
          "text": "Potassium [Moles/volume] in Blood"
        },
        "valueQuantity": {
          "system": "http://unitsofmeasure.org",
          "value": 3.8,
          "unit": "mmol/L",
          "code": "mmol/L"
        },
        "referenceRange": [
          {
            "low": {
              "value": 3.5,
              "code": "mmol/L",
              "system": "http://unitsofmeasure.org"
            }
          },
          {
            "high": {
              "value": 5.1,
              "code": "mmol/L",
              "system": "http://unitsofmeasure.org"
            }
          }
        ],
        "text": {
          "status": "generated",
          "div": "<div xmlns=\"http://www.w3.org/1999/xhtml\"><table class=\"hl7__eu__lab__report\"><tr><th>Test</th><th>31-Jan-2022</th><th>Reference&#xA0;Range</th><th>Unit</th></tr><tr><td>Potassium [Moles/volume] in Blood</td><td>3.8</td><td>3.5 - 5.1</td><td></td><td>mmol/L</td></tr></table></div>"
        },
        "status": "final",
        "subject": {
          "reference": "urn:uuid:2d7ed524-04e3-41a0-be0c-99ed1dbaa4fa",
          "display": "Meaghan Neary"
        },
        "effectiveDateTime": "2022-01-31T22:11:04Z",
        "specimen": {
          "reference": "urn:uuid:67364395-614b-4e1c-8dd6-74b8b71cd958"
        }
      }
    },
    {
      "fullUrl": "urn:uuid:212ece34-e15b-47b1-9b83-937d69c6586c",
      "resource": {
        "resourceType": "Observation",
        "id": "212ece34-e15b-47b1-9b83-937d69c6586c",
        "meta": {
          "profile": [
            "http://hl7.eu/fhir/laboratory/StructureDefinition/Observation-resultslab-eu-lab"
          ]
        },
        "performer": [
          {
            "display": "The Central European Lab"
          }
        ],
        "category": [
          {
            "coding": [
              {
                "system": "http://terminology.hl7.org/CodeSystem/observation-category",
                "code": "laboratory"
              }
            ]
          }
        ],
        "code": {
          "coding": [
            {
              "code": "2069-3",
              "system": "http://loinc.org",
              "display": "Chloride [Moles/volume] in Blood"
            }
          ],
          "text": "Chloride [Moles/volume] in Blood"
        },
        "valueQuantity": {
          "system": "http://unitsofmeasure.org",
          "value": 102.5,
          "unit": "mmol/L",
          "code": "mmol/L"
        },
        "referenceRange": [
          {
            "low": {
              "value": 98,
              "code": "mmol/L",
              "system": "http://unitsofmeasure.org"
            }
          },
          {
            "high": {
              "value": 108,
              "code": "mmol/L",
              "system": "http://unitsofmeasure.org"
            }
          }
        ],
        "text": {
          "status": "generated",
          "div": "<div xmlns=\"http://www.w3.org/1999/xhtml\"><table class=\"hl7__eu__lab__report\"><tr><th>Test</th><th>31-Jan-2022</th><th>Reference&#xA0;Range</th><th>Unit</th></tr><tr><td>Chloride [Moles/volume] in Blood</td><td>102.5</td><td>98 - 108</td><td></td><td>mmol/L</td></tr></table></div>"
        },
        "status": "final",
        "subject": {
          "reference": "urn:uuid:2d7ed524-04e3-41a0-be0c-99ed1dbaa4fa",
          "display": "Meaghan Neary"
        },
        "effectiveDateTime": "2022-01-31T22:11:04Z",
        "specimen": {
          "reference": "urn:uuid:67364395-614b-4e1c-8dd6-74b8b71cd958"
        }
      }
    },
    {
      "fullUrl": "urn:uuid:6623faa6-4788-4cf1-b5c0-6984c6fbf7df",
      "resource": {
        "resourceType": "Observation",
        "id": "6623faa6-4788-4cf1-b5c0-6984c6fbf7df",
        "meta": {
          "profile": [
            "http://hl7.eu/fhir/laboratory/StructureDefinition/Observation-resultslab-eu-lab"
          ]
        },
        "performer": [
          {
            "display": "The Central European Lab"
          }
        ],
        "category": [
          {
            "coding": [
              {
                "system": "http://terminology.hl7.org/CodeSystem/observation-category",
                "code": "laboratory"
              }
            ]
          }
        ],
        "code": {
          "coding": [
            {
              "code": "20565-8",
              "system": "http://loinc.org",
              "display": "Carbon dioxide, total [Moles/volume] in Blood"
            }
          ],
          "text": "Carbon dioxide, total [Moles/volume] in Blood"
        },
        "valueQuantity": {
          "system": "http://unitsofmeasure.org",
          "value": 28.8,
          "unit": "mmol/L",
          "code": "mmol/L"
        },
        "referenceRange": [
          {
            "low": {
              "value": 22,
              "code": "mmol/L",
              "system": "http://unitsofmeasure.org"
            }
          },
          {
            "high": {
              "value": 29,
              "code": "mmol/L",
              "system": "http://unitsofmeasure.org"
            }
          }
        ],
        "text": {
          "status": "generated",
          "div": "<div xmlns=\"http://www.w3.org/1999/xhtml\"><table class=\"hl7__eu__lab__report\"><tr><th>Test</th><th>31-Jan-2022</th><th>Reference&#xA0;Range</th><th>Unit</th></tr><tr><td>Carbon dioxide, total [Moles/volume] in Blood</td><td>28.8</td><td>22 - 29</td><td></td><td>mmol/L</td></tr></table></div>"
        },
        "status": "final",
        "subject": {
          "reference": "urn:uuid:2d7ed524-04e3-41a0-be0c-99ed1dbaa4fa",
          "display": "Meaghan Neary"
        },
        "effectiveDateTime": "2022-01-31T22:11:04Z",
        "specimen": {
          "reference": "urn:uuid:67364395-614b-4e1c-8dd6-74b8b71cd958"
        }
      }
    },
    {
      "fullUrl": "urn:uuid:9245dca1-8383-4003-8595-2de0eaecc143",
      "resource": {
        "resourceType": "Device",
        "id": "9245dca1-8383-4003-8595-2de0eaecc143",
        "deviceName": [
          {
            "name": "SYNDERAI Synthetic Generator",
            "type": "manufacturer-name"
          }
        ],
        "version": [
          {
            "value": "5.0"
          }
        ],
        "text": {
          "status": "generated",
          "div": "<div xmlns=\"http://www.w3.org/1999/xhtml\">SYNDERAI Synthetic Generator v5.0</div>"
        },
        "status": "active\"",
        "distinctIdentifier": "synderai-generator-50",
        "manufacturer": "SYNDERAI Project"
      }
    },
    {
      "fullUrl": "urn:uuid:73aadace-f2d1-4c78-9d81-6a3589cea936",
      "resource": {
        "resourceType": "Provenance",
        "id": "73aadace-f2d1-4c78-9d81-6a3589cea936",
        "target": [
          {
            "reference": "Patient/2d7ed524-04e3-41a0-be0c-99ed1dbaa4fa"
          },
          {
            "reference": "Bundle/dfe0dfae-2337-4266-98f8-eaf97abe4a2a"
          },
          {
            "reference": "Composition/8abfba4c-aee3-484b-981f-d9810db1f620"
          },
          {
            "reference": "PractitionerRole/8d48bcbe-07bb-406b-afd7-465d395ec294"
          },
          {
            "reference": "Practitioner/2955ae7e-6960-4057-ac26-6c6bbc59b578"
          },
          {
            "reference": "PractitionerRole/8ef7779d-f6c5-4ce9-bc66-586f1b8a160b"
          },
          {
            "reference": "Organization/8325cc9b-1768-487c-9142-453fcbe5d0dd"
          }
        ],
        "activity": {
          "text": "Synthetic Example Data Generation"
        },
        "policy": [
          "https://synderai.net/synderai-synthetic-data-policy"
        ],
        "agent": [
          {
            "type": {
              "text": "author"
            },
            "who": {
              "reference": "Device/9245dca1-8383-4003-8595-2de0eaecc143"
            }
          }
        ],
        "reason": [
          {
            "text": "Interoperability Testing and Training (non-clinical use)"
          }
        ],
        "text": {
          "status": "generated",
          "div": "<div xmlns=\"http://www.w3.org/1999/xhtml\">Provenance for SYNDERAI Synthetic Example Data Resource</div>"
        },
        "recorded": "2022-01-31T23:11:04Z"
      }
    },
    {
      "fullUrl": "urn:uuid:8d48bcbe-07bb-406b-afd7-465d395ec294",
      "resource": {
        "resourceType": "PractitionerRole",
        "id": "8d48bcbe-07bb-406b-afd7-465d395ec294",
        "meta": {
          "profile": [
            "http://hl7.eu/fhir/base/StructureDefinition/practitionerRole-eu"
          ]
        },
        "text": {
          "status": "generated",
          "div": "<div xmlns=\"http://www.w3.org/1999/xhtml\">Laboratory Role Id: 8d48bcbe-07bb-406b-afd7-465d395ec294</div>"
        },
        "practitioner": {
          "reference": "urn:uuid:2955ae7e-6960-4057-ac26-6c6bbc59b578"
        }
      }
    },
    {
      "fullUrl": "urn:uuid:2955ae7e-6960-4057-ac26-6c6bbc59b578",
      "resource": {
        "resourceType": "Practitioner",
        "id": "2955ae7e-6960-4057-ac26-6c6bbc59b578",
        "meta": {
          "profile": [
            "http://hl7.eu/fhir/base/StructureDefinition/practitioner-eu"
          ]
        },
        "identifier": [
          {
            "assigner": {
              "display": "HL7 Europe"
            },
            "system": "urn:oid:2.16.840.1.113883.2.51.999",
            "value": "ddd975c5-937b-4585-9e2d-d028fe1e698d"
          }
        ],
        "name": [
          {
            "prefix": [
              "dr"
            ],
            "given": [
              "Ex"
            ],
            "family": "Ample"
          }
        ],
        "address": [
          {
            "line": [
              "Laboratoire Central Européenne",
              "Boulevard du Jardin Botanique 32"
            ],
            "postalCode": "1000",
            "city": "Brussels",
            "country": "Belgium"
          }
        ],
        "text": {
          "status": "generated",
          "div": "<div xmlns=\"http://www.w3.org/1999/xhtml\">Laboratory: Laboratoire Central Européenne, 1000 Brussels, Belgium</div>"
        }
      }
    }
  ],
  "type": "document",
  "timestamp": "2022-01-31T23:11:04Z"
}
