<Bundle xmlns="http://hl7.org/fhir">
   <id value="a18cd099-6919-4a68-abd6-bbf5aa7864eb"/>
   <meta>
      <profile value="http://hl7.eu/fhir/laboratory/StructureDefinition/Bundle-eu-lab"/>
   </meta>
   <identifier>
      <system value="urn:oid:2.16.840.1.113883.2.51.999"/>
      <value value="c1b9d823-cd3f-4a0c-9c31-658b328bdf3c"/>
      <assigner>
         <display value="HL7 Europe"/>
      </assigner>
   </identifier>
   <type value="document"/>
   <timestamp value="2020-11-26T11:32:27Z"/>
   <entry>
      <fullUrl value="urn:uuid:0da245a8-8a52-46c9-95c5-e21468a4eca1"/>
      <resource>
         <Composition>
            <id value="0da245a8-8a52-46c9-95c5-e21468a4eca1"/>
            <meta>
               <profile value="http://hl7.eu/fhir/laboratory/StructureDefinition/Composition-eu-lab"/>
            </meta>
            <identifier>
               <system value="urn:oid:2.16.840.1.113883.2.51.999"/>
               <value value="11e89ef1-bcd9-4cd3-a6b1-2e77dc75a1d1"/>
               <assigner>
                  <display value="HL7 Europe"/>
               </assigner>
            </identifier>
            <status value="final"/>
            <type>
               <coding>
                  <system value="http://loinc.org"/>
                  <code value="11502-2"/>
                  <display value="Laboratory report"/>
               </coding>
               <text value="Laboratory Report"/>
            </type>
            <category>
               <coding>
                  <system value="http://loinc.org"/>
                  <code value="26436-6"/>
                  <display value="Laboratory studies (set)"/>
               </coding>
            </category>
            <subject>
               <reference value="urn:uuid:ccd5b16b-bce1-4833-acd5-95fb5750b26a"/>
               <display value="Alberto Manrique"/>
            </subject>
            <date value="2020-11-26T11:32:27Z"/>
            <author>
               <reference value="urn:uuid:b12be21e-6d8d-4e5e-ba97-14283915af58"/>
            </author>
            <title value="Laboratory Report"/>
            <confidentiality value="N"/>
            <section>
               <title value="Laboratory Report"/>
               <code>
                  <coding>
                     <system value="http://loinc.org"/>
                     <code value="26436-6"/>
                     <display value="Laboratory studies (set)"/>
                  </coding>
                  <text value="Laboratory studies"/>
               </code>
               <section>
                  <title value="Chemistry"/>
                  <code>
                     <coding>
                        <system value="http://loinc.org"/>
                        <code value="$18719-5"/>
                        <display value="Chemistry studies (set)"/>
                     </coding>
                     <text value="Chemistry"/>
                  </code>
                  <text>
                     <status value="generated"/>
                     <div xmlns="http://www.w3.org/1999/xhtml">
                        <h3>Chemistry</h3>
                        <table class="hl7__eu__lab__report">
                           <thead>
                              <tr>
                                 <th>Test</th>
                                 <th>26-NOV-2020</th>
                                 <th>Reference Range</th>
                                 <th>Unit</th>
                              </tr>
                           </thead>
                           <tbody>
                              <tr>
                                 <td>Cholesterol [Mass/volume] in Serum or Plasma</td>
                                 <td>175.7</td>
                                 <td>125 - 200</td>
                                 <td>mg/dL</td>
                              </tr>
                              <tr>
                                 <td>Triglyceride [Mass/volume] in Serum or Plasma</td>
                                 <td>125.3</td>
                                 <td>40 - 150</td>
                                 <td>mg/dL</td>
                              </tr>
                              <tr>
                                 <td>Cholesterol in LDL [Mass/volume] in Serum or Plasma by Direct assay</td>
                                 <td>86.1</td>
                                 <td>0 - 130</td>
                                 <td>mg/dL</td>
                              </tr>
                              <tr>
                                 <td>Cholesterol in HDL [Mass/volume] in Serum or Plasma</td>
                                 <td>
                                    <strong>64.5 H</strong>
                                 </td>
                                 <td>40 - 60</td>
                                 <td>mg/dL</td>
                              </tr>
                           </tbody>
                        </table>
                     </div>
                  </text>
                  <entry>
                     <reference value="urn:uuid:33fad548-7a51-4c90-977e-b24d0ad3c836"/>
                  </entry>
                  <entry>
                     <reference value="urn:uuid:cb8b69c0-69a3-4b64-b233-6efcb0973933"/>
                  </entry>
                  <entry>
                     <reference value="urn:uuid:013039e9-eaaa-4add-b337-45b19f419c83"/>
                  </entry>
                  <entry>
                     <reference value="urn:uuid:b60ed616-abf1-474c-a4c5-faaddfd9243d"/>
                  </entry>
               </section>
            </section>
            <section>
               <title value="Annotation comment"/>
               <code>
                  <coding>
                     <system value="http://loinc.org"/>
                     <code value="48767-8"/>
                     <display value="Annotation comment"/>
                  </coding>
               </code>
               <text>
                  <status value="generated"/>
                  <div xmlns="http://www.w3.org/1999/xhtml">
                     <h3>Annotation</h3>
                     <table class="hl7__eu__lab__report">
                        <tr>
                           <th>Conclusion and Recommendations based on this report and previous findings known to us</th>
                        </tr>
                        <tr>
                           <td>All lipid parameters are within or slightly above the normal range, with HDL cholesterol mildly elevated, which is generally considered protective. No evidence of dyslipidemia or increased cardiovascular risk from these results. No laboratory abnormalities requiring intervention.</td>
                        </tr>
                     </table>
                  </div>
               </text>
            </section>
         </Composition>
      </resource>
   </entry>
   <entry>
      <fullUrl value="urn:uuid:ee1f8c98-998d-4334-9525-8a959afcfa66"/>
      <resource>
         <DiagnosticReport>
            <id value="ee1f8c98-998d-4334-9525-8a959afcfa66"/>
            <meta>
               <profile value="http://hl7.eu/fhir/laboratory/StructureDefinition/DiagnosticReport-eu-lab"/>
            </meta>
            <extension url="http://hl7.org/fhir/5.0/StructureDefinition/extension-DiagnosticReport.composition">
               <valueReference>
                  <reference value="urn:uuid:11e89ef1-bcd9-4cd3-a6b1-2e77dc75a1d1"/>
               </valueReference>
            </extension>
            <identifier>
               <system value="urn:oid:2.16.840.1.113883.2.51.999"/>
               <value value="782aac81-321a-4eab-b91f-9d78d315dd6b"/>
               <assigner>
                  <display value="HL7 Europe"/>
               </assigner>
            </identifier>
            <status value="registered"/>
            <category>
               <coding>
                  <system value="http://loinc.org"/>
                  <code value="26436-6"/>
                  <display value="Laboratory studies (set)"/>
               </coding>
            </category>
            <code>
               <coding>
                  <system value="http://loinc.org"/>
                  <code value="11502-2"/>
                  <display value="Laboratory report"/>
               </coding>
            </code>
            <subject>
               <reference value="urn:uuid:ccd5b16b-bce1-4833-acd5-95fb5750b26a"/>
               <display value="Alberto Manrique"/>
            </subject>
            <specimen>
               <reference value="urn:uuid:e2b11a0d-8e94-4c47-b98c-99231b4e2f61"/>
            </specimen>
            <result>
               <reference value="urn:uuid:33fad548-7a51-4c90-977e-b24d0ad3c836"/>
            </result>
            <result>
               <reference value="urn:uuid:cb8b69c0-69a3-4b64-b233-6efcb0973933"/>
            </result>
            <result>
               <reference value="urn:uuid:013039e9-eaaa-4add-b337-45b19f419c83"/>
            </result>
            <result>
               <reference value="urn:uuid:b60ed616-abf1-474c-a4c5-faaddfd9243d"/>
            </result>
         </DiagnosticReport>
      </resource>
   </entry>
   <entry>
      <fullUrl value="urn:uuid:ccd5b16b-bce1-4833-acd5-95fb5750b26a"/>
      <resource>
         <Patient>
            <id value="ccd5b16b-bce1-4833-acd5-95fb5750b26a"/>
            <meta>
               <profile value="http://hl7.eu/fhir/base/StructureDefinition/patient-eu-core"/>
               <security>
                  <system value="http://terminology.hl7.org/CodeSystem/v3-ActReason"/>
                  <code value="HTEST"/>
               </security>
               <security>
                  <system value="http://terminology.hl7.org/CodeSystem/v3-ActReason"/>
                  <code value="TRAIN"/>
               </security>
               <tag>
                  <system value="https://synderai.net/fhir/CodeSystem/tags"/>
                  <code value="synthetic"/>
                  <display value="SYNDERAI Synthetic data"/>
               </tag>
            </meta>
            <text>
               <status value="generated"/>
               <div xmlns="http://www.w3.org/1999/xhtml">
                  <table class="hl7__ips">
                     <tr>
                        <td>Alberto Manrique</td>
                        <td>male</td>
                        <td>05-Apr-1993</td>
                     </tr>
                  </table>
               </div>
            </text>
            <extension url="http://hl7.org/fhir/StructureDefinition/patient-nationality">
               <valueCodeableConcept>
                  <coding>
                     <system value="http://hl7.org/fhir/ValueSet/country"/>
                     <code value="ES"/>
                  </coding>
               </valueCodeableConcept>
            </extension>
            <identifier>
               <type>
                  <coding>
                     <system value="http://terminology.hl7.org/CodeSystem/v2-0203"/>
                     <code value="PT"/>
                  </coding>
               </type>
               <system value="http://ec.europa.eu/identifier/eci"/>
               <value value="7218-581842-3"/>
            </identifier>
            <identifier>
               <type>
                  <coding>
                     <system value="http://terminology.hl7.org/CodeSystem/v2-0203"/>
                     <code value="MR"/>
                  </coding>
               </type>
               <system value="http://local.setting.eu/identifier"/>
               <value value="b6afc1e6-e260-fa0e-a335-1699bedecb9b"/>
            </identifier>
            <name>
               <family value="Manrique"/>
            </name>
            <name>
               <given value="Alberto"/>
            </name>
            <name>
               <text value="Alberto Manrique"/>
            </name>
            <telecom>
               <system value="phone"/>
               <value value="+34 827 76 55 59"/>
            </telecom>
            <gender value="male"/>
            <birthDate value="1993-04-05"/>
            <address>
               <use value="home"/>
               <type value="physical"/>
               <line value="Pasaje de Elisabet Rey 25"/>
               <city value="Valladolid"/>
               <postalCode value="47001"/>
               <country value="Spain"/>
            </address>
         </Patient>
      </resource>
   </entry>
   <entry>
      <fullUrl value="urn:uuid:443cd1c4-832c-422e-9041-ffa5722e259f"/>
      <resource>
         <ServiceRequest>
            <id value="443cd1c4-832c-422e-9041-ffa5722e259f"/>
            <meta>
               <profile value="http://hl7.eu/fhir/laboratory/StructureDefinition/ServiceRequest-eu-lab"/>
            </meta>
            <identifier>
               <system value="http://example.org"/>
               <value value="b6a12888-8533-44b0-9bcc-b98d1e993c98"/>
            </identifier>
            <status value="active"/>
            <intent value="order"/>
            <code>
               <coding>
                  <system value="http://snomed.info/sct"/>
                  <code value="108252007"/>
                  <display value="Laboratory procedure"/>
               </coding>
            </code>
            <subject>
               <reference value="urn:uuid:ccd5b16b-bce1-4833-acd5-95fb5750b26a"/>
               <display value="Alberto Manrique"/>
            </subject>
            <requester>
               <reference value="urn:uuid:1ca324c7-c494-4038-b582-8822129a16e1"/>
            </requester>
            <reasonCode>
               <coding>
                  <system value="http://snomed.info/sct"/>
                  <code value="59621000"/>
                  <display value="Essential hypertension"/>
               </coding>
            </reasonCode>
            <specimen>
               <reference value="urn:uuid:e2b11a0d-8e94-4c47-b98c-99231b4e2f61"/>
            </specimen>
         </ServiceRequest>
      </resource>
   </entry>
   <entry>
      <fullUrl value="urn:uuid:1ca324c7-c494-4038-b582-8822129a16e1"/>
      <resource>
         <PractitionerRole>
            <id value="1ca324c7-c494-4038-b582-8822129a16e1"/>
            <meta>
               <profile value="http://hl7.eu/fhir/base/StructureDefinition/practitionerRole-eu"/>
            </meta>
            <text>
               <status value="generated"/>
               <div xmlns="http://www.w3.org/1999/xhtml">Provider Role Id: 1ca324c7-c494-4038-b582-8822129a16e1</div>
            </text>
            <organization>
               <reference value="urn:uuid:37e84f7a-8384-4690-ac3b-fd45c3f1ebd0"/>
            </organization>
         </PractitionerRole>
      </resource>
   </entry>
   <entry>
      <fullUrl value="urn:uuid:37e84f7a-8384-4690-ac3b-fd45c3f1ebd0"/>
      <resource>
         <Organization>
            <id value="37e84f7a-8384-4690-ac3b-fd45c3f1ebd0"/>
            <meta>
               <profile value="http://hl7.eu/fhir/base/StructureDefinition/organization-eu"/>
            </meta>
            <text>
               <status value="generated"/>
               <div xmlns="http://www.w3.org/1999/xhtml">Provider Organization: Hospital Recoletas Campo Grande</div>
            </text>
            <identifier>
               <system value="urn:oid:2.16.840.1.113883.2.51.999"/>
               <value value="bd54f83f-916e-4877-a678-55c318cf8f62"/>
               <assigner>
                  <display value="HL7 Europe"/>
               </assigner>
            </identifier>
            <name value="Hospital Recoletas Campo Grande"/>
            <address>
               <line value="Calle de la Estación del Norte nan"/>
               <city value="Valladolid"/>
               <postalCode value="47007"/>
               <country value="Spain"/>
            </address>
         </Organization>
      </resource>
   </entry>
   <entry>
      <fullUrl value="urn:uuid:e2b11a0d-8e94-4c47-b98c-99231b4e2f61"/>
      <resource>
         <Specimen>
            <id value="e2b11a0d-8e94-4c47-b98c-99231b4e2f61"/>
            <meta>
               <profile value="http://hl7.eu/fhir/laboratory/StructureDefinition/Specimen-eu-lab"/>
            </meta>
            <text>
               <status value="generated"/>
               <div xmlns="http://www.w3.org/1999/xhtml">
                  <table class="hl7__eu__lab__report">
                     <tr>
                        <th>Specimen</th>
                        <th>Collection Date</th>
                     </tr>
                     <tr>
                        <td>Acellular blood (serum or plasma) specimen</td>
                        <td>
                           <span class="nb">26-Nov-2020</span>
                        </td>
                     </tr>
                  </table>
               </div>
            </text>
            <type>
               <coding>
                  <system value="http://snomed.info/sct"/>
                  <code value="122592007"/>
                  <display value="Acellular blood (serum or plasma) specimen"/>
               </coding>
            </type>
            <collection>
               <collectedDateTime value="2020-11-26"/>
            </collection>
         </Specimen>
      </resource>
   </entry>
   <entry>
      <fullUrl value="urn:uuid:33fad548-7a51-4c90-977e-b24d0ad3c836"/>
      <resource>
         <Observation>
            <id value="33fad548-7a51-4c90-977e-b24d0ad3c836"/>
            <meta>
               <profile value="http://hl7.eu/fhir/laboratory/StructureDefinition/Observation-resultslab-eu-lab"/>
            </meta>
            <text>
               <status value="generated"/>
               <div xmlns="http://www.w3.org/1999/xhtml">
                  <table class="hl7__eu__lab__report">
                     <tr>
                        <th>Test</th>
                        <th>26-Nov-2020</th>
                        <th>Reference Range</th>
                        <th>Unit</th>
                     </tr>
                     <tr>
                        <td>Cholesterol [Mass/volume] in Serum or Plasma</td>
                        <td>175.7</td>
                        <td>125 - 200</td>
                        <td/>
                        <td>mg/dL</td>
                     </tr>
                  </table>
               </div>
            </text>
            <status value="final"/>
            <category>
               <coding>
                  <system value="http://terminology.hl7.org/CodeSystem/observation-category"/>
                  <code value="laboratory"/>
               </coding>
            </category>
            <code>
               <coding>
                  <system value="http://loinc.org"/>
                  <code value="2093-3"/>
                  <display value="Cholesterol [Mass/volume] in Serum or Plasma"/>
               </coding>
               <text value="Cholesterol [Mass/volume] in Serum or Plasma"/>
            </code>
            <subject>
               <reference value="urn:uuid:ccd5b16b-bce1-4833-acd5-95fb5750b26a"/>
               <display value="Alberto Manrique"/>
            </subject>
            <effectiveDateTime value="2020-11-26T10:32:27Z"/>
            <performer>
               <display value="The Central European Lab"/>
            </performer>
            <valueQuantity>
               <value value="175.7"/>
               <unit value="mg/dL"/>
               <system value="http://unitsofmeasure.org"/>
               <code value="mg/dL"/>
            </valueQuantity>
            <specimen>
               <reference value="urn:uuid:e2b11a0d-8e94-4c47-b98c-99231b4e2f61"/>
            </specimen>
            <referenceRange>
               <low>
                  <value value="125"/>
                  <system value="http://unitsofmeasure.org"/>
                  <code value="mg/dL"/>
               </low>
            </referenceRange>
            <referenceRange>
               <high>
                  <value value="200"/>
                  <system value="http://unitsofmeasure.org"/>
                  <code value="mg/dL"/>
               </high>
            </referenceRange>
         </Observation>
      </resource>
   </entry>
   <entry>
      <fullUrl value="urn:uuid:cb8b69c0-69a3-4b64-b233-6efcb0973933"/>
      <resource>
         <Observation>
            <id value="cb8b69c0-69a3-4b64-b233-6efcb0973933"/>
            <meta>
               <profile value="http://hl7.eu/fhir/laboratory/StructureDefinition/Observation-resultslab-eu-lab"/>
            </meta>
            <text>
               <status value="generated"/>
               <div xmlns="http://www.w3.org/1999/xhtml">
                  <table class="hl7__eu__lab__report">
                     <tr>
                        <th>Test</th>
                        <th>26-Nov-2020</th>
                        <th>Reference Range</th>
                        <th>Unit</th>
                     </tr>
                     <tr>
                        <td>Triglyceride [Mass/volume] in Serum or Plasma</td>
                        <td>125.3</td>
                        <td>40 - 150</td>
                        <td/>
                        <td>mg/dL</td>
                     </tr>
                  </table>
               </div>
            </text>
            <status value="final"/>
            <category>
               <coding>
                  <system value="http://terminology.hl7.org/CodeSystem/observation-category"/>
                  <code value="laboratory"/>
               </coding>
            </category>
            <code>
               <coding>
                  <system value="http://loinc.org"/>
                  <code value="2571-8"/>
                  <display value="Triglyceride [Mass/volume] in Serum or Plasma"/>
               </coding>
               <text value="Triglyceride [Mass/volume] in Serum or Plasma"/>
            </code>
            <subject>
               <reference value="urn:uuid:ccd5b16b-bce1-4833-acd5-95fb5750b26a"/>
               <display value="Alberto Manrique"/>
            </subject>
            <effectiveDateTime value="2020-11-26T10:32:27Z"/>
            <performer>
               <display value="The Central European Lab"/>
            </performer>
            <valueQuantity>
               <value value="125.3"/>
               <unit value="mg/dL"/>
               <system value="http://unitsofmeasure.org"/>
               <code value="mg/dL"/>
            </valueQuantity>
            <specimen>
               <reference value="urn:uuid:e2b11a0d-8e94-4c47-b98c-99231b4e2f61"/>
            </specimen>
            <referenceRange>
               <low>
                  <value value="40"/>
                  <system value="http://unitsofmeasure.org"/>
                  <code value="mg/dL"/>
               </low>
            </referenceRange>
            <referenceRange>
               <high>
                  <value value="150"/>
                  <system value="http://unitsofmeasure.org"/>
                  <code value="mg/dL"/>
               </high>
            </referenceRange>
         </Observation>
      </resource>
   </entry>
   <entry>
      <fullUrl value="urn:uuid:013039e9-eaaa-4add-b337-45b19f419c83"/>
      <resource>
         <Observation>
            <id value="013039e9-eaaa-4add-b337-45b19f419c83"/>
            <meta>
               <profile value="http://hl7.eu/fhir/laboratory/StructureDefinition/Observation-resultslab-eu-lab"/>
            </meta>
            <text>
               <status value="generated"/>
               <div xmlns="http://www.w3.org/1999/xhtml">
                  <table class="hl7__eu__lab__report">
                     <tr>
                        <th>Test</th>
                        <th>26-Nov-2020</th>
                        <th>Reference Range</th>
                        <th>Unit</th>
                     </tr>
                     <tr>
                        <td>Cholesterol in LDL [Mass/volume] in Serum or Plasma by Direct assay</td>
                        <td>86.1</td>
                        <td>0 - 130</td>
                        <td/>
                        <td>mg/dL</td>
                     </tr>
                  </table>
               </div>
            </text>
            <status value="final"/>
            <category>
               <coding>
                  <system value="http://terminology.hl7.org/CodeSystem/observation-category"/>
                  <code value="laboratory"/>
               </coding>
            </category>
            <code>
               <coding>
                  <system value="http://loinc.org"/>
                  <code value="18262-6"/>
                  <display value="Cholesterol in LDL [Mass/volume] in Serum or Plasma by Direct assay"/>
               </coding>
               <text value="Cholesterol in LDL [Mass/volume] in Serum or Plasma by Direct assay"/>
            </code>
            <subject>
               <reference value="urn:uuid:ccd5b16b-bce1-4833-acd5-95fb5750b26a"/>
               <display value="Alberto Manrique"/>
            </subject>
            <effectiveDateTime value="2020-11-26T10:32:27Z"/>
            <performer>
               <display value="The Central European Lab"/>
            </performer>
            <valueQuantity>
               <value value="86.1"/>
               <unit value="mg/dL"/>
               <system value="http://unitsofmeasure.org"/>
               <code value="mg/dL"/>
            </valueQuantity>
            <specimen>
               <reference value="urn:uuid:e2b11a0d-8e94-4c47-b98c-99231b4e2f61"/>
            </specimen>
            <referenceRange>
               <low>
                  <value value="0"/>
                  <system value="http://unitsofmeasure.org"/>
                  <code value="mg/dL"/>
               </low>
            </referenceRange>
            <referenceRange>
               <high>
                  <value value="130"/>
                  <system value="http://unitsofmeasure.org"/>
                  <code value="mg/dL"/>
               </high>
            </referenceRange>
         </Observation>
      </resource>
   </entry>
   <entry>
      <fullUrl value="urn:uuid:b60ed616-abf1-474c-a4c5-faaddfd9243d"/>
      <resource>
         <Observation>
            <id value="b60ed616-abf1-474c-a4c5-faaddfd9243d"/>
            <meta>
               <profile value="http://hl7.eu/fhir/laboratory/StructureDefinition/Observation-resultslab-eu-lab"/>
            </meta>
            <text>
               <status value="generated"/>
               <div xmlns="http://www.w3.org/1999/xhtml">
                  <table class="hl7__eu__lab__report">
                     <tr>
                        <th>Test</th>
                        <th>26-Nov-2020</th>
                        <th>Reference Range</th>
                        <th>Unit</th>
                     </tr>
                     <tr>
                        <td>Cholesterol in HDL [Mass/volume] in Serum or Plasma</td>
                        <td>64.5</td>
                        <td>40 - 60</td>
                        <td>H</td>
                        <td>mg/dL</td>
                     </tr>
                  </table>
               </div>
            </text>
            <status value="final"/>
            <category>
               <coding>
                  <system value="http://terminology.hl7.org/CodeSystem/observation-category"/>
                  <code value="laboratory"/>
               </coding>
            </category>
            <code>
               <coding>
                  <system value="http://loinc.org"/>
                  <code value="2085-9"/>
                  <display value="Cholesterol in HDL [Mass/volume] in Serum or Plasma"/>
               </coding>
               <text value="Cholesterol in HDL [Mass/volume] in Serum or Plasma"/>
            </code>
            <subject>
               <reference value="urn:uuid:ccd5b16b-bce1-4833-acd5-95fb5750b26a"/>
               <display value="Alberto Manrique"/>
            </subject>
            <effectiveDateTime value="2020-11-26T10:32:27Z"/>
            <performer>
               <display value="The Central European Lab"/>
            </performer>
            <valueQuantity>
               <value value="64.5"/>
               <unit value="mg/dL"/>
               <system value="http://unitsofmeasure.org"/>
               <code value="mg/dL"/>
            </valueQuantity>
            <interpretation>
               <coding>
                  <system value="http://terminology.hl7.org/CodeSystem/v3-ObservationInterpretation"/>
                  <code value="H"/>
                  <display value="High"/>
               </coding>
            </interpretation>
            <specimen>
               <reference value="urn:uuid:e2b11a0d-8e94-4c47-b98c-99231b4e2f61"/>
            </specimen>
            <referenceRange>
               <low>
                  <value value="40"/>
                  <system value="http://unitsofmeasure.org"/>
                  <code value="mg/dL"/>
               </low>
            </referenceRange>
            <referenceRange>
               <high>
                  <value value="60"/>
                  <system value="http://unitsofmeasure.org"/>
                  <code value="mg/dL"/>
               </high>
            </referenceRange>
         </Observation>
      </resource>
   </entry>
   <entry>
      <fullUrl value="urn:uuid:cad2ea00-f634-4850-a877-dffcaec5c243"/>
      <resource>
         <Device>
            <id value="cad2ea00-f634-4850-a877-dffcaec5c243"/>
            <text>
               <status value="generated"/>
               <div xmlns="http://www.w3.org/1999/xhtml">SYNDERAI Synthetic Generator v5.0</div>
            </text>
            <status value="active&#34;"/>
            <distinctIdentifier value="synderai-generator-50"/>
            <manufacturer value="SYNDERAI Project"/>
            <deviceName>
               <name value="SYNDERAI Synthetic Generator"/>
               <type value="manufacturer-name"/>
            </deviceName>
            <version>
               <value value="5.0"/>
            </version>
         </Device>
      </resource>
   </entry>
   <entry>
      <fullUrl value="urn:uuid:330bb42b-2ce7-461e-8b9e-03928950dbc0"/>
      <resource>
         <Provenance>
            <id value="330bb42b-2ce7-461e-8b9e-03928950dbc0"/>
            <text>
               <status value="generated"/>
               <div xmlns="http://www.w3.org/1999/xhtml">Provenance for SYNDERAI Synthetic Example Data Resource</div>
            </text>
            <target>
               <reference value="Patient/ccd5b16b-bce1-4833-acd5-95fb5750b26a"/>
            </target>
            <target>
               <reference value="Bundle/a18cd099-6919-4a68-abd6-bbf5aa7864eb"/>
            </target>
            <target>
               <reference value="Composition/0da245a8-8a52-46c9-95c5-e21468a4eca1"/>
            </target>
            <target>
               <reference value="PractitionerRole/b12be21e-6d8d-4e5e-ba97-14283915af58"/>
            </target>
            <target>
               <reference value="Practitioner/e51eabdb-0e16-4f26-a68d-31f843d7e18c"/>
            </target>
            <target>
               <reference value="PractitionerRole/1ca324c7-c494-4038-b582-8822129a16e1"/>
            </target>
            <target>
               <reference value="Organization/37e84f7a-8384-4690-ac3b-fd45c3f1ebd0"/>
            </target>
            <recorded value="2020-11-26T11:32:27Z"/>
            <policy value="https://synderai.net/synderai-synthetic-data-policy"/>
            <reason>
               <text value="Interoperability Testing and Training (non-clinical use)"/>
            </reason>
            <activity>
               <text value="Synthetic Example Data Generation"/>
            </activity>
            <agent>
               <type>
                  <text value="author"/>
               </type>
               <who>
                  <reference value="Device/cad2ea00-f634-4850-a877-dffcaec5c243"/>
               </who>
            </agent>
         </Provenance>
      </resource>
   </entry>
   <entry>
      <fullUrl value="urn:uuid:b12be21e-6d8d-4e5e-ba97-14283915af58"/>
      <resource>
         <PractitionerRole>
            <id value="b12be21e-6d8d-4e5e-ba97-14283915af58"/>
            <meta>
               <profile value="http://hl7.eu/fhir/base/StructureDefinition/practitionerRole-eu"/>
            </meta>
            <text>
               <status value="generated"/>
               <div xmlns="http://www.w3.org/1999/xhtml">Laboratory Role Id: b12be21e-6d8d-4e5e-ba97-14283915af58</div>
            </text>
            <practitioner>
               <reference value="urn:uuid:e51eabdb-0e16-4f26-a68d-31f843d7e18c"/>
            </practitioner>
         </PractitionerRole>
      </resource>
   </entry>
   <entry>
      <fullUrl value="urn:uuid:e51eabdb-0e16-4f26-a68d-31f843d7e18c"/>
      <resource>
         <Practitioner>
            <id value="e51eabdb-0e16-4f26-a68d-31f843d7e18c"/>
            <meta>
               <profile value="http://hl7.eu/fhir/base/StructureDefinition/practitioner-eu"/>
            </meta>
            <text>
               <status value="generated"/>
               <div xmlns="http://www.w3.org/1999/xhtml">Laboratory: Laboratoire Central Européenne, 1000 Brussels, Belgium</div>
            </text>
            <identifier>
               <system value="urn:oid:2.16.840.1.113883.2.51.999"/>
               <value value="39afb24e-c68d-4318-a0e7-cdac39d3b6bf"/>
               <assigner>
                  <display value="HL7 Europe"/>
               </assigner>
            </identifier>
            <name>
               <family value="Ample"/>
               <given value="Ex"/>
               <prefix value="dr"/>
            </name>
            <address>
               <line value="Laboratoire Central Européenne"/>
               <line value="Boulevard du Jardin Botanique 32"/>
               <city value="Brussels"/>
               <postalCode value="1000"/>
               <country value="Belgium"/>
            </address>
         </Practitioner>
      </resource>
   </entry>
</Bundle>