{
  "resourceType": "Bundle",
  "id": "714877cf-bd61-4e33-b0ec-814718ffd143",
  "meta": {
    "profile": [
      "http://hl7.eu/fhir/laboratory/StructureDefinition/Bundle-eu-lab"
    ]
  },
  "identifier": {
    "assigner": {
      "display": "HL7 Europe"
    },
    "system": "urn:oid:2.16.840.1.113883.2.51.999",
    "value": "a595d002-8365-464b-8046-291608924b9e"
  },
  "entry": [
    {
      "fullUrl": "urn:uuid:8a13bae4-cec8-49f8-b6f2-ba119cfc3a2e",
      "resource": {
        "resourceType": "Composition",
        "id": "8a13bae4-cec8-49f8-b6f2-ba119cfc3a2e",
        "meta": {
          "profile": [
            "http://hl7.eu/fhir/laboratory/StructureDefinition/Composition-eu-lab"
          ]
        },
        "identifier": {
          "assigner": {
            "display": "HL7 Europe"
          },
          "system": "urn:oid:2.16.840.1.113883.2.51.999",
          "value": "3f2af7c1-1807-4d5b-aa4d-030775bc28e2"
        },
        "author": [
          {
            "reference": "urn:uuid:d67cfd84-1a26-47a4-b232-2ad19f414fdf"
          }
        ],
        "category": [
          {
            "coding": [
              {
                "code": "26436-6",
                "system": "http://loinc.org",
                "display": "Laboratory studies (set)"
              }
            ]
          }
        ],
        "type": {
          "coding": [
            {
              "code": "11502-2",
              "system": "http://loinc.org",
              "display": "Laboratory report"
            }
          ],
          "text": "Laboratory Report"
        },
        "section": [
          {
            "code": {
              "coding": [
                {
                  "code": "26436-6",
                  "system": "http://loinc.org",
                  "display": "Laboratory studies (set)"
                }
              ],
              "text": "Laboratory studies"
            },
            "section": [
              {
                "code": {
                  "coding": [
                    {
                      "code": "$18719-5",
                      "system": "http://loinc.org",
                      "display": "Chemistry studies (set)"
                    }
                  ],
                  "text": "Chemistry"
                },
                "entry": [
                  {
                    "reference": "urn:uuid:e24cd312-3f32-424f-ab56-ab4832284fff"
                  },
                  {
                    "reference": "urn:uuid:964e552e-e1b0-490f-b998-546845ce18b2"
                  },
                  {
                    "reference": "urn:uuid:36d615ec-02fc-4ab3-8c3a-ef5ba0a76f78"
                  },
                  {
                    "reference": "urn:uuid:16a8b83f-b7f1-4e5d-9607-14cfd4ae76e3"
                  },
                  {
                    "reference": "urn:uuid:170ca8b8-3a49-4cb7-897e-cc741f7dd365"
                  },
                  {
                    "reference": "urn:uuid:40afcc21-8e8e-4f93-ae69-2588772be401"
                  },
                  {
                    "reference": "urn:uuid:4e6ee6b4-258d-4a6e-9247-cdfdd02066c4"
                  },
                  {
                    "reference": "urn:uuid:30a98be4-a4c1-43d7-8991-95158ad13c0d"
                  },
                  {
                    "reference": "urn:uuid:767846ba-69ff-4812-b39a-ae47cf26d935"
                  },
                  {
                    "reference": "urn:uuid:69423f64-4b6f-4f35-a6aa-0c759e05a53a"
                  }
                ],
                "text": {
                  "status": "generated",
                  "div": "<div xmlns=\"http://www.w3.org/1999/xhtml\"><h3>Chemistry</h3><table class=\"hl7__eu__lab__report\"><thead><tr><th>Test</th><th>20-FEB-2019</th><th>Reference&#xA0;Range</th><th>Unit</th></tr></thead><tbody><tr><td>Glucose [Mass/volume] in Serum or Plasma</td><td>80.2</td><td>70 - 140</td><td>mg/dL</td></tr><tr><td>Urea nitrogen [Mass/volume] in Serum or Plasma</td><td>9.1</td><td>7 - 20</td><td>mg/dL</td></tr><tr><td>Creatinine [Mass/volume] in Serum or Plasma</td><td><strong>2.0 H</strong></td><td>0.9 - 1.3</td><td>mg/dL</td></tr><tr><td>Calcium [Mass/volume] in Serum or Plasma</td><td>8.9</td><td>8.5 - 10.5</td><td>mg/dL</td></tr><tr><td>Sodium [Moles/volume] in Serum or Plasma</td><td>136.6</td><td>135 - 145</td><td>mmol/L</td></tr><tr><td>Potassium [Moles/volume] in Serum or Plasma</td><td><strong>5.1 H</strong></td><td>3.5 - 5</td><td>mmol/L</td></tr><tr><td>Chloride [Moles/volume] in Serum or Plasma</td><td>104.6</td><td>98 - 108</td><td>mmol/L</td></tr><tr><td>Carbon dioxide, total [Moles/volume] in Serum or Plasma</td><td><strong>21.7 L</strong></td><td>22 - 29</td><td>mmol/L</td></tr><tr><td>Ketones [Presence] in Urine by Test strip</td><td>Urine ketone test = ++</td><td></td><td></td></tr><tr><td>Hemoglobin A1c/Hemoglobin.total in Blood</td><td><strong>3.2 L</strong></td><td>4.3 - 6.4</td><td>%</td></tr></tbody></table></div>"
                },
                "title": "Chemistry"
              },
              {
                "code": {
                  "coding": [
                    {
                      "code": "$18729-4",
                      "system": "http://loinc.org",
                      "display": "Urinalysis studies (set)"
                    }
                  ],
                  "text": "Urinalysis"
                },
                "entry": [
                  {
                    "reference": "urn:uuid:f149d8e5-af3a-4156-9949-97be61c22920"
                  },
                  {
                    "reference": "urn:uuid:8cfdc4e6-29bd-4a60-9e2b-3551f9552375"
                  },
                  {
                    "reference": "urn:uuid:a5d2142b-06d2-474e-a82e-3d4de24bc3ec"
                  },
                  {
                    "reference": "urn:uuid:76bab350-4428-4970-ba89-2a12eab4bd77"
                  },
                  {
                    "reference": "urn:uuid:bf312989-5de4-459b-bf7d-a3a95d41380a"
                  },
                  {
                    "reference": "urn:uuid:4f9490c1-a506-498d-b01b-d5a58704df1f"
                  },
                  {
                    "reference": "urn:uuid:bd31e014-4cb9-4e20-a2aa-290871c390a8"
                  },
                  {
                    "reference": "urn:uuid:95351594-82b7-4fa5-8a33-74ff81e54211"
                  },
                  {
                    "reference": "urn:uuid:64b9a2bc-2917-46be-b205-b7ae28364cd5"
                  },
                  {
                    "reference": "urn:uuid:b067792d-54a7-40a0-b462-fe9391db6407"
                  },
                  {
                    "reference": "urn:uuid:7e6ea5a2-20a2-47b3-97d1-e8ef821ce45b"
                  },
                  {
                    "reference": "urn:uuid:36cb14ce-44e4-4207-8447-b5c0d1192037"
                  }
                ],
                "text": {
                  "status": "generated",
                  "div": "<div xmlns=\"http://www.w3.org/1999/xhtml\"><h3>Urinalysis</h3><table class=\"hl7__eu__lab__report\"><thead><tr><th>Test</th><th>20-FEB-2019</th><th>Reference&#xA0;Range</th><th>Unit</th></tr></thead><tbody><tr><td>Glucose [Mass/volume] in Urine by Test strip</td><td><strong>1.3 H</strong></td><td>0 - 0.8</td><td>mg/dL</td></tr><tr><td>Glucose [Presence] in Urine by Test strip</td><td>++</td><td></td><td></td></tr><tr><td>Bilirubin.total [Mass/volume] in Urine by Test strip</td><td>0.5</td><td>0.2 - 1</td><td>mg/dL</td></tr><tr><td>Bilirubin.total [Presence] in Urine by Test strip</td><td>Finding of bilirubin in urine</td><td></td><td></td></tr><tr><td>Ketones [Mass/volume] in Urine by Test strip</td><td><strong>8.8 H</strong></td><td>0 - 5</td><td>mg/dL</td></tr><tr><td>Specific gravity of Urine by Test strip</td><td><strong>1.0 L</strong></td><td>1.005 - 1.03</td><td>{nominal}</td></tr><tr><td>pH of Urine by Test strip</td><td>5.0</td><td>4.6 - 7</td><td>pH</td></tr><tr><td>Protein [Mass/volume] in Urine by Test strip</td><td><strong>361.3 H</strong></td><td>0 - 150</td><td>mg/dL</td></tr><tr><td>Protein [Presence] in Urine by Test strip</td><td>Urine protein test = ++</td><td></td><td></td></tr><tr><td>Nitrite [Presence] in Urine by Test strip</td><td>Urine nitrite negative</td><td></td><td></td></tr><tr><td>Hemoglobin [Presence] in Urine by Test strip</td><td>Urine blood test = negative</td><td></td><td></td></tr><tr><td>Leukocyte esterase [Presence] in Urine by Test strip</td><td>Urine leukocyte test negative</td><td></td><td></td></tr></tbody></table></div>"
                },
                "title": "Urinalysis"
              },
              {
                "code": {
                  "coding": [
                    {
                      "code": "$LP7846-1",
                      "system": "http://loinc.org",
                      "display": "Specimen information"
                    }
                  ],
                  "text": "Specimen information"
                },
                "entry": [
                  {
                    "reference": "urn:uuid:a3d2d841-705d-4ad3-bd61-2749e0340a63"
                  },
                  {
                    "reference": "urn:uuid:53a14327-ea38-4348-9014-028fdd00489f"
                  },
                  {
                    "reference": "urn:uuid:324abc93-8138-40bc-a13c-f774d85b2fdd"
                  },
                  {
                    "reference": "urn:uuid:ad606a09-5e50-4ef0-8dd9-0c857aac0341"
                  }
                ],
                "text": {
                  "status": "generated",
                  "div": "<div xmlns=\"http://www.w3.org/1999/xhtml\"><h3>Specimen information</h3><table class=\"hl7__eu__lab__report\"><thead><tr><th>Test</th><th>20-FEB-2019</th><th>Specimen</th><th></th></tr></thead><tbody><tr><td>Appearance of Urine</td><td>Cloudy urine</td><td>Urine</td><td></td></tr><tr><td>Odor of Urine</td><td>Urine smell ammoniacal</td><td>Urine</td><td></td></tr><tr><td>Clarity of Urine</td><td>Translucent</td><td>Urine</td><td></td></tr><tr><td>Color of Urine</td><td>Brown color</td><td>Urine</td><td></td></tr></tbody></table></div>"
                },
                "title": "Specimen information"
              }
            ],
            "title": "Laboratory Report"
          },
          {
            "text": {
              "status": "generated",
              "div": "<div xmlns=\"http://www.w3.org/1999/xhtml\"><h3>Annotation</h3><table class=\"hl7__eu__lab__report\"><tr><th>Conclusion and Recommendations based on this report and previous findings known to us</th></tr><tr><td>The patient shows elevated serum creatinine and potassium, suggesting impaired renal function. Urinalysis reveals proteinuria, glucosuria, ketonuria, low specific gravity, and abnormal urine appearance, indicating possible nephropathy and poor glycemic control, despite a low HbA1c (possibly due to anemia or recent changes). Further evaluation of renal function, diabetes status, and possible urinary tract pathology is recommended.</td></tr></table></div>"
            },
            "code": {
              "coding": [
                {
                  "system": "http://loinc.org",
                  "code": "48767-8",
                  "display": "Annotation comment"
                }
              ]
            },
            "title": "Annotation comment"
          }
        ],
        "status": "final",
        "subject": {
          "reference": "urn:uuid:56856fac-d115-4b82-92bb-0c95384aef5f",
          "display": "Θεμιστοκλής Λιναρδάκη"
        },
        "date": "2019-02-20T07:16:00Z",
        "title": "Laboratory Report",
        "confidentiality": "N"
      }
    },
    {
      "fullUrl": "urn:uuid:8d4d68fa-9e62-4908-9069-889e68357d91",
      "resource": {
        "resourceType": "DiagnosticReport",
        "id": "8d4d68fa-9e62-4908-9069-889e68357d91",
        "meta": {
          "profile": [
            "http://hl7.eu/fhir/laboratory/StructureDefinition/DiagnosticReport-eu-lab"
          ]
        },
        "identifier": [
          {
            "assigner": {
              "display": "HL7 Europe"
            },
            "system": "urn:oid:2.16.840.1.113883.2.51.999",
            "value": "2f17bcb5-2efb-4a63-afad-6d45ffc7e2c9"
          }
        ],
        "extension": [
          {
            "url": "http://hl7.org/fhir/5.0/StructureDefinition/extension-DiagnosticReport.composition",
            "valueReference": {
              "reference": "urn:uuid:3f2af7c1-1807-4d5b-aa4d-030775bc28e2"
            }
          }
        ],
        "category": [
          {
            "coding": [
              {
                "code": "26436-6",
                "system": "http://loinc.org",
                "display": "Laboratory studies (set)"
              }
            ]
          }
        ],
        "specimen": [
          {
            "reference": "urn:uuid:2ede45aa-72c5-411f-bb2e-0d88c8d16340"
          },
          {
            "reference": "urn:uuid:78486f7b-adba-43e3-b3eb-5390ff665fcc"
          },
          {
            "reference": "urn:uuid:d631ac9a-fdb4-466a-ab84-019d9006d583"
          }
        ],
        "result": [
          {
            "reference": "urn:uuid:e24cd312-3f32-424f-ab56-ab4832284fff"
          },
          {
            "reference": "urn:uuid:964e552e-e1b0-490f-b998-546845ce18b2"
          },
          {
            "reference": "urn:uuid:36d615ec-02fc-4ab3-8c3a-ef5ba0a76f78"
          },
          {
            "reference": "urn:uuid:16a8b83f-b7f1-4e5d-9607-14cfd4ae76e3"
          },
          {
            "reference": "urn:uuid:170ca8b8-3a49-4cb7-897e-cc741f7dd365"
          },
          {
            "reference": "urn:uuid:40afcc21-8e8e-4f93-ae69-2588772be401"
          },
          {
            "reference": "urn:uuid:4e6ee6b4-258d-4a6e-9247-cdfdd02066c4"
          },
          {
            "reference": "urn:uuid:30a98be4-a4c1-43d7-8991-95158ad13c0d"
          },
          {
            "reference": "urn:uuid:a3d2d841-705d-4ad3-bd61-2749e0340a63"
          },
          {
            "reference": "urn:uuid:53a14327-ea38-4348-9014-028fdd00489f"
          },
          {
            "reference": "urn:uuid:324abc93-8138-40bc-a13c-f774d85b2fdd"
          },
          {
            "reference": "urn:uuid:ad606a09-5e50-4ef0-8dd9-0c857aac0341"
          },
          {
            "reference": "urn:uuid:f149d8e5-af3a-4156-9949-97be61c22920"
          },
          {
            "reference": "urn:uuid:8cfdc4e6-29bd-4a60-9e2b-3551f9552375"
          },
          {
            "reference": "urn:uuid:a5d2142b-06d2-474e-a82e-3d4de24bc3ec"
          },
          {
            "reference": "urn:uuid:76bab350-4428-4970-ba89-2a12eab4bd77"
          },
          {
            "reference": "urn:uuid:bf312989-5de4-459b-bf7d-a3a95d41380a"
          },
          {
            "reference": "urn:uuid:767846ba-69ff-4812-b39a-ae47cf26d935"
          },
          {
            "reference": "urn:uuid:4f9490c1-a506-498d-b01b-d5a58704df1f"
          },
          {
            "reference": "urn:uuid:bd31e014-4cb9-4e20-a2aa-290871c390a8"
          },
          {
            "reference": "urn:uuid:95351594-82b7-4fa5-8a33-74ff81e54211"
          },
          {
            "reference": "urn:uuid:64b9a2bc-2917-46be-b205-b7ae28364cd5"
          },
          {
            "reference": "urn:uuid:b067792d-54a7-40a0-b462-fe9391db6407"
          },
          {
            "reference": "urn:uuid:7e6ea5a2-20a2-47b3-97d1-e8ef821ce45b"
          },
          {
            "reference": "urn:uuid:36cb14ce-44e4-4207-8447-b5c0d1192037"
          },
          {
            "reference": "urn:uuid:69423f64-4b6f-4f35-a6aa-0c759e05a53a"
          }
        ],
        "status": "registered",
        "code": {
          "coding": [
            {
              "code": "11502-2",
              "system": "http://loinc.org",
              "display": "Laboratory report"
            }
          ]
        },
        "subject": {
          "reference": "urn:uuid:56856fac-d115-4b82-92bb-0c95384aef5f",
          "display": "Θεμιστοκλής Λιναρδάκη"
        }
      }
    },
    {
      "fullUrl": "urn:uuid:56856fac-d115-4b82-92bb-0c95384aef5f",
      "resource": {
        "resourceType": "Patient",
        "id": "56856fac-d115-4b82-92bb-0c95384aef5f",
        "meta": {
          "security": [
            {
              "system": "http://terminology.hl7.org/CodeSystem/v3-ActReason",
              "code": "HTEST"
            },
            {
              "system": "http://terminology.hl7.org/CodeSystem/v3-ActReason",
              "code": "TRAIN"
            }
          ],
          "tag": [
            {
              "system": "https://synderai.net/fhir/CodeSystem/tags",
              "code": "synthetic",
              "display": "SYNDERAI Synthetic data"
            }
          ],
          "profile": [
            "http://hl7.eu/fhir/base/StructureDefinition/patient-eu-core"
          ]
        },
        "identifier": [
          {
            "type": {
              "coding": [
                {
                  "code": "PT",
                  "system": "http://terminology.hl7.org/CodeSystem/v2-0203"
                }
              ]
            },
            "system": "http://ec.europa.eu/identifier/eci",
            "value": "5962-476889-7"
          },
          {
            "type": {
              "coding": [
                {
                  "code": "MR",
                  "system": "http://terminology.hl7.org/CodeSystem/v2-0203"
                }
              ]
            },
            "system": "http://local.setting.eu/identifier",
            "value": "925e2603-2ef9-6bdf-1330-2ebf526636c4"
          }
        ],
        "name": [
          {
            "family": "Λιναρδάκη"
          },
          {
            "given": [
              "Θεμιστοκλής"
            ]
          },
          {
            "text": "Θεμιστοκλής Λιναρδάκη"
          }
        ],
        "address": [
          {
            "line": [
              "Αμαρύνθου 54-58"
            ],
            "use": "home",
            "type": "physical",
            "postalCode": "262 21",
            "city": "Πάτρα",
            "country": "Greece"
          }
        ],
        "telecom": [
          {
            "system": "phone",
            "value": "+302226364480"
          }
        ],
        "extension": [
          {
            "url": "http://hl7.org/fhir/StructureDefinition/patient-nationality",
            "valueCodeableConcept": {
              "coding": [
                {
                  "code": "GR",
                  "system": "http://hl7.org/fhir/ValueSet/country"
                }
              ]
            }
          }
        ],
        "text": {
          "status": "generated",
          "div": "<div xmlns=\"http://www.w3.org/1999/xhtml\"><table class=\"hl7__ips\"><tr><td>Θεμιστοκλής Λιναρδάκη</td><td>male</td><td>21-Jan-1974</td></tr></table></div>"
        },
        "gender": "male",
        "birthDate": "1974-01-21"
      }
    },
    {
      "fullUrl": "urn:uuid:bc74b8c7-f090-4dcf-88c5-32a1a10afe3a",
      "resource": {
        "resourceType": "ServiceRequest",
        "id": "bc74b8c7-f090-4dcf-88c5-32a1a10afe3a",
        "meta": {
          "profile": [
            "http://hl7.eu/fhir/laboratory/StructureDefinition/ServiceRequest-eu-lab"
          ]
        },
        "identifier": [
          {
            "system": "http://example.org",
            "value": "0026a3af-817a-4d74-bc85-4243b162fc23"
          }
        ],
        "specimen": [
          {
            "reference": "urn:uuid:2ede45aa-72c5-411f-bb2e-0d88c8d16340"
          },
          {
            "reference": "urn:uuid:78486f7b-adba-43e3-b3eb-5390ff665fcc"
          },
          {
            "reference": "urn:uuid:d631ac9a-fdb4-466a-ab84-019d9006d583"
          }
        ],
        "reasonCode": [
          {
            "coding": [
              {
                "code": "237602007",
                "system": "http://snomed.info/sct",
                "display": "Metabolic syndrome X"
              }
            ]
          },
          {
            "coding": [
              {
                "code": "433144002",
                "system": "http://snomed.info/sct",
                "display": "Chronic kidney disease stage 3"
              }
            ]
          },
          {
            "coding": [
              {
                "code": "157141000119108",
                "system": "http://snomed.info/sct",
                "display": "Proteinuria due to type 2 diabetes mellitus"
              }
            ]
          },
          {
            "coding": [
              {
                "code": "431856006",
                "system": "http://snomed.info/sct",
                "display": "Chronic kidney disease stage 2"
              }
            ]
          },
          {
            "coding": [
              {
                "code": "90781000119102",
                "system": "http://snomed.info/sct",
                "display": "Microalbuminuria due to type 2 diabetes mellitus"
              }
            ]
          },
          {
            "coding": [
              {
                "code": "127013003",
                "system": "http://snomed.info/sct",
                "display": "Disorder of kidney due to diabetes mellitus"
              }
            ]
          },
          {
            "coding": [
              {
                "code": "431855005",
                "system": "http://snomed.info/sct",
                "display": "Chronic kidney disease stage 1"
              }
            ]
          },
          {
            "coding": [
              {
                "code": "59621000",
                "system": "http://snomed.info/sct",
                "display": "Essential hypertension"
              }
            ]
          },
          {
            "coding": [
              {
                "code": "15777000",
                "system": "http://snomed.info/sct",
                "display": "Prediabetes"
              }
            ]
          },
          {
            "coding": [
              {
                "code": "271737000",
                "system": "http://snomed.info/sct",
                "display": "Anemia"
              }
            ]
          }
        ],
        "status": "active",
        "intent": "order",
        "code": {
          "coding": [
            {
              "code": "108252007",
              "system": "http://snomed.info/sct",
              "display": "Laboratory procedure"
            }
          ]
        },
        "subject": {
          "reference": "urn:uuid:56856fac-d115-4b82-92bb-0c95384aef5f",
          "display": "Θεμιστοκλής Λιναρδάκη"
        },
        "requester": {
          "reference": "urn:uuid:a9ec6b6e-c0dd-4a94-8ab0-c3b62363d2ce"
        }
      }
    },
    {
      "fullUrl": "urn:uuid:a9ec6b6e-c0dd-4a94-8ab0-c3b62363d2ce",
      "resource": {
        "resourceType": "PractitionerRole",
        "id": "a9ec6b6e-c0dd-4a94-8ab0-c3b62363d2ce",
        "meta": {
          "profile": [
            "http://hl7.eu/fhir/base/StructureDefinition/practitionerRole-eu"
          ]
        },
        "text": {
          "status": "generated",
          "div": "<div xmlns=\"http://www.w3.org/1999/xhtml\">Provider Role Id: a9ec6b6e-c0dd-4a94-8ab0-c3b62363d2ce</div>"
        },
        "organization": {
          "reference": "urn:uuid:d1c5b359-a03a-4ac6-bf5e-94e51eaac5b1"
        }
      }
    },
    {
      "fullUrl": "urn:uuid:d1c5b359-a03a-4ac6-bf5e-94e51eaac5b1",
      "resource": {
        "resourceType": "Organization",
        "id": "d1c5b359-a03a-4ac6-bf5e-94e51eaac5b1",
        "meta": {
          "profile": [
            "http://hl7.eu/fhir/base/StructureDefinition/organization-eu"
          ]
        },
        "identifier": [
          {
            "assigner": {
              "display": "HL7 Europe"
            },
            "system": "urn:oid:2.16.840.1.113883.2.51.999",
            "value": "f499b3f6-e410-430e-8937-ea309aaace64"
          }
        ],
        "address": [
          {
            "line": [
              "211 Odós Filellinon"
            ],
            "city": "Patras",
            "postalCode": "262 21",
            "country": "Greece"
          }
        ],
        "text": {
          "status": "generated",
          "div": "<div xmlns=\"http://www.w3.org/1999/xhtml\">Provider Organization: Dr. Dimitris Economou</div>"
        },
        "name": "Dr. Dimitris Economou"
      }
    },
    {
      "fullUrl": "urn:uuid:2ede45aa-72c5-411f-bb2e-0d88c8d16340",
      "resource": {
        "resourceType": "Specimen",
        "id": "2ede45aa-72c5-411f-bb2e-0d88c8d16340",
        "meta": {
          "profile": [
            "http://hl7.eu/fhir/laboratory/StructureDefinition/Specimen-eu-lab"
          ]
        },
        "collection": {
          "collectedDateTime": "2019-02-20"
        },
        "text": {
          "status": "generated",
          "div": "<div xmlns=\"http://www.w3.org/1999/xhtml\"><table class=\"hl7__eu__lab__report\"><tr><th>Specimen</th><th>Collection Date</th></tr><tr><td>Acellular blood (serum or plasma) specimen</td><td><span class=\"nb\">20-Feb-2019</span></td></tr></table></div>"
        },
        "type": {
          "coding": [
            {
              "code": "122592007",
              "system": "http://snomed.info/sct",
              "display": "Acellular blood (serum or plasma) specimen"
            }
          ]
        }
      }
    },
    {
      "fullUrl": "urn:uuid:78486f7b-adba-43e3-b3eb-5390ff665fcc",
      "resource": {
        "resourceType": "Specimen",
        "id": "78486f7b-adba-43e3-b3eb-5390ff665fcc",
        "meta": {
          "profile": [
            "http://hl7.eu/fhir/laboratory/StructureDefinition/Specimen-eu-lab"
          ]
        },
        "collection": {
          "collectedDateTime": "2019-02-20"
        },
        "text": {
          "status": "generated",
          "div": "<div xmlns=\"http://www.w3.org/1999/xhtml\"><table class=\"hl7__eu__lab__report\"><tr><th>Specimen</th><th>Collection Date</th></tr><tr><td>Urine specimen</td><td><span class=\"nb\">20-Feb-2019</span></td></tr></table></div>"
        },
        "type": {
          "coding": [
            {
              "code": "122575003",
              "system": "http://snomed.info/sct",
              "display": "Urine specimen"
            }
          ]
        }
      }
    },
    {
      "fullUrl": "urn:uuid:d631ac9a-fdb4-466a-ab84-019d9006d583",
      "resource": {
        "resourceType": "Specimen",
        "id": "d631ac9a-fdb4-466a-ab84-019d9006d583",
        "meta": {
          "profile": [
            "http://hl7.eu/fhir/laboratory/StructureDefinition/Specimen-eu-lab"
          ]
        },
        "collection": {
          "collectedDateTime": "2019-02-20"
        },
        "text": {
          "status": "generated",
          "div": "<div xmlns=\"http://www.w3.org/1999/xhtml\"><table class=\"hl7__eu__lab__report\"><tr><th>Specimen</th><th>Collection Date</th></tr><tr><td>Whole blood specimen (specimen)</td><td><span class=\"nb\">20-Feb-2019</span></td></tr></table></div>"
        },
        "type": {
          "coding": [
            {
              "code": "258580003",
              "system": "http://snomed.info/sct",
              "display": "Whole blood specimen (specimen)"
            }
          ]
        }
      }
    },
    {
      "fullUrl": "urn:uuid:e24cd312-3f32-424f-ab56-ab4832284fff",
      "resource": {
        "resourceType": "Observation",
        "id": "e24cd312-3f32-424f-ab56-ab4832284fff",
        "meta": {
          "profile": [
            "http://hl7.eu/fhir/laboratory/StructureDefinition/Observation-resultslab-eu-lab"
          ]
        },
        "performer": [
          {
            "display": "The Central European Lab"
          }
        ],
        "category": [
          {
            "coding": [
              {
                "system": "http://terminology.hl7.org/CodeSystem/observation-category",
                "code": "laboratory"
              }
            ]
          }
        ],
        "code": {
          "coding": [
            {
              "code": "2345-7",
              "system": "http://loinc.org",
              "display": "Glucose [Mass/volume] in Serum or Plasma"
            }
          ],
          "text": "Glucose [Mass/volume] in Serum or Plasma"
        },
        "valueQuantity": {
          "system": "http://unitsofmeasure.org",
          "value": 80.2,
          "unit": "mg/dL",
          "code": "mg/dL"
        },
        "referenceRange": [
          {
            "low": {
              "value": 70,
              "code": "mg/dL",
              "system": "http://unitsofmeasure.org"
            }
          },
          {
            "high": {
              "value": 140,
              "code": "mg/dL",
              "system": "http://unitsofmeasure.org"
            }
          }
        ],
        "text": {
          "status": "generated",
          "div": "<div xmlns=\"http://www.w3.org/1999/xhtml\"><table class=\"hl7__eu__lab__report\"><tr><th>Test</th><th>20-Feb-2019</th><th>Reference&#xA0;Range</th><th>Unit</th></tr><tr><td>Glucose [Mass/volume] in Serum or Plasma</td><td>80.2</td><td>70 - 140</td><td></td><td>mg/dL</td></tr></table></div>"
        },
        "status": "final",
        "subject": {
          "reference": "urn:uuid:56856fac-d115-4b82-92bb-0c95384aef5f",
          "display": "Θεμιστοκλής Λιναρδάκη"
        },
        "effectiveDateTime": "2019-02-20T06:16:00Z",
        "specimen": {
          "reference": "urn:uuid:2ede45aa-72c5-411f-bb2e-0d88c8d16340"
        }
      }
    },
    {
      "fullUrl": "urn:uuid:964e552e-e1b0-490f-b998-546845ce18b2",
      "resource": {
        "resourceType": "Observation",
        "id": "964e552e-e1b0-490f-b998-546845ce18b2",
        "meta": {
          "profile": [
            "http://hl7.eu/fhir/laboratory/StructureDefinition/Observation-resultslab-eu-lab"
          ]
        },
        "performer": [
          {
            "display": "The Central European Lab"
          }
        ],
        "category": [
          {
            "coding": [
              {
                "system": "http://terminology.hl7.org/CodeSystem/observation-category",
                "code": "laboratory"
              }
            ]
          }
        ],
        "code": {
          "coding": [
            {
              "code": "3094-0",
              "system": "http://loinc.org",
              "display": "Urea nitrogen [Mass/volume] in Serum or Plasma"
            }
          ],
          "text": "Urea nitrogen [Mass/volume] in Serum or Plasma"
        },
        "valueQuantity": {
          "system": "http://unitsofmeasure.org",
          "value": 9.1,
          "unit": "mg/dL",
          "code": "mg/dL"
        },
        "referenceRange": [
          {
            "low": {
              "value": 7,
              "code": "mg/dL",
              "system": "http://unitsofmeasure.org"
            }
          },
          {
            "high": {
              "value": 20,
              "code": "mg/dL",
              "system": "http://unitsofmeasure.org"
            }
          }
        ],
        "text": {
          "status": "generated",
          "div": "<div xmlns=\"http://www.w3.org/1999/xhtml\"><table class=\"hl7__eu__lab__report\"><tr><th>Test</th><th>20-Feb-2019</th><th>Reference&#xA0;Range</th><th>Unit</th></tr><tr><td>Urea nitrogen [Mass/volume] in Serum or Plasma</td><td>9.1</td><td>7 - 20</td><td></td><td>mg/dL</td></tr></table></div>"
        },
        "status": "final",
        "subject": {
          "reference": "urn:uuid:56856fac-d115-4b82-92bb-0c95384aef5f",
          "display": "Θεμιστοκλής Λιναρδάκη"
        },
        "effectiveDateTime": "2019-02-20T06:16:00Z",
        "specimen": {
          "reference": "urn:uuid:2ede45aa-72c5-411f-bb2e-0d88c8d16340"
        }
      }
    },
    {
      "fullUrl": "urn:uuid:36d615ec-02fc-4ab3-8c3a-ef5ba0a76f78",
      "resource": {
        "resourceType": "Observation",
        "id": "36d615ec-02fc-4ab3-8c3a-ef5ba0a76f78",
        "meta": {
          "profile": [
            "http://hl7.eu/fhir/laboratory/StructureDefinition/Observation-resultslab-eu-lab"
          ]
        },
        "performer": [
          {
            "display": "The Central European Lab"
          }
        ],
        "category": [
          {
            "coding": [
              {
                "system": "http://terminology.hl7.org/CodeSystem/observation-category",
                "code": "laboratory"
              }
            ]
          }
        ],
        "code": {
          "coding": [
            {
              "code": "2160-0",
              "system": "http://loinc.org",
              "display": "Creatinine [Mass/volume] in Serum or Plasma"
            }
          ],
          "text": "Creatinine [Mass/volume] in Serum or Plasma"
        },
        "valueQuantity": {
          "system": "http://unitsofmeasure.org",
          "value": 2,
          "unit": "mg/dL",
          "code": "mg/dL"
        },
        "referenceRange": [
          {
            "low": {
              "value": 0.9,
              "code": "mg/dL",
              "system": "http://unitsofmeasure.org"
            }
          },
          {
            "high": {
              "value": 1.3,
              "code": "mg/dL",
              "system": "http://unitsofmeasure.org"
            }
          }
        ],
        "interpretation": [
          {
            "coding": [
              {
                "code": "H",
                "system": "http://terminology.hl7.org/CodeSystem/v3-ObservationInterpretation",
                "display": "High"
              }
            ]
          }
        ],
        "text": {
          "status": "generated",
          "div": "<div xmlns=\"http://www.w3.org/1999/xhtml\"><table class=\"hl7__eu__lab__report\"><tr><th>Test</th><th>20-Feb-2019</th><th>Reference&#xA0;Range</th><th>Unit</th></tr><tr><td>Creatinine [Mass/volume] in Serum or Plasma</td><td>2.0</td><td>0.9 - 1.3</td><td>H</td><td>mg/dL</td></tr></table></div>"
        },
        "status": "final",
        "subject": {
          "reference": "urn:uuid:56856fac-d115-4b82-92bb-0c95384aef5f",
          "display": "Θεμιστοκλής Λιναρδάκη"
        },
        "effectiveDateTime": "2019-02-20T06:16:00Z",
        "specimen": {
          "reference": "urn:uuid:2ede45aa-72c5-411f-bb2e-0d88c8d16340"
        }
      }
    },
    {
      "fullUrl": "urn:uuid:16a8b83f-b7f1-4e5d-9607-14cfd4ae76e3",
      "resource": {
        "resourceType": "Observation",
        "id": "16a8b83f-b7f1-4e5d-9607-14cfd4ae76e3",
        "meta": {
          "profile": [
            "http://hl7.eu/fhir/laboratory/StructureDefinition/Observation-resultslab-eu-lab"
          ]
        },
        "performer": [
          {
            "display": "The Central European Lab"
          }
        ],
        "category": [
          {
            "coding": [
              {
                "system": "http://terminology.hl7.org/CodeSystem/observation-category",
                "code": "laboratory"
              }
            ]
          }
        ],
        "code": {
          "coding": [
            {
              "code": "17861-6",
              "system": "http://loinc.org",
              "display": "Calcium [Mass/volume] in Serum or Plasma"
            }
          ],
          "text": "Calcium [Mass/volume] in Serum or Plasma"
        },
        "valueQuantity": {
          "system": "http://unitsofmeasure.org",
          "value": 8.9,
          "unit": "mg/dL",
          "code": "mg/dL"
        },
        "referenceRange": [
          {
            "low": {
              "value": 8.5,
              "code": "mg/dL",
              "system": "http://unitsofmeasure.org"
            }
          },
          {
            "high": {
              "value": 10.5,
              "code": "mg/dL",
              "system": "http://unitsofmeasure.org"
            }
          }
        ],
        "text": {
          "status": "generated",
          "div": "<div xmlns=\"http://www.w3.org/1999/xhtml\"><table class=\"hl7__eu__lab__report\"><tr><th>Test</th><th>20-Feb-2019</th><th>Reference&#xA0;Range</th><th>Unit</th></tr><tr><td>Calcium [Mass/volume] in Serum or Plasma</td><td>8.9</td><td>8.5 - 10.5</td><td></td><td>mg/dL</td></tr></table></div>"
        },
        "status": "final",
        "subject": {
          "reference": "urn:uuid:56856fac-d115-4b82-92bb-0c95384aef5f",
          "display": "Θεμιστοκλής Λιναρδάκη"
        },
        "effectiveDateTime": "2019-02-20T06:16:00Z",
        "specimen": {
          "reference": "urn:uuid:2ede45aa-72c5-411f-bb2e-0d88c8d16340"
        }
      }
    },
    {
      "fullUrl": "urn:uuid:170ca8b8-3a49-4cb7-897e-cc741f7dd365",
      "resource": {
        "resourceType": "Observation",
        "id": "170ca8b8-3a49-4cb7-897e-cc741f7dd365",
        "meta": {
          "profile": [
            "http://hl7.eu/fhir/laboratory/StructureDefinition/Observation-resultslab-eu-lab"
          ]
        },
        "performer": [
          {
            "display": "The Central European Lab"
          }
        ],
        "category": [
          {
            "coding": [
              {
                "system": "http://terminology.hl7.org/CodeSystem/observation-category",
                "code": "laboratory"
              }
            ]
          }
        ],
        "code": {
          "coding": [
            {
              "code": "2951-2",
              "system": "http://loinc.org",
              "display": "Sodium [Moles/volume] in Serum or Plasma"
            }
          ],
          "text": "Sodium [Moles/volume] in Serum or Plasma"
        },
        "valueQuantity": {
          "system": "http://unitsofmeasure.org",
          "value": 136.6,
          "unit": "mmol/L",
          "code": "mmol/L"
        },
        "referenceRange": [
          {
            "low": {
              "value": 135,
              "code": "mmol/L",
              "system": "http://unitsofmeasure.org"
            }
          },
          {
            "high": {
              "value": 145,
              "code": "mmol/L",
              "system": "http://unitsofmeasure.org"
            }
          }
        ],
        "text": {
          "status": "generated",
          "div": "<div xmlns=\"http://www.w3.org/1999/xhtml\"><table class=\"hl7__eu__lab__report\"><tr><th>Test</th><th>20-Feb-2019</th><th>Reference&#xA0;Range</th><th>Unit</th></tr><tr><td>Sodium [Moles/volume] in Serum or Plasma</td><td>136.6</td><td>135 - 145</td><td></td><td>mmol/L</td></tr></table></div>"
        },
        "status": "final",
        "subject": {
          "reference": "urn:uuid:56856fac-d115-4b82-92bb-0c95384aef5f",
          "display": "Θεμιστοκλής Λιναρδάκη"
        },
        "effectiveDateTime": "2019-02-20T06:16:00Z",
        "specimen": {
          "reference": "urn:uuid:2ede45aa-72c5-411f-bb2e-0d88c8d16340"
        }
      }
    },
    {
      "fullUrl": "urn:uuid:40afcc21-8e8e-4f93-ae69-2588772be401",
      "resource": {
        "resourceType": "Observation",
        "id": "40afcc21-8e8e-4f93-ae69-2588772be401",
        "meta": {
          "profile": [
            "http://hl7.eu/fhir/laboratory/StructureDefinition/Observation-resultslab-eu-lab"
          ]
        },
        "performer": [
          {
            "display": "The Central European Lab"
          }
        ],
        "category": [
          {
            "coding": [
              {
                "system": "http://terminology.hl7.org/CodeSystem/observation-category",
                "code": "laboratory"
              }
            ]
          }
        ],
        "code": {
          "coding": [
            {
              "code": "2823-3",
              "system": "http://loinc.org",
              "display": "Potassium [Moles/volume] in Serum or Plasma"
            }
          ],
          "text": "Potassium [Moles/volume] in Serum or Plasma"
        },
        "valueQuantity": {
          "system": "http://unitsofmeasure.org",
          "value": 5.1,
          "unit": "mmol/L",
          "code": "mmol/L"
        },
        "referenceRange": [
          {
            "low": {
              "value": 3.5,
              "code": "mmol/L",
              "system": "http://unitsofmeasure.org"
            }
          },
          {
            "high": {
              "value": 5,
              "code": "mmol/L",
              "system": "http://unitsofmeasure.org"
            }
          }
        ],
        "interpretation": [
          {
            "coding": [
              {
                "code": "H",
                "system": "http://terminology.hl7.org/CodeSystem/v3-ObservationInterpretation",
                "display": "High"
              }
            ]
          }
        ],
        "text": {
          "status": "generated",
          "div": "<div xmlns=\"http://www.w3.org/1999/xhtml\"><table class=\"hl7__eu__lab__report\"><tr><th>Test</th><th>20-Feb-2019</th><th>Reference&#xA0;Range</th><th>Unit</th></tr><tr><td>Potassium [Moles/volume] in Serum or Plasma</td><td>5.1</td><td>3.5 - 5</td><td>H</td><td>mmol/L</td></tr></table></div>"
        },
        "status": "final",
        "subject": {
          "reference": "urn:uuid:56856fac-d115-4b82-92bb-0c95384aef5f",
          "display": "Θεμιστοκλής Λιναρδάκη"
        },
        "effectiveDateTime": "2019-02-20T06:16:00Z",
        "specimen": {
          "reference": "urn:uuid:2ede45aa-72c5-411f-bb2e-0d88c8d16340"
        }
      }
    },
    {
      "fullUrl": "urn:uuid:4e6ee6b4-258d-4a6e-9247-cdfdd02066c4",
      "resource": {
        "resourceType": "Observation",
        "id": "4e6ee6b4-258d-4a6e-9247-cdfdd02066c4",
        "meta": {
          "profile": [
            "http://hl7.eu/fhir/laboratory/StructureDefinition/Observation-resultslab-eu-lab"
          ]
        },
        "performer": [
          {
            "display": "The Central European Lab"
          }
        ],
        "category": [
          {
            "coding": [
              {
                "system": "http://terminology.hl7.org/CodeSystem/observation-category",
                "code": "laboratory"
              }
            ]
          }
        ],
        "code": {
          "coding": [
            {
              "code": "2075-0",
              "system": "http://loinc.org",
              "display": "Chloride [Moles/volume] in Serum or Plasma"
            }
          ],
          "text": "Chloride [Moles/volume] in Serum or Plasma"
        },
        "valueQuantity": {
          "system": "http://unitsofmeasure.org",
          "value": 104.6,
          "unit": "mmol/L",
          "code": "mmol/L"
        },
        "referenceRange": [
          {
            "low": {
              "value": 98,
              "code": "mmol/L",
              "system": "http://unitsofmeasure.org"
            }
          },
          {
            "high": {
              "value": 108,
              "code": "mmol/L",
              "system": "http://unitsofmeasure.org"
            }
          }
        ],
        "text": {
          "status": "generated",
          "div": "<div xmlns=\"http://www.w3.org/1999/xhtml\"><table class=\"hl7__eu__lab__report\"><tr><th>Test</th><th>20-Feb-2019</th><th>Reference&#xA0;Range</th><th>Unit</th></tr><tr><td>Chloride [Moles/volume] in Serum or Plasma</td><td>104.6</td><td>98 - 108</td><td></td><td>mmol/L</td></tr></table></div>"
        },
        "status": "final",
        "subject": {
          "reference": "urn:uuid:56856fac-d115-4b82-92bb-0c95384aef5f",
          "display": "Θεμιστοκλής Λιναρδάκη"
        },
        "effectiveDateTime": "2019-02-20T06:16:00Z",
        "specimen": {
          "reference": "urn:uuid:2ede45aa-72c5-411f-bb2e-0d88c8d16340"
        }
      }
    },
    {
      "fullUrl": "urn:uuid:30a98be4-a4c1-43d7-8991-95158ad13c0d",
      "resource": {
        "resourceType": "Observation",
        "id": "30a98be4-a4c1-43d7-8991-95158ad13c0d",
        "meta": {
          "profile": [
            "http://hl7.eu/fhir/laboratory/StructureDefinition/Observation-resultslab-eu-lab"
          ]
        },
        "performer": [
          {
            "display": "The Central European Lab"
          }
        ],
        "category": [
          {
            "coding": [
              {
                "system": "http://terminology.hl7.org/CodeSystem/observation-category",
                "code": "laboratory"
              }
            ]
          }
        ],
        "code": {
          "coding": [
            {
              "code": "2028-9",
              "system": "http://loinc.org",
              "display": "Carbon dioxide, total [Moles/volume] in Serum or Plasma"
            }
          ],
          "text": "Carbon dioxide, total [Moles/volume] in Serum or Plasma"
        },
        "valueQuantity": {
          "system": "http://unitsofmeasure.org",
          "value": 21.7,
          "unit": "mmol/L",
          "code": "mmol/L"
        },
        "referenceRange": [
          {
            "low": {
              "value": 22,
              "code": "mmol/L",
              "system": "http://unitsofmeasure.org"
            }
          },
          {
            "high": {
              "value": 29,
              "code": "mmol/L",
              "system": "http://unitsofmeasure.org"
            }
          }
        ],
        "interpretation": [
          {
            "coding": [
              {
                "code": "L",
                "system": "http://terminology.hl7.org/CodeSystem/v3-ObservationInterpretation",
                "display": "Low"
              }
            ]
          }
        ],
        "text": {
          "status": "generated",
          "div": "<div xmlns=\"http://www.w3.org/1999/xhtml\"><table class=\"hl7__eu__lab__report\"><tr><th>Test</th><th>20-Feb-2019</th><th>Reference&#xA0;Range</th><th>Unit</th></tr><tr><td>Carbon dioxide, total [Moles/volume] in Serum or Plasma</td><td>21.7</td><td>22 - 29</td><td>L</td><td>mmol/L</td></tr></table></div>"
        },
        "status": "final",
        "subject": {
          "reference": "urn:uuid:56856fac-d115-4b82-92bb-0c95384aef5f",
          "display": "Θεμιστοκλής Λιναρδάκη"
        },
        "effectiveDateTime": "2019-02-20T06:16:00Z",
        "specimen": {
          "reference": "urn:uuid:2ede45aa-72c5-411f-bb2e-0d88c8d16340"
        }
      }
    },
    {
      "fullUrl": "urn:uuid:a3d2d841-705d-4ad3-bd61-2749e0340a63",
      "resource": {
        "resourceType": "Observation",
        "id": "a3d2d841-705d-4ad3-bd61-2749e0340a63",
        "meta": {
          "profile": [
            "http://hl7.eu/fhir/laboratory/StructureDefinition/Observation-resultslab-eu-lab"
          ]
        },
        "performer": [
          {
            "display": "The Central European Lab"
          }
        ],
        "category": [
          {
            "coding": [
              {
                "system": "http://terminology.hl7.org/CodeSystem/observation-category",
                "code": "laboratory"
              }
            ]
          }
        ],
        "code": {
          "coding": [
            {
              "code": "5767-9",
              "system": "http://loinc.org",
              "display": "Appearance of Urine"
            }
          ],
          "text": "Appearance of Urine"
        },
        "text": {
          "status": "generated",
          "div": "<div xmlns=\"http://www.w3.org/1999/xhtml\"><table class=\"hl7__eu__lab__report\"><tr><th>Test</th><th>20-Feb-2019</th><th>Reference&#xA0;Range</th><th>Unit</th></tr><tr><td>Appearance of Urine</td></tr></table></div>"
        },
        "status": "final",
        "subject": {
          "reference": "urn:uuid:56856fac-d115-4b82-92bb-0c95384aef5f",
          "display": "Θεμιστοκλής Λιναρδάκη"
        },
        "effectiveDateTime": "2019-02-20T06:16:00Z",
        "specimen": {
          "reference": "urn:uuid:78486f7b-adba-43e3-b3eb-5390ff665fcc"
        }
      }
    },
    {
      "fullUrl": "urn:uuid:53a14327-ea38-4348-9014-028fdd00489f",
      "resource": {
        "resourceType": "Observation",
        "id": "53a14327-ea38-4348-9014-028fdd00489f",
        "meta": {
          "profile": [
            "http://hl7.eu/fhir/laboratory/StructureDefinition/Observation-resultslab-eu-lab"
          ]
        },
        "performer": [
          {
            "display": "The Central European Lab"
          }
        ],
        "category": [
          {
            "coding": [
              {
                "system": "http://terminology.hl7.org/CodeSystem/observation-category",
                "code": "laboratory"
              }
            ]
          }
        ],
        "code": {
          "coding": [
            {
              "code": "34533-0",
              "system": "http://loinc.org",
              "display": "Odor of Urine"
            }
          ],
          "text": "Odor of Urine"
        },
        "text": {
          "status": "generated",
          "div": "<div xmlns=\"http://www.w3.org/1999/xhtml\"><table class=\"hl7__eu__lab__report\"><tr><th>Test</th><th>20-Feb-2019</th><th>Reference&#xA0;Range</th><th>Unit</th></tr><tr><td>Odor of Urine</td></tr></table></div>"
        },
        "status": "final",
        "subject": {
          "reference": "urn:uuid:56856fac-d115-4b82-92bb-0c95384aef5f",
          "display": "Θεμιστοκλής Λιναρδάκη"
        },
        "effectiveDateTime": "2019-02-20T06:16:00Z",
        "specimen": {
          "reference": "urn:uuid:78486f7b-adba-43e3-b3eb-5390ff665fcc"
        }
      }
    },
    {
      "fullUrl": "urn:uuid:324abc93-8138-40bc-a13c-f774d85b2fdd",
      "resource": {
        "resourceType": "Observation",
        "id": "324abc93-8138-40bc-a13c-f774d85b2fdd",
        "meta": {
          "profile": [
            "http://hl7.eu/fhir/laboratory/StructureDefinition/Observation-resultslab-eu-lab"
          ]
        },
        "performer": [
          {
            "display": "The Central European Lab"
          }
        ],
        "category": [
          {
            "coding": [
              {
                "system": "http://terminology.hl7.org/CodeSystem/observation-category",
                "code": "laboratory"
              }
            ]
          }
        ],
        "code": {
          "coding": [
            {
              "code": "32167-9",
              "system": "http://loinc.org",
              "display": "Clarity of Urine"
            }
          ],
          "text": "Clarity of Urine"
        },
        "text": {
          "status": "generated",
          "div": "<div xmlns=\"http://www.w3.org/1999/xhtml\"><table class=\"hl7__eu__lab__report\"><tr><th>Test</th><th>20-Feb-2019</th><th>Reference&#xA0;Range</th><th>Unit</th></tr><tr><td>Clarity of Urine</td></tr></table></div>"
        },
        "status": "final",
        "subject": {
          "reference": "urn:uuid:56856fac-d115-4b82-92bb-0c95384aef5f",
          "display": "Θεμιστοκλής Λιναρδάκη"
        },
        "effectiveDateTime": "2019-02-20T06:16:00Z",
        "specimen": {
          "reference": "urn:uuid:78486f7b-adba-43e3-b3eb-5390ff665fcc"
        }
      }
    },
    {
      "fullUrl": "urn:uuid:ad606a09-5e50-4ef0-8dd9-0c857aac0341",
      "resource": {
        "resourceType": "Observation",
        "id": "ad606a09-5e50-4ef0-8dd9-0c857aac0341",
        "meta": {
          "profile": [
            "http://hl7.eu/fhir/laboratory/StructureDefinition/Observation-resultslab-eu-lab"
          ]
        },
        "performer": [
          {
            "display": "The Central European Lab"
          }
        ],
        "category": [
          {
            "coding": [
              {
                "system": "http://terminology.hl7.org/CodeSystem/observation-category",
                "code": "laboratory"
              }
            ]
          }
        ],
        "code": {
          "coding": [
            {
              "code": "5778-6",
              "system": "http://loinc.org",
              "display": "Color of Urine"
            }
          ],
          "text": "Color of Urine"
        },
        "text": {
          "status": "generated",
          "div": "<div xmlns=\"http://www.w3.org/1999/xhtml\"><table class=\"hl7__eu__lab__report\"><tr><th>Test</th><th>20-Feb-2019</th><th>Reference&#xA0;Range</th><th>Unit</th></tr><tr><td>Color of Urine</td></tr></table></div>"
        },
        "status": "final",
        "subject": {
          "reference": "urn:uuid:56856fac-d115-4b82-92bb-0c95384aef5f",
          "display": "Θεμιστοκλής Λιναρδάκη"
        },
        "effectiveDateTime": "2019-02-20T06:16:00Z",
        "specimen": {
          "reference": "urn:uuid:78486f7b-adba-43e3-b3eb-5390ff665fcc"
        }
      }
    },
    {
      "fullUrl": "urn:uuid:f149d8e5-af3a-4156-9949-97be61c22920",
      "resource": {
        "resourceType": "Observation",
        "id": "f149d8e5-af3a-4156-9949-97be61c22920",
        "meta": {
          "profile": [
            "http://hl7.eu/fhir/laboratory/StructureDefinition/Observation-resultslab-eu-lab"
          ]
        },
        "performer": [
          {
            "display": "The Central European Lab"
          }
        ],
        "category": [
          {
            "coding": [
              {
                "system": "http://terminology.hl7.org/CodeSystem/observation-category",
                "code": "laboratory"
              }
            ]
          }
        ],
        "code": {
          "coding": [
            {
              "code": "5792-7",
              "system": "http://loinc.org",
              "display": "Glucose [Mass/volume] in Urine by Test strip"
            }
          ],
          "text": "Glucose [Mass/volume] in Urine by Test strip"
        },
        "valueQuantity": {
          "system": "http://unitsofmeasure.org",
          "value": 1.3,
          "unit": "mg/dL",
          "code": "mg/dL"
        },
        "referenceRange": [
          {
            "low": {
              "value": 0,
              "code": "mg/dL",
              "system": "http://unitsofmeasure.org"
            }
          },
          {
            "high": {
              "value": 0.8,
              "code": "mg/dL",
              "system": "http://unitsofmeasure.org"
            }
          }
        ],
        "interpretation": [
          {
            "coding": [
              {
                "code": "H",
                "system": "http://terminology.hl7.org/CodeSystem/v3-ObservationInterpretation",
                "display": "High"
              }
            ]
          }
        ],
        "text": {
          "status": "generated",
          "div": "<div xmlns=\"http://www.w3.org/1999/xhtml\"><table class=\"hl7__eu__lab__report\"><tr><th>Test</th><th>20-Feb-2019</th><th>Reference&#xA0;Range</th><th>Unit</th></tr><tr><td>Glucose [Mass/volume] in Urine by Test strip</td><td>1.3</td><td>0 - 0.8</td><td>H</td><td>mg/dL</td></tr></table></div>"
        },
        "status": "final",
        "subject": {
          "reference": "urn:uuid:56856fac-d115-4b82-92bb-0c95384aef5f",
          "display": "Θεμιστοκλής Λιναρδάκη"
        },
        "effectiveDateTime": "2019-02-20T06:16:00Z",
        "specimen": {
          "reference": "urn:uuid:78486f7b-adba-43e3-b3eb-5390ff665fcc"
        }
      }
    },
    {
      "fullUrl": "urn:uuid:8cfdc4e6-29bd-4a60-9e2b-3551f9552375",
      "resource": {
        "resourceType": "Observation",
        "id": "8cfdc4e6-29bd-4a60-9e2b-3551f9552375",
        "meta": {
          "profile": [
            "http://hl7.eu/fhir/laboratory/StructureDefinition/Observation-resultslab-eu-lab"
          ]
        },
        "performer": [
          {
            "display": "The Central European Lab"
          }
        ],
        "category": [
          {
            "coding": [
              {
                "system": "http://terminology.hl7.org/CodeSystem/observation-category",
                "code": "laboratory"
              }
            ]
          }
        ],
        "code": {
          "coding": [
            {
              "code": "25428-4",
              "system": "http://loinc.org",
              "display": "Glucose [Presence] in Urine by Test strip"
            }
          ],
          "text": "Glucose [Presence] in Urine by Test strip"
        },
        "text": {
          "status": "generated",
          "div": "<div xmlns=\"http://www.w3.org/1999/xhtml\"><table class=\"hl7__eu__lab__report\"><tr><th>Test</th><th>20-Feb-2019</th><th>Reference&#xA0;Range</th><th>Unit</th></tr><tr><td>Glucose [Presence] in Urine by Test strip</td></tr></table></div>"
        },
        "status": "final",
        "subject": {
          "reference": "urn:uuid:56856fac-d115-4b82-92bb-0c95384aef5f",
          "display": "Θεμιστοκλής Λιναρδάκη"
        },
        "effectiveDateTime": "2019-02-20T06:16:00Z",
        "specimen": {
          "reference": "urn:uuid:78486f7b-adba-43e3-b3eb-5390ff665fcc"
        }
      }
    },
    {
      "fullUrl": "urn:uuid:a5d2142b-06d2-474e-a82e-3d4de24bc3ec",
      "resource": {
        "resourceType": "Observation",
        "id": "a5d2142b-06d2-474e-a82e-3d4de24bc3ec",
        "meta": {
          "profile": [
            "http://hl7.eu/fhir/laboratory/StructureDefinition/Observation-resultslab-eu-lab"
          ]
        },
        "performer": [
          {
            "display": "The Central European Lab"
          }
        ],
        "category": [
          {
            "coding": [
              {
                "system": "http://terminology.hl7.org/CodeSystem/observation-category",
                "code": "laboratory"
              }
            ]
          }
        ],
        "code": {
          "coding": [
            {
              "code": "20505-4",
              "system": "http://loinc.org",
              "display": "Bilirubin.total [Mass/volume] in Urine by Test strip"
            }
          ],
          "text": "Bilirubin.total [Mass/volume] in Urine by Test strip"
        },
        "valueQuantity": {
          "system": "http://unitsofmeasure.org",
          "value": 0.5,
          "unit": "mg/dL",
          "code": "mg/dL"
        },
        "referenceRange": [
          {
            "low": {
              "value": 0.2,
              "code": "mg/dL",
              "system": "http://unitsofmeasure.org"
            }
          },
          {
            "high": {
              "value": 1,
              "code": "mg/dL",
              "system": "http://unitsofmeasure.org"
            }
          }
        ],
        "text": {
          "status": "generated",
          "div": "<div xmlns=\"http://www.w3.org/1999/xhtml\"><table class=\"hl7__eu__lab__report\"><tr><th>Test</th><th>20-Feb-2019</th><th>Reference&#xA0;Range</th><th>Unit</th></tr><tr><td>Bilirubin.total [Mass/volume] in Urine by Test strip</td><td>0.5</td><td>0.2 - 1</td><td></td><td>mg/dL</td></tr></table></div>"
        },
        "status": "final",
        "subject": {
          "reference": "urn:uuid:56856fac-d115-4b82-92bb-0c95384aef5f",
          "display": "Θεμιστοκλής Λιναρδάκη"
        },
        "effectiveDateTime": "2019-02-20T06:16:00Z",
        "specimen": {
          "reference": "urn:uuid:78486f7b-adba-43e3-b3eb-5390ff665fcc"
        }
      }
    },
    {
      "fullUrl": "urn:uuid:76bab350-4428-4970-ba89-2a12eab4bd77",
      "resource": {
        "resourceType": "Observation",
        "id": "76bab350-4428-4970-ba89-2a12eab4bd77",
        "meta": {
          "profile": [
            "http://hl7.eu/fhir/laboratory/StructureDefinition/Observation-resultslab-eu-lab"
          ]
        },
        "performer": [
          {
            "display": "The Central European Lab"
          }
        ],
        "category": [
          {
            "coding": [
              {
                "system": "http://terminology.hl7.org/CodeSystem/observation-category",
                "code": "laboratory"
              }
            ]
          }
        ],
        "code": {
          "coding": [
            {
              "code": "5770-3",
              "system": "http://loinc.org",
              "display": "Bilirubin.total [Presence] in Urine by Test strip"
            }
          ],
          "text": "Bilirubin.total [Presence] in Urine by Test strip"
        },
        "text": {
          "status": "generated",
          "div": "<div xmlns=\"http://www.w3.org/1999/xhtml\"><table class=\"hl7__eu__lab__report\"><tr><th>Test</th><th>20-Feb-2019</th><th>Reference&#xA0;Range</th><th>Unit</th></tr><tr><td>Bilirubin.total [Presence] in Urine by Test strip</td></tr></table></div>"
        },
        "status": "final",
        "subject": {
          "reference": "urn:uuid:56856fac-d115-4b82-92bb-0c95384aef5f",
          "display": "Θεμιστοκλής Λιναρδάκη"
        },
        "effectiveDateTime": "2019-02-20T06:16:00Z",
        "specimen": {
          "reference": "urn:uuid:78486f7b-adba-43e3-b3eb-5390ff665fcc"
        }
      }
    },
    {
      "fullUrl": "urn:uuid:bf312989-5de4-459b-bf7d-a3a95d41380a",
      "resource": {
        "resourceType": "Observation",
        "id": "bf312989-5de4-459b-bf7d-a3a95d41380a",
        "meta": {
          "profile": [
            "http://hl7.eu/fhir/laboratory/StructureDefinition/Observation-resultslab-eu-lab"
          ]
        },
        "performer": [
          {
            "display": "The Central European Lab"
          }
        ],
        "category": [
          {
            "coding": [
              {
                "system": "http://terminology.hl7.org/CodeSystem/observation-category",
                "code": "laboratory"
              }
            ]
          }
        ],
        "code": {
          "coding": [
            {
              "code": "5797-6",
              "system": "http://loinc.org",
              "display": "Ketones [Mass/volume] in Urine by Test strip"
            }
          ],
          "text": "Ketones [Mass/volume] in Urine by Test strip"
        },
        "valueQuantity": {
          "system": "http://unitsofmeasure.org",
          "value": 8.8,
          "unit": "mg/dL",
          "code": "mg/dL"
        },
        "referenceRange": [
          {
            "low": {
              "value": 0,
              "code": "mg/dL",
              "system": "http://unitsofmeasure.org"
            }
          },
          {
            "high": {
              "value": 5,
              "code": "mg/dL",
              "system": "http://unitsofmeasure.org"
            }
          }
        ],
        "interpretation": [
          {
            "coding": [
              {
                "code": "H",
                "system": "http://terminology.hl7.org/CodeSystem/v3-ObservationInterpretation",
                "display": "High"
              }
            ]
          }
        ],
        "text": {
          "status": "generated",
          "div": "<div xmlns=\"http://www.w3.org/1999/xhtml\"><table class=\"hl7__eu__lab__report\"><tr><th>Test</th><th>20-Feb-2019</th><th>Reference&#xA0;Range</th><th>Unit</th></tr><tr><td>Ketones [Mass/volume] in Urine by Test strip</td><td>8.8</td><td>0 - 5</td><td>H</td><td>mg/dL</td></tr></table></div>"
        },
        "status": "final",
        "subject": {
          "reference": "urn:uuid:56856fac-d115-4b82-92bb-0c95384aef5f",
          "display": "Θεμιστοκλής Λιναρδάκη"
        },
        "effectiveDateTime": "2019-02-20T06:16:00Z",
        "specimen": {
          "reference": "urn:uuid:78486f7b-adba-43e3-b3eb-5390ff665fcc"
        }
      }
    },
    {
      "fullUrl": "urn:uuid:767846ba-69ff-4812-b39a-ae47cf26d935",
      "resource": {
        "resourceType": "Observation",
        "id": "767846ba-69ff-4812-b39a-ae47cf26d935",
        "meta": {
          "profile": [
            "http://hl7.eu/fhir/laboratory/StructureDefinition/Observation-resultslab-eu-lab"
          ]
        },
        "performer": [
          {
            "display": "The Central European Lab"
          }
        ],
        "category": [
          {
            "coding": [
              {
                "system": "http://terminology.hl7.org/CodeSystem/observation-category",
                "code": "laboratory"
              }
            ]
          }
        ],
        "code": {
          "coding": [
            {
              "code": "2514-8",
              "system": "http://loinc.org",
              "display": "Ketones [Presence] in Urine by Test strip"
            }
          ],
          "text": "Ketones [Presence] in Urine by Test strip"
        },
        "text": {
          "status": "generated",
          "div": "<div xmlns=\"http://www.w3.org/1999/xhtml\"><table class=\"hl7__eu__lab__report\"><tr><th>Test</th><th>20-Feb-2019</th><th>Reference&#xA0;Range</th><th>Unit</th></tr><tr><td>Ketones [Presence] in Urine by Test strip</td></tr></table></div>"
        },
        "status": "final",
        "subject": {
          "reference": "urn:uuid:56856fac-d115-4b82-92bb-0c95384aef5f",
          "display": "Θεμιστοκλής Λιναρδάκη"
        },
        "effectiveDateTime": "2019-02-20T06:16:00Z",
        "specimen": {
          "reference": "urn:uuid:78486f7b-adba-43e3-b3eb-5390ff665fcc"
        }
      }
    },
    {
      "fullUrl": "urn:uuid:4f9490c1-a506-498d-b01b-d5a58704df1f",
      "resource": {
        "resourceType": "Observation",
        "id": "4f9490c1-a506-498d-b01b-d5a58704df1f",
        "meta": {
          "profile": [
            "http://hl7.eu/fhir/laboratory/StructureDefinition/Observation-resultslab-eu-lab"
          ]
        },
        "performer": [
          {
            "display": "The Central European Lab"
          }
        ],
        "category": [
          {
            "coding": [
              {
                "system": "http://terminology.hl7.org/CodeSystem/observation-category",
                "code": "laboratory"
              }
            ]
          }
        ],
        "code": {
          "coding": [
            {
              "code": "5811-5",
              "system": "http://loinc.org",
              "display": "Specific gravity of Urine by Test strip"
            }
          ],
          "text": "Specific gravity of Urine by Test strip"
        },
        "valueQuantity": {
          "system": "http://unitsofmeasure.org",
          "value": 1,
          "unit": "{nominal}",
          "code": "{nominal}"
        },
        "referenceRange": [
          {
            "low": {
              "value": 1.005,
              "code": "g/mL",
              "system": "http://unitsofmeasure.org"
            }
          },
          {
            "high": {
              "value": 1.03,
              "code": "g/mL",
              "system": "http://unitsofmeasure.org"
            }
          }
        ],
        "interpretation": [
          {
            "coding": [
              {
                "code": "L",
                "system": "http://terminology.hl7.org/CodeSystem/v3-ObservationInterpretation",
                "display": "Low"
              }
            ]
          }
        ],
        "text": {
          "status": "generated",
          "div": "<div xmlns=\"http://www.w3.org/1999/xhtml\"><table class=\"hl7__eu__lab__report\"><tr><th>Test</th><th>20-Feb-2019</th><th>Reference&#xA0;Range</th><th>Unit</th></tr><tr><td>Specific gravity of Urine by Test strip</td><td>1.0</td><td>1.005 - 1.03</td><td>L</td><td>{nominal}</td></tr></table></div>"
        },
        "status": "final",
        "subject": {
          "reference": "urn:uuid:56856fac-d115-4b82-92bb-0c95384aef5f",
          "display": "Θεμιστοκλής Λιναρδάκη"
        },
        "effectiveDateTime": "2019-02-20T06:16:00Z",
        "specimen": {
          "reference": "urn:uuid:78486f7b-adba-43e3-b3eb-5390ff665fcc"
        }
      }
    },
    {
      "fullUrl": "urn:uuid:bd31e014-4cb9-4e20-a2aa-290871c390a8",
      "resource": {
        "resourceType": "Observation",
        "id": "bd31e014-4cb9-4e20-a2aa-290871c390a8",
        "meta": {
          "profile": [
            "http://hl7.eu/fhir/laboratory/StructureDefinition/Observation-resultslab-eu-lab"
          ]
        },
        "performer": [
          {
            "display": "The Central European Lab"
          }
        ],
        "category": [
          {
            "coding": [
              {
                "system": "http://terminology.hl7.org/CodeSystem/observation-category",
                "code": "laboratory"
              }
            ]
          }
        ],
        "code": {
          "coding": [
            {
              "code": "5803-2",
              "system": "http://loinc.org",
              "display": "pH of Urine by Test strip"
            }
          ],
          "text": "pH of Urine by Test strip"
        },
        "valueQuantity": {
          "system": "http://unitsofmeasure.org",
          "value": 5,
          "unit": "pH",
          "code": "pH"
        },
        "referenceRange": [
          {
            "low": {
              "value": 4.6,
              "code": "pH",
              "system": "http://unitsofmeasure.org"
            }
          },
          {
            "high": {
              "value": 7,
              "code": "pH",
              "system": "http://unitsofmeasure.org"
            }
          }
        ],
        "text": {
          "status": "generated",
          "div": "<div xmlns=\"http://www.w3.org/1999/xhtml\"><table class=\"hl7__eu__lab__report\"><tr><th>Test</th><th>20-Feb-2019</th><th>Reference&#xA0;Range</th><th>Unit</th></tr><tr><td>pH of Urine by Test strip</td><td>5.0</td><td>4.6 - 7</td><td></td><td>pH</td></tr></table></div>"
        },
        "status": "final",
        "subject": {
          "reference": "urn:uuid:56856fac-d115-4b82-92bb-0c95384aef5f",
          "display": "Θεμιστοκλής Λιναρδάκη"
        },
        "effectiveDateTime": "2019-02-20T06:16:00Z",
        "specimen": {
          "reference": "urn:uuid:78486f7b-adba-43e3-b3eb-5390ff665fcc"
        }
      }
    },
    {
      "fullUrl": "urn:uuid:95351594-82b7-4fa5-8a33-74ff81e54211",
      "resource": {
        "resourceType": "Observation",
        "id": "95351594-82b7-4fa5-8a33-74ff81e54211",
        "meta": {
          "profile": [
            "http://hl7.eu/fhir/laboratory/StructureDefinition/Observation-resultslab-eu-lab"
          ]
        },
        "performer": [
          {
            "display": "The Central European Lab"
          }
        ],
        "category": [
          {
            "coding": [
              {
                "system": "http://terminology.hl7.org/CodeSystem/observation-category",
                "code": "laboratory"
              }
            ]
          }
        ],
        "code": {
          "coding": [
            {
              "code": "5804-0",
              "system": "http://loinc.org",
              "display": "Protein [Mass/volume] in Urine by Test strip"
            }
          ],
          "text": "Protein [Mass/volume] in Urine by Test strip"
        },
        "valueQuantity": {
          "system": "http://unitsofmeasure.org",
          "value": 361.3,
          "unit": "mg/dL",
          "code": "mg/dL"
        },
        "referenceRange": [
          {
            "low": {
              "value": 0,
              "code": "mg/dL",
              "system": "http://unitsofmeasure.org"
            }
          },
          {
            "high": {
              "value": 150,
              "code": "mg/dL",
              "system": "http://unitsofmeasure.org"
            }
          }
        ],
        "interpretation": [
          {
            "coding": [
              {
                "code": "H",
                "system": "http://terminology.hl7.org/CodeSystem/v3-ObservationInterpretation",
                "display": "High"
              }
            ]
          }
        ],
        "text": {
          "status": "generated",
          "div": "<div xmlns=\"http://www.w3.org/1999/xhtml\"><table class=\"hl7__eu__lab__report\"><tr><th>Test</th><th>20-Feb-2019</th><th>Reference&#xA0;Range</th><th>Unit</th></tr><tr><td>Protein [Mass/volume] in Urine by Test strip</td><td>361.3</td><td>0 - 150</td><td>H</td><td>mg/dL</td></tr></table></div>"
        },
        "status": "final",
        "subject": {
          "reference": "urn:uuid:56856fac-d115-4b82-92bb-0c95384aef5f",
          "display": "Θεμιστοκλής Λιναρδάκη"
        },
        "effectiveDateTime": "2019-02-20T06:16:00Z",
        "specimen": {
          "reference": "urn:uuid:78486f7b-adba-43e3-b3eb-5390ff665fcc"
        }
      }
    },
    {
      "fullUrl": "urn:uuid:64b9a2bc-2917-46be-b205-b7ae28364cd5",
      "resource": {
        "resourceType": "Observation",
        "id": "64b9a2bc-2917-46be-b205-b7ae28364cd5",
        "meta": {
          "profile": [
            "http://hl7.eu/fhir/laboratory/StructureDefinition/Observation-resultslab-eu-lab"
          ]
        },
        "performer": [
          {
            "display": "The Central European Lab"
          }
        ],
        "category": [
          {
            "coding": [
              {
                "system": "http://terminology.hl7.org/CodeSystem/observation-category",
                "code": "laboratory"
              }
            ]
          }
        ],
        "code": {
          "coding": [
            {
              "code": "20454-5",
              "system": "http://loinc.org",
              "display": "Protein [Presence] in Urine by Test strip"
            }
          ],
          "text": "Protein [Presence] in Urine by Test strip"
        },
        "text": {
          "status": "generated",
          "div": "<div xmlns=\"http://www.w3.org/1999/xhtml\"><table class=\"hl7__eu__lab__report\"><tr><th>Test</th><th>20-Feb-2019</th><th>Reference&#xA0;Range</th><th>Unit</th></tr><tr><td>Protein [Presence] in Urine by Test strip</td></tr></table></div>"
        },
        "status": "final",
        "subject": {
          "reference": "urn:uuid:56856fac-d115-4b82-92bb-0c95384aef5f",
          "display": "Θεμιστοκλής Λιναρδάκη"
        },
        "effectiveDateTime": "2019-02-20T06:16:00Z",
        "specimen": {
          "reference": "urn:uuid:78486f7b-adba-43e3-b3eb-5390ff665fcc"
        }
      }
    },
    {
      "fullUrl": "urn:uuid:b067792d-54a7-40a0-b462-fe9391db6407",
      "resource": {
        "resourceType": "Observation",
        "id": "b067792d-54a7-40a0-b462-fe9391db6407",
        "meta": {
          "profile": [
            "http://hl7.eu/fhir/laboratory/StructureDefinition/Observation-resultslab-eu-lab"
          ]
        },
        "performer": [
          {
            "display": "The Central European Lab"
          }
        ],
        "category": [
          {
            "coding": [
              {
                "system": "http://terminology.hl7.org/CodeSystem/observation-category",
                "code": "laboratory"
              }
            ]
          }
        ],
        "code": {
          "coding": [
            {
              "code": "5802-4",
              "system": "http://loinc.org",
              "display": "Nitrite [Presence] in Urine by Test strip"
            }
          ],
          "text": "Nitrite [Presence] in Urine by Test strip"
        },
        "text": {
          "status": "generated",
          "div": "<div xmlns=\"http://www.w3.org/1999/xhtml\"><table class=\"hl7__eu__lab__report\"><tr><th>Test</th><th>20-Feb-2019</th><th>Reference&#xA0;Range</th><th>Unit</th></tr><tr><td>Nitrite [Presence] in Urine by Test strip</td></tr></table></div>"
        },
        "status": "final",
        "subject": {
          "reference": "urn:uuid:56856fac-d115-4b82-92bb-0c95384aef5f",
          "display": "Θεμιστοκλής Λιναρδάκη"
        },
        "effectiveDateTime": "2019-02-20T06:16:00Z",
        "specimen": {
          "reference": "urn:uuid:78486f7b-adba-43e3-b3eb-5390ff665fcc"
        }
      }
    },
    {
      "fullUrl": "urn:uuid:7e6ea5a2-20a2-47b3-97d1-e8ef821ce45b",
      "resource": {
        "resourceType": "Observation",
        "id": "7e6ea5a2-20a2-47b3-97d1-e8ef821ce45b",
        "meta": {
          "profile": [
            "http://hl7.eu/fhir/laboratory/StructureDefinition/Observation-resultslab-eu-lab"
          ]
        },
        "performer": [
          {
            "display": "The Central European Lab"
          }
        ],
        "category": [
          {
            "coding": [
              {
                "system": "http://terminology.hl7.org/CodeSystem/observation-category",
                "code": "laboratory"
              }
            ]
          }
        ],
        "code": {
          "coding": [
            {
              "code": "5794-3",
              "system": "http://loinc.org",
              "display": "Hemoglobin [Presence] in Urine by Test strip"
            }
          ],
          "text": "Hemoglobin [Presence] in Urine by Test strip"
        },
        "text": {
          "status": "generated",
          "div": "<div xmlns=\"http://www.w3.org/1999/xhtml\"><table class=\"hl7__eu__lab__report\"><tr><th>Test</th><th>20-Feb-2019</th><th>Reference&#xA0;Range</th><th>Unit</th></tr><tr><td>Hemoglobin [Presence] in Urine by Test strip</td></tr></table></div>"
        },
        "status": "final",
        "subject": {
          "reference": "urn:uuid:56856fac-d115-4b82-92bb-0c95384aef5f",
          "display": "Θεμιστοκλής Λιναρδάκη"
        },
        "effectiveDateTime": "2019-02-20T06:16:00Z",
        "specimen": {
          "reference": "urn:uuid:78486f7b-adba-43e3-b3eb-5390ff665fcc"
        }
      }
    },
    {
      "fullUrl": "urn:uuid:36cb14ce-44e4-4207-8447-b5c0d1192037",
      "resource": {
        "resourceType": "Observation",
        "id": "36cb14ce-44e4-4207-8447-b5c0d1192037",
        "meta": {
          "profile": [
            "http://hl7.eu/fhir/laboratory/StructureDefinition/Observation-resultslab-eu-lab"
          ]
        },
        "performer": [
          {
            "display": "The Central European Lab"
          }
        ],
        "category": [
          {
            "coding": [
              {
                "system": "http://terminology.hl7.org/CodeSystem/observation-category",
                "code": "laboratory"
              }
            ]
          }
        ],
        "code": {
          "coding": [
            {
              "code": "5799-2",
              "system": "http://loinc.org",
              "display": "Leukocyte esterase [Presence] in Urine by Test strip"
            }
          ],
          "text": "Leukocyte esterase [Presence] in Urine by Test strip"
        },
        "text": {
          "status": "generated",
          "div": "<div xmlns=\"http://www.w3.org/1999/xhtml\"><table class=\"hl7__eu__lab__report\"><tr><th>Test</th><th>20-Feb-2019</th><th>Reference&#xA0;Range</th><th>Unit</th></tr><tr><td>Leukocyte esterase [Presence] in Urine by Test strip</td></tr></table></div>"
        },
        "status": "final",
        "subject": {
          "reference": "urn:uuid:56856fac-d115-4b82-92bb-0c95384aef5f",
          "display": "Θεμιστοκλής Λιναρδάκη"
        },
        "effectiveDateTime": "2019-02-20T06:16:00Z",
        "specimen": {
          "reference": "urn:uuid:78486f7b-adba-43e3-b3eb-5390ff665fcc"
        }
      }
    },
    {
      "fullUrl": "urn:uuid:69423f64-4b6f-4f35-a6aa-0c759e05a53a",
      "resource": {
        "resourceType": "Observation",
        "id": "69423f64-4b6f-4f35-a6aa-0c759e05a53a",
        "meta": {
          "profile": [
            "http://hl7.eu/fhir/laboratory/StructureDefinition/Observation-resultslab-eu-lab"
          ]
        },
        "performer": [
          {
            "display": "The Central European Lab"
          }
        ],
        "category": [
          {
            "coding": [
              {
                "system": "http://terminology.hl7.org/CodeSystem/observation-category",
                "code": "laboratory"
              }
            ]
          }
        ],
        "code": {
          "coding": [
            {
              "code": "4548-4",
              "system": "http://loinc.org",
              "display": "Hemoglobin A1c/Hemoglobin.total in Blood"
            }
          ],
          "text": "Hemoglobin A1c/Hemoglobin.total in Blood"
        },
        "valueQuantity": {
          "system": "http://unitsofmeasure.org",
          "value": 3.2,
          "unit": "%",
          "code": "%"
        },
        "referenceRange": [
          {
            "low": {
              "value": 4.3,
              "code": "%",
              "system": "http://unitsofmeasure.org"
            }
          },
          {
            "high": {
              "value": 6.4,
              "code": "%",
              "system": "http://unitsofmeasure.org"
            }
          }
        ],
        "interpretation": [
          {
            "coding": [
              {
                "code": "L",
                "system": "http://terminology.hl7.org/CodeSystem/v3-ObservationInterpretation",
                "display": "Low"
              }
            ]
          }
        ],
        "text": {
          "status": "generated",
          "div": "<div xmlns=\"http://www.w3.org/1999/xhtml\"><table class=\"hl7__eu__lab__report\"><tr><th>Test</th><th>20-Feb-2019</th><th>Reference&#xA0;Range</th><th>Unit</th></tr><tr><td>Hemoglobin A1c/Hemoglobin.total in Blood</td><td>3.2</td><td>4.3 - 6.4</td><td>L</td><td>%</td></tr></table></div>"
        },
        "status": "final",
        "subject": {
          "reference": "urn:uuid:56856fac-d115-4b82-92bb-0c95384aef5f",
          "display": "Θεμιστοκλής Λιναρδάκη"
        },
        "effectiveDateTime": "2019-02-20T06:16:00Z",
        "specimen": {
          "reference": "urn:uuid:d631ac9a-fdb4-466a-ab84-019d9006d583"
        }
      }
    },
    {
      "fullUrl": "urn:uuid:36285eac-4dd2-424c-9ea5-c4c4d7309d46",
      "resource": {
        "resourceType": "Device",
        "id": "36285eac-4dd2-424c-9ea5-c4c4d7309d46",
        "deviceName": [
          {
            "name": "SYNDERAI Synthetic Generator",
            "type": "manufacturer-name"
          }
        ],
        "version": [
          {
            "value": "5.0"
          }
        ],
        "text": {
          "status": "generated",
          "div": "<div xmlns=\"http://www.w3.org/1999/xhtml\">SYNDERAI Synthetic Generator v5.0</div>"
        },
        "status": "active\"",
        "distinctIdentifier": "synderai-generator-50",
        "manufacturer": "SYNDERAI Project"
      }
    },
    {
      "fullUrl": "urn:uuid:7a98b475-8dd2-4b87-bc5b-8067e2a14e23",
      "resource": {
        "resourceType": "Provenance",
        "id": "7a98b475-8dd2-4b87-bc5b-8067e2a14e23",
        "target": [
          {
            "reference": "Patient/56856fac-d115-4b82-92bb-0c95384aef5f"
          },
          {
            "reference": "Bundle/714877cf-bd61-4e33-b0ec-814718ffd143"
          },
          {
            "reference": "Composition/8a13bae4-cec8-49f8-b6f2-ba119cfc3a2e"
          },
          {
            "reference": "PractitionerRole/d67cfd84-1a26-47a4-b232-2ad19f414fdf"
          },
          {
            "reference": "Practitioner/22afa605-4581-4ca2-8431-9d0ae9ac8af4"
          },
          {
            "reference": "PractitionerRole/a9ec6b6e-c0dd-4a94-8ab0-c3b62363d2ce"
          },
          {
            "reference": "Organization/d1c5b359-a03a-4ac6-bf5e-94e51eaac5b1"
          }
        ],
        "activity": {
          "text": "Synthetic Example Data Generation"
        },
        "policy": [
          "https://synderai.net/synderai-synthetic-data-policy"
        ],
        "agent": [
          {
            "type": {
              "text": "author"
            },
            "who": {
              "reference": "Device/36285eac-4dd2-424c-9ea5-c4c4d7309d46"
            }
          }
        ],
        "reason": [
          {
            "text": "Interoperability Testing and Training (non-clinical use)"
          }
        ],
        "text": {
          "status": "generated",
          "div": "<div xmlns=\"http://www.w3.org/1999/xhtml\">Provenance for SYNDERAI Synthetic Example Data Resource</div>"
        },
        "recorded": "2019-02-20T07:16:00Z"
      }
    },
    {
      "fullUrl": "urn:uuid:d67cfd84-1a26-47a4-b232-2ad19f414fdf",
      "resource": {
        "resourceType": "PractitionerRole",
        "id": "d67cfd84-1a26-47a4-b232-2ad19f414fdf",
        "meta": {
          "profile": [
            "http://hl7.eu/fhir/base/StructureDefinition/practitionerRole-eu"
          ]
        },
        "text": {
          "status": "generated",
          "div": "<div xmlns=\"http://www.w3.org/1999/xhtml\">Laboratory Role Id: d67cfd84-1a26-47a4-b232-2ad19f414fdf</div>"
        },
        "practitioner": {
          "reference": "urn:uuid:22afa605-4581-4ca2-8431-9d0ae9ac8af4"
        }
      }
    },
    {
      "fullUrl": "urn:uuid:22afa605-4581-4ca2-8431-9d0ae9ac8af4",
      "resource": {
        "resourceType": "Practitioner",
        "id": "22afa605-4581-4ca2-8431-9d0ae9ac8af4",
        "meta": {
          "profile": [
            "http://hl7.eu/fhir/base/StructureDefinition/practitioner-eu"
          ]
        },
        "identifier": [
          {
            "assigner": {
              "display": "HL7 Europe"
            },
            "system": "urn:oid:2.16.840.1.113883.2.51.999",
            "value": "b9f4d210-5270-4189-9c37-8fa22e799435"
          }
        ],
        "name": [
          {
            "prefix": [
              "dr"
            ],
            "given": [
              "Ex"
            ],
            "family": "Ample"
          }
        ],
        "address": [
          {
            "line": [
              "Laboratoire Central Européenne",
              "Boulevard du Jardin Botanique 32"
            ],
            "postalCode": "1000",
            "city": "Brussels",
            "country": "Belgium"
          }
        ],
        "text": {
          "status": "generated",
          "div": "<div xmlns=\"http://www.w3.org/1999/xhtml\">Laboratory: Laboratoire Central Européenne, 1000 Brussels, Belgium</div>"
        }
      }
    }
  ],
  "type": "document",
  "timestamp": "2019-02-20T07:16:00Z"
}
