{
  "resourceType": "Bundle",
  "id": "43a6a7b9-1328-49b1-9915-1dac23770c99",
  "meta": {
    "profile": [
      "http://hl7.eu/fhir/laboratory/StructureDefinition/Bundle-eu-lab"
    ]
  },
  "identifier": {
    "assigner": {
      "display": "HL7 Europe"
    },
    "system": "urn:oid:2.16.840.1.113883.2.51.999",
    "value": "9c10de36-1d74-4073-8647-69f2167ad2d0"
  },
  "entry": [
    {
      "fullUrl": "urn:uuid:28f5dabe-e0c6-4044-bc8a-923b85a10242",
      "resource": {
        "resourceType": "Composition",
        "id": "28f5dabe-e0c6-4044-bc8a-923b85a10242",
        "meta": {
          "profile": [
            "http://hl7.eu/fhir/laboratory/StructureDefinition/Composition-eu-lab"
          ]
        },
        "identifier": {
          "assigner": {
            "display": "HL7 Europe"
          },
          "system": "urn:oid:2.16.840.1.113883.2.51.999",
          "value": "a9915b40-861d-400b-ad2c-f391188b9c17"
        },
        "author": [
          {
            "reference": "urn:uuid:a6387ef3-18a2-4c55-828a-a1a857a00cb2"
          }
        ],
        "category": [
          {
            "coding": [
              {
                "code": "26436-6",
                "system": "http://loinc.org",
                "display": "Laboratory studies (set)"
              }
            ]
          }
        ],
        "type": {
          "coding": [
            {
              "code": "11502-2",
              "system": "http://loinc.org",
              "display": "Laboratory report"
            }
          ],
          "text": "Laboratory Report"
        },
        "section": [
          {
            "code": {
              "coding": [
                {
                  "code": "26436-6",
                  "system": "http://loinc.org",
                  "display": "Laboratory studies (set)"
                }
              ],
              "text": "Laboratory studies"
            },
            "section": [
              {
                "code": {
                  "coding": [
                    {
                      "code": "$18723-7",
                      "system": "http://loinc.org",
                      "display": "Hematology studies (set)"
                    }
                  ],
                  "text": "Hematology"
                },
                "entry": [
                  {
                    "reference": "urn:uuid:eef08d6f-731f-4196-a172-4665749fd92b"
                  },
                  {
                    "reference": "urn:uuid:cac59e18-a06e-4347-b083-4d3cdc233fec"
                  },
                  {
                    "reference": "urn:uuid:c3a6c0c0-e84c-4d92-908b-b3919fd23051"
                  },
                  {
                    "reference": "urn:uuid:ba87ddbf-23a1-492b-8ebc-5161004caf3f"
                  },
                  {
                    "reference": "urn:uuid:6346289b-152f-454a-8732-d394ec78de8b"
                  },
                  {
                    "reference": "urn:uuid:b39698c4-0d4e-48de-94b9-a07703ad83cf"
                  },
                  {
                    "reference": "urn:uuid:d74319f1-19ab-4ff0-8323-59be04023f63"
                  },
                  {
                    "reference": "urn:uuid:f1fd2ca7-9156-455d-b9b5-8e2b6ce98dba"
                  },
                  {
                    "reference": "urn:uuid:02120168-8d81-404e-bf8b-9bda7f994577"
                  },
                  {
                    "reference": "urn:uuid:3b86d79d-13c4-41a4-9cb2-ebd85cb627e6"
                  },
                  {
                    "reference": "urn:uuid:45f084d9-31a9-460b-83cf-fbc29b2f77d9"
                  }
                ],
                "text": {
                  "status": "generated",
                  "div": "<div xmlns=\"http://www.w3.org/1999/xhtml\"><h3>Hematology</h3><table class=\"hl7__eu__lab__report\"><thead><tr><th>Test</th><th>17-FEB-2019</th><th>Reference&#xA0;Range</th><th>Unit</th></tr></thead><tbody><tr><td>Leukocytes [#/volume] in Blood by Automated count</td><td>4.0</td><td>3.4 - 10.6</td><td>10*3/uL</td></tr><tr><td>Erythrocytes [#/volume] in Blood by Automated count</td><td><strong>4.0 L</strong></td><td>4.2 - 5.2</td><td>10*6/uL</td></tr><tr><td>Hemoglobin [Mass/volume] in Blood</td><td>15.7</td><td>12 - 16</td><td>g/dL</td></tr><tr><td>Hematocrit [Volume Fraction] of Blood by Automated count</td><td>43.3</td><td>36 - 48</td><td>%</td></tr><tr><td>MCV [Entitic volume] by Automated count</td><td>91.4</td><td>82 - 98</td><td>fL</td></tr><tr><td>MCH [Entitic mass] by Automated count</td><td>28.7</td><td>27 - 33</td><td>pg</td></tr><tr><td>MCHC [Mass/volume] by Automated count</td><td>33.3</td><td>32 - 37</td><td>g/dL</td></tr><tr><td>Erythrocyte distribution width [Entitic volume] by Automated count</td><td>40.9</td><td>36 - 46</td><td>fL</td></tr><tr><td>Platelets [#/volume] in Blood by Automated count</td><td>402.0</td><td>150 - 450</td><td>10*3/uL</td></tr><tr><td>Platelet distribution width [Entitic volume] in Blood by Automated count</td><td><strong>298.3 H</strong></td><td>11.6 - 17.4</td><td>fL</td></tr><tr><td>Platelet mean volume [Entitic volume] in Blood by Automated count</td><td>10.2</td><td>7.4 - 12</td><td>fL</td></tr></tbody></table></div>"
                },
                "title": "Hematology"
              },
              {
                "code": {
                  "coding": [
                    {
                      "code": "$18719-5",
                      "system": "http://loinc.org",
                      "display": "Chemistry studies (set)"
                    }
                  ],
                  "text": "Chemistry"
                },
                "entry": [
                  {
                    "reference": "urn:uuid:df0835c6-44a1-49dc-9955-a564ea424812"
                  },
                  {
                    "reference": "urn:uuid:37aa5cea-864f-4d96-9edc-0de1dd6f20e6"
                  },
                  {
                    "reference": "urn:uuid:d8e717fc-f7c6-4287-890e-10cbd6f3bbe9"
                  },
                  {
                    "reference": "urn:uuid:029a0c3f-784d-4da2-bdc8-4e190021a83e"
                  },
                  {
                    "reference": "urn:uuid:456a8347-e7dd-4e38-933f-dd874e6c0ae1"
                  },
                  {
                    "reference": "urn:uuid:48067495-4e47-4782-9a5a-08150edc4459"
                  },
                  {
                    "reference": "urn:uuid:18aab07b-0534-48ba-ab75-daf59bce6e1f"
                  },
                  {
                    "reference": "urn:uuid:8fc6900f-4c41-4190-990b-2c4699199e29"
                  },
                  {
                    "reference": "urn:uuid:ca2dac79-ba98-4096-abba-14ab1b56e9f0"
                  },
                  {
                    "reference": "urn:uuid:e3b1277a-883e-4d40-ac84-1d03ac1f41c4"
                  },
                  {
                    "reference": "urn:uuid:4f450a79-944a-47fa-8ca0-b297f2a0cbe0"
                  },
                  {
                    "reference": "urn:uuid:e9513792-3d6c-4030-9bb6-bd9ecf4e5134"
                  },
                  {
                    "reference": "urn:uuid:93fd2ada-82e5-46a6-8aa8-7af5f6fdf665"
                  }
                ],
                "text": {
                  "status": "generated",
                  "div": "<div xmlns=\"http://www.w3.org/1999/xhtml\"><h3>Chemistry</h3><table class=\"hl7__eu__lab__report\"><thead><tr><th>Test</th><th>17-FEB-2019</th><th>Reference&#xA0;Range</th><th>Unit</th></tr></thead><tbody><tr><td>Hemoglobin A1c/Hemoglobin.total in Blood</td><td><strong>2.8 L</strong></td><td>4 - 6</td><td>%</td></tr><tr><td>Glucose [Mass/volume] in Blood</td><td>98.2</td><td>70 - 140</td><td>mg/dL</td></tr><tr><td>Urea nitrogen [Mass/volume] in Blood</td><td>13.5</td><td>7 - 25</td><td>mg/dL</td></tr><tr><td>Creatinine [Mass/volume] in Blood</td><td>0.8</td><td>0.6 - 1.1</td><td>mg/dL</td></tr><tr><td>Calcium [Mass/volume] in Blood</td><td>9.4</td><td>8.6 - 10.4</td><td>mg/dL</td></tr><tr><td>Sodium [Moles/volume] in Blood</td><td>141.6</td><td>135 - 145</td><td>mmol/L</td></tr><tr><td>Potassium [Moles/volume] in Blood</td><td>5.0</td><td>3.5 - 5.1</td><td>mmol/L</td></tr><tr><td>Chloride [Moles/volume] in Blood</td><td>109.7</td><td>98 - 110</td><td>mmol/L</td></tr><tr><td>Carbon dioxide, total [Moles/volume] in Blood</td><td>25.1</td><td>22 - 29</td><td>mmol/L</td></tr><tr><td>Cholesterol [Mass/volume] in Serum or Plasma</td><td>195.1</td><td>130 - 200</td><td>mg/dL</td></tr><tr><td>Triglyceride [Mass/volume] in Serum or Plasma</td><td>107.6</td><td>35 - 150</td><td>mg/dL</td></tr><tr><td>Cholesterol in LDL [Mass/volume] in Serum or Plasma by Direct assay</td><td>120.6</td><td>0 - 130</td><td>mg/dL</td></tr><tr><td>Cholesterol in HDL [Mass/volume] in Serum or Plasma</td><td>53.0</td><td>50 - 100</td><td>mg/dL</td></tr></tbody></table></div>"
                },
                "title": "Chemistry"
              }
            ],
            "title": "Laboratory Report"
          },
          {
            "text": {
              "status": "generated",
              "div": "<div xmlns=\"http://www.w3.org/1999/xhtml\"><h3>Annotation</h3><table class=\"hl7__eu__lab__report\"><tr><th>Conclusion and Recommendations based on this report and previous findings known to us</th></tr><tr><td>Most parameters are within normal limits. Notable findings include a low HbA1c (2.8%), which may suggest recent hypoglycemia or analytical error, and a low erythrocyte count with normal hemoglobin/hematocrit, possibly indicating mild erythrocytopenia without anemia. Platelet distribution width is elevated, which may reflect increased platelet size variability. Lipid profile, renal, and electrolyte parameters are unremarkable. Clinical correlation is recommended.</td></tr></table></div>"
            },
            "code": {
              "coding": [
                {
                  "system": "http://loinc.org",
                  "code": "48767-8",
                  "display": "Annotation comment"
                }
              ]
            },
            "title": "Annotation comment"
          }
        ],
        "status": "final",
        "subject": {
          "reference": "urn:uuid:62dfffb0-1cdc-4239-a2e1-a91ddac2278e",
          "display": "Iva Kratochvílová"
        },
        "date": "2019-02-17T17:10:29Z",
        "title": "Laboratory Report",
        "confidentiality": "N"
      }
    },
    {
      "fullUrl": "urn:uuid:59d554a1-d2df-40c5-8d73-716d77115237",
      "resource": {
        "resourceType": "DiagnosticReport",
        "id": "59d554a1-d2df-40c5-8d73-716d77115237",
        "meta": {
          "profile": [
            "http://hl7.eu/fhir/laboratory/StructureDefinition/DiagnosticReport-eu-lab"
          ]
        },
        "identifier": [
          {
            "assigner": {
              "display": "HL7 Europe"
            },
            "system": "urn:oid:2.16.840.1.113883.2.51.999",
            "value": "142f2e84-e6c7-4f5e-8c96-8b99e72999c7"
          }
        ],
        "extension": [
          {
            "url": "http://hl7.org/fhir/5.0/StructureDefinition/extension-DiagnosticReport.composition",
            "valueReference": {
              "reference": "urn:uuid:a9915b40-861d-400b-ad2c-f391188b9c17"
            }
          }
        ],
        "category": [
          {
            "coding": [
              {
                "code": "26436-6",
                "system": "http://loinc.org",
                "display": "Laboratory studies (set)"
              }
            ]
          }
        ],
        "specimen": [
          {
            "reference": "urn:uuid:9efc702b-2635-48e6-a08f-851b1cd536f7"
          },
          {
            "reference": "urn:uuid:ed39f2f3-3cc6-41d0-865c-4ef8a8fc9a0d"
          },
          {
            "reference": "urn:uuid:9efc702b-2635-48e6-a08f-851b1cd536f7"
          }
        ],
        "result": [
          {
            "reference": "urn:uuid:df0835c6-44a1-49dc-9955-a564ea424812"
          },
          {
            "reference": "urn:uuid:37aa5cea-864f-4d96-9edc-0de1dd6f20e6"
          },
          {
            "reference": "urn:uuid:d8e717fc-f7c6-4287-890e-10cbd6f3bbe9"
          },
          {
            "reference": "urn:uuid:029a0c3f-784d-4da2-bdc8-4e190021a83e"
          },
          {
            "reference": "urn:uuid:456a8347-e7dd-4e38-933f-dd874e6c0ae1"
          },
          {
            "reference": "urn:uuid:48067495-4e47-4782-9a5a-08150edc4459"
          },
          {
            "reference": "urn:uuid:18aab07b-0534-48ba-ab75-daf59bce6e1f"
          },
          {
            "reference": "urn:uuid:8fc6900f-4c41-4190-990b-2c4699199e29"
          },
          {
            "reference": "urn:uuid:ca2dac79-ba98-4096-abba-14ab1b56e9f0"
          },
          {
            "reference": "urn:uuid:e3b1277a-883e-4d40-ac84-1d03ac1f41c4"
          },
          {
            "reference": "urn:uuid:4f450a79-944a-47fa-8ca0-b297f2a0cbe0"
          },
          {
            "reference": "urn:uuid:e9513792-3d6c-4030-9bb6-bd9ecf4e5134"
          },
          {
            "reference": "urn:uuid:93fd2ada-82e5-46a6-8aa8-7af5f6fdf665"
          },
          {
            "reference": "urn:uuid:eef08d6f-731f-4196-a172-4665749fd92b"
          },
          {
            "reference": "urn:uuid:cac59e18-a06e-4347-b083-4d3cdc233fec"
          },
          {
            "reference": "urn:uuid:c3a6c0c0-e84c-4d92-908b-b3919fd23051"
          },
          {
            "reference": "urn:uuid:ba87ddbf-23a1-492b-8ebc-5161004caf3f"
          },
          {
            "reference": "urn:uuid:6346289b-152f-454a-8732-d394ec78de8b"
          },
          {
            "reference": "urn:uuid:b39698c4-0d4e-48de-94b9-a07703ad83cf"
          },
          {
            "reference": "urn:uuid:d74319f1-19ab-4ff0-8323-59be04023f63"
          },
          {
            "reference": "urn:uuid:f1fd2ca7-9156-455d-b9b5-8e2b6ce98dba"
          },
          {
            "reference": "urn:uuid:02120168-8d81-404e-bf8b-9bda7f994577"
          },
          {
            "reference": "urn:uuid:3b86d79d-13c4-41a4-9cb2-ebd85cb627e6"
          },
          {
            "reference": "urn:uuid:45f084d9-31a9-460b-83cf-fbc29b2f77d9"
          }
        ],
        "status": "registered",
        "code": {
          "coding": [
            {
              "code": "11502-2",
              "system": "http://loinc.org",
              "display": "Laboratory report"
            }
          ]
        },
        "subject": {
          "reference": "urn:uuid:62dfffb0-1cdc-4239-a2e1-a91ddac2278e",
          "display": "Iva Kratochvílová"
        }
      }
    },
    {
      "fullUrl": "urn:uuid:62dfffb0-1cdc-4239-a2e1-a91ddac2278e",
      "resource": {
        "resourceType": "Patient",
        "id": "62dfffb0-1cdc-4239-a2e1-a91ddac2278e",
        "meta": {
          "security": [
            {
              "system": "http://terminology.hl7.org/CodeSystem/v3-ActReason",
              "code": "HTEST"
            },
            {
              "system": "http://terminology.hl7.org/CodeSystem/v3-ActReason",
              "code": "TRAIN"
            }
          ],
          "tag": [
            {
              "system": "https://synderai.net/fhir/CodeSystem/tags",
              "code": "synthetic",
              "display": "SYNDERAI Synthetic data"
            }
          ],
          "profile": [
            "http://hl7.eu/fhir/base/StructureDefinition/patient-eu-core"
          ]
        },
        "identifier": [
          {
            "type": {
              "coding": [
                {
                  "code": "PT",
                  "system": "http://terminology.hl7.org/CodeSystem/v2-0203"
                }
              ]
            },
            "system": "http://ec.europa.eu/identifier/eci",
            "value": "4380-389488-0"
          },
          {
            "type": {
              "coding": [
                {
                  "code": "MR",
                  "system": "http://terminology.hl7.org/CodeSystem/v2-0203"
                }
              ]
            },
            "system": "http://local.setting.eu/identifier",
            "value": "f8f9ebdc-03dd-2fc0-819c-affa4ffd7f67"
          }
        ],
        "name": [
          {
            "family": "Kratochvílová"
          },
          {
            "given": [
              "Iva"
            ]
          },
          {
            "text": "Iva Kratochvílová"
          }
        ],
        "address": [
          {
            "line": [
              "Žofie Podlipské 4"
            ],
            "use": "home",
            "type": "physical",
            "postalCode": "27324",
            "city": "Postoloprty",
            "country": "Czechia"
          }
        ],
        "telecom": [
          {
            "system": "phone",
            "value": "00420 607 985 072"
          }
        ],
        "extension": [
          {
            "url": "http://hl7.org/fhir/StructureDefinition/patient-nationality",
            "valueCodeableConcept": {
              "coding": [
                {
                  "code": "CZ",
                  "system": "http://hl7.org/fhir/ValueSet/country"
                }
              ]
            }
          }
        ],
        "text": {
          "status": "generated",
          "div": "<div xmlns=\"http://www.w3.org/1999/xhtml\"><table class=\"hl7__ips\"><tr><td>Iva Kratochvílová</td><td>female</td><td>17-Sep-1964</td></tr></table></div>"
        },
        "gender": "female",
        "birthDate": "1964-09-17"
      }
    },
    {
      "fullUrl": "urn:uuid:3545ba31-5bf4-41e0-a18b-22e61725a82e",
      "resource": {
        "resourceType": "ServiceRequest",
        "id": "3545ba31-5bf4-41e0-a18b-22e61725a82e",
        "meta": {
          "profile": [
            "http://hl7.eu/fhir/laboratory/StructureDefinition/ServiceRequest-eu-lab"
          ]
        },
        "identifier": [
          {
            "system": "http://example.org",
            "value": "29330860-d4ed-4011-a805-f35007f07fad"
          }
        ],
        "specimen": [
          {
            "reference": "urn:uuid:9efc702b-2635-48e6-a08f-851b1cd536f7"
          },
          {
            "reference": "urn:uuid:ed39f2f3-3cc6-41d0-865c-4ef8a8fc9a0d"
          }
        ],
        "reasonCode": [
          {
            "coding": [
              {
                "code": "431856006",
                "system": "http://snomed.info/sct",
                "display": "Chronic kidney disease stage 2"
              }
            ]
          },
          {
            "coding": [
              {
                "code": "431855005",
                "system": "http://snomed.info/sct",
                "display": "Chronic kidney disease stage 1"
              }
            ]
          },
          {
            "coding": [
              {
                "code": "237602007",
                "system": "http://snomed.info/sct",
                "display": "Metabolic syndrome X"
              }
            ]
          },
          {
            "coding": [
              {
                "code": "91302008",
                "system": "http://snomed.info/sct",
                "display": "Sepsis"
              }
            ]
          },
          {
            "coding": [
              {
                "code": "271737000",
                "system": "http://snomed.info/sct",
                "display": "Anemia"
              }
            ]
          },
          {
            "coding": [
              {
                "code": "15777000",
                "system": "http://snomed.info/sct",
                "display": "Prediabetes"
              }
            ]
          },
          {
            "coding": [
              {
                "code": "157141000119108",
                "system": "http://snomed.info/sct",
                "display": "Proteinuria due to type 2 diabetes mellitus"
              }
            ]
          },
          {
            "coding": [
              {
                "code": "90781000119102",
                "system": "http://snomed.info/sct",
                "display": "Microalbuminuria due to type 2 diabetes mellitus"
              }
            ]
          },
          {
            "coding": [
              {
                "code": "239872002",
                "system": "http://snomed.info/sct",
                "display": "Osteoarthritis of hip"
              }
            ]
          },
          {
            "coding": [
              {
                "code": "40055000",
                "system": "http://snomed.info/sct",
                "display": "Chronic sinusitis"
              }
            ]
          },
          {
            "coding": [
              {
                "code": "127013003",
                "system": "http://snomed.info/sct",
                "display": "Disorder of kidney due to diabetes mellitus"
              }
            ]
          },
          {
            "coding": [
              {
                "code": "59621000",
                "system": "http://snomed.info/sct",
                "display": "Essential hypertension"
              }
            ]
          }
        ],
        "status": "active",
        "intent": "order",
        "code": {
          "coding": [
            {
              "code": "108252007",
              "system": "http://snomed.info/sct",
              "display": "Laboratory procedure"
            }
          ]
        },
        "subject": {
          "reference": "urn:uuid:62dfffb0-1cdc-4239-a2e1-a91ddac2278e",
          "display": "Iva Kratochvílová"
        },
        "requester": {
          "reference": "urn:uuid:e65da907-73f6-4d30-9475-32f7d8ba7a63"
        }
      }
    },
    {
      "fullUrl": "urn:uuid:e65da907-73f6-4d30-9475-32f7d8ba7a63",
      "resource": {
        "resourceType": "PractitionerRole",
        "id": "e65da907-73f6-4d30-9475-32f7d8ba7a63",
        "meta": {
          "profile": [
            "http://hl7.eu/fhir/base/StructureDefinition/practitionerRole-eu"
          ]
        },
        "text": {
          "status": "generated",
          "div": "<div xmlns=\"http://www.w3.org/1999/xhtml\">Provider Role Id: e65da907-73f6-4d30-9475-32f7d8ba7a63</div>"
        },
        "organization": {
          "reference": "urn:uuid:713f5752-84d6-4021-ba12-81a07d412f60"
        }
      }
    },
    {
      "fullUrl": "urn:uuid:713f5752-84d6-4021-ba12-81a07d412f60",
      "resource": {
        "resourceType": "Organization",
        "id": "713f5752-84d6-4021-ba12-81a07d412f60",
        "meta": {
          "profile": [
            "http://hl7.eu/fhir/base/StructureDefinition/organization-eu"
          ]
        },
        "identifier": [
          {
            "assigner": {
              "display": "HL7 Europe"
            },
            "system": "urn:oid:2.16.840.1.113883.2.51.999",
            "value": "1d448fca-696e-4885-adac-e0966727573c"
          }
        ],
        "address": [
          {
            "city": "Kadaň",
            "postalCode": "432 01",
            "country": "Czechia"
          }
        ],
        "text": {
          "status": "generated",
          "div": "<div xmlns=\"http://www.w3.org/1999/xhtml\">Provider Organization: Nemocnice s poliklinikou Kadaň</div>"
        },
        "name": "Nemocnice s poliklinikou Kadaň"
      }
    },
    {
      "fullUrl": "urn:uuid:9efc702b-2635-48e6-a08f-851b1cd536f7",
      "resource": {
        "resourceType": "Specimen",
        "id": "9efc702b-2635-48e6-a08f-851b1cd536f7",
        "meta": {
          "profile": [
            "http://hl7.eu/fhir/laboratory/StructureDefinition/Specimen-eu-lab"
          ]
        },
        "collection": {
          "collectedDateTime": "2019-02-17"
        },
        "text": {
          "status": "generated",
          "div": "<div xmlns=\"http://www.w3.org/1999/xhtml\"><table class=\"hl7__eu__lab__report\"><tr><th>Specimen</th><th>Collection Date</th></tr><tr><td>Whole blood specimen (specimen)</td><td><span class=\"nb\">17-Feb-2019</span></td></tr></table></div>"
        },
        "type": {
          "coding": [
            {
              "code": "258580003",
              "system": "http://snomed.info/sct",
              "display": "Whole blood specimen (specimen)"
            }
          ]
        }
      }
    },
    {
      "fullUrl": "urn:uuid:ed39f2f3-3cc6-41d0-865c-4ef8a8fc9a0d",
      "resource": {
        "resourceType": "Specimen",
        "id": "ed39f2f3-3cc6-41d0-865c-4ef8a8fc9a0d",
        "meta": {
          "profile": [
            "http://hl7.eu/fhir/laboratory/StructureDefinition/Specimen-eu-lab"
          ]
        },
        "collection": {
          "collectedDateTime": "2019-02-17"
        },
        "text": {
          "status": "generated",
          "div": "<div xmlns=\"http://www.w3.org/1999/xhtml\"><table class=\"hl7__eu__lab__report\"><tr><th>Specimen</th><th>Collection Date</th></tr><tr><td>Acellular blood (serum or plasma) specimen</td><td><span class=\"nb\">17-Feb-2019</span></td></tr></table></div>"
        },
        "type": {
          "coding": [
            {
              "code": "122592007",
              "system": "http://snomed.info/sct",
              "display": "Acellular blood (serum or plasma) specimen"
            }
          ]
        }
      }
    },
    {
      "fullUrl": "urn:uuid:9efc702b-2635-48e6-a08f-851b1cd536f7",
      "resource": {
        "resourceType": "Specimen",
        "id": "9efc702b-2635-48e6-a08f-851b1cd536f7",
        "meta": {
          "profile": [
            "http://hl7.eu/fhir/laboratory/StructureDefinition/Specimen-eu-lab"
          ]
        },
        "collection": {
          "collectedDateTime": "2019-02-17"
        },
        "text": {
          "status": "generated",
          "div": "<div xmlns=\"http://www.w3.org/1999/xhtml\"><table class=\"hl7__eu__lab__report\"><tr><th>Specimen</th><th>Collection Date</th></tr><tr><td>Whole blood specimen (specimen)</td><td><span class=\"nb\">17-Feb-2019</span></td></tr></table></div>"
        },
        "type": {
          "coding": [
            {
              "code": "258580003",
              "system": "http://snomed.info/sct",
              "display": "Whole blood specimen (specimen)"
            }
          ]
        }
      }
    },
    {
      "fullUrl": "urn:uuid:df0835c6-44a1-49dc-9955-a564ea424812",
      "resource": {
        "resourceType": "Observation",
        "id": "df0835c6-44a1-49dc-9955-a564ea424812",
        "meta": {
          "profile": [
            "http://hl7.eu/fhir/laboratory/StructureDefinition/Observation-resultslab-eu-lab"
          ]
        },
        "performer": [
          {
            "display": "The Central European Lab"
          }
        ],
        "category": [
          {
            "coding": [
              {
                "system": "http://terminology.hl7.org/CodeSystem/observation-category",
                "code": "laboratory"
              }
            ]
          }
        ],
        "code": {
          "coding": [
            {
              "code": "4548-4",
              "system": "http://loinc.org",
              "display": "Hemoglobin A1c/Hemoglobin.total in Blood"
            }
          ],
          "text": "Hemoglobin A1c/Hemoglobin.total in Blood"
        },
        "valueQuantity": {
          "system": "http://unitsofmeasure.org",
          "value": 2.8,
          "unit": "%",
          "code": "%"
        },
        "referenceRange": [
          {
            "low": {
              "value": 4,
              "code": "%",
              "system": "http://unitsofmeasure.org"
            }
          },
          {
            "high": {
              "value": 6,
              "code": "%",
              "system": "http://unitsofmeasure.org"
            }
          }
        ],
        "interpretation": [
          {
            "coding": [
              {
                "code": "L",
                "system": "http://terminology.hl7.org/CodeSystem/v3-ObservationInterpretation",
                "display": "Low"
              }
            ]
          }
        ],
        "text": {
          "status": "generated",
          "div": "<div xmlns=\"http://www.w3.org/1999/xhtml\"><table class=\"hl7__eu__lab__report\"><tr><th>Test</th><th>17-Feb-2019</th><th>Reference&#xA0;Range</th><th>Unit</th></tr><tr><td>Hemoglobin A1c/Hemoglobin.total in Blood</td><td>2.8</td><td>4 - 6</td><td>L</td><td>%</td></tr></table></div>"
        },
        "status": "final",
        "subject": {
          "reference": "urn:uuid:62dfffb0-1cdc-4239-a2e1-a91ddac2278e",
          "display": "Iva Kratochvílová"
        },
        "effectiveDateTime": "2019-02-17T16:10:29Z",
        "specimen": {
          "reference": "urn:uuid:9efc702b-2635-48e6-a08f-851b1cd536f7"
        }
      }
    },
    {
      "fullUrl": "urn:uuid:37aa5cea-864f-4d96-9edc-0de1dd6f20e6",
      "resource": {
        "resourceType": "Observation",
        "id": "37aa5cea-864f-4d96-9edc-0de1dd6f20e6",
        "meta": {
          "profile": [
            "http://hl7.eu/fhir/laboratory/StructureDefinition/Observation-resultslab-eu-lab"
          ]
        },
        "performer": [
          {
            "display": "The Central European Lab"
          }
        ],
        "category": [
          {
            "coding": [
              {
                "system": "http://terminology.hl7.org/CodeSystem/observation-category",
                "code": "laboratory"
              }
            ]
          }
        ],
        "code": {
          "coding": [
            {
              "code": "2339-0",
              "system": "http://loinc.org",
              "display": "Glucose [Mass/volume] in Blood"
            }
          ],
          "text": "Glucose [Mass/volume] in Blood"
        },
        "valueQuantity": {
          "system": "http://unitsofmeasure.org",
          "value": 98.2,
          "unit": "mg/dL",
          "code": "mg/dL"
        },
        "referenceRange": [
          {
            "low": {
              "value": 70,
              "code": "mg/dL",
              "system": "http://unitsofmeasure.org"
            }
          },
          {
            "high": {
              "value": 140,
              "code": "mg/dL",
              "system": "http://unitsofmeasure.org"
            }
          }
        ],
        "text": {
          "status": "generated",
          "div": "<div xmlns=\"http://www.w3.org/1999/xhtml\"><table class=\"hl7__eu__lab__report\"><tr><th>Test</th><th>17-Feb-2019</th><th>Reference&#xA0;Range</th><th>Unit</th></tr><tr><td>Glucose [Mass/volume] in Blood</td><td>98.2</td><td>70 - 140</td><td></td><td>mg/dL</td></tr></table></div>"
        },
        "status": "final",
        "subject": {
          "reference": "urn:uuid:62dfffb0-1cdc-4239-a2e1-a91ddac2278e",
          "display": "Iva Kratochvílová"
        },
        "effectiveDateTime": "2019-02-17T16:10:29Z",
        "specimen": {
          "reference": "urn:uuid:9efc702b-2635-48e6-a08f-851b1cd536f7"
        }
      }
    },
    {
      "fullUrl": "urn:uuid:d8e717fc-f7c6-4287-890e-10cbd6f3bbe9",
      "resource": {
        "resourceType": "Observation",
        "id": "d8e717fc-f7c6-4287-890e-10cbd6f3bbe9",
        "meta": {
          "profile": [
            "http://hl7.eu/fhir/laboratory/StructureDefinition/Observation-resultslab-eu-lab"
          ]
        },
        "performer": [
          {
            "display": "The Central European Lab"
          }
        ],
        "category": [
          {
            "coding": [
              {
                "system": "http://terminology.hl7.org/CodeSystem/observation-category",
                "code": "laboratory"
              }
            ]
          }
        ],
        "code": {
          "coding": [
            {
              "code": "6299-2",
              "system": "http://loinc.org",
              "display": "Urea nitrogen [Mass/volume] in Blood"
            }
          ],
          "text": "Urea nitrogen [Mass/volume] in Blood"
        },
        "valueQuantity": {
          "system": "http://unitsofmeasure.org",
          "value": 13.5,
          "unit": "mg/dL",
          "code": "mg/dL"
        },
        "referenceRange": [
          {
            "low": {
              "value": 7,
              "code": "mg/dL",
              "system": "http://unitsofmeasure.org"
            }
          },
          {
            "high": {
              "value": 25,
              "code": "mg/dL",
              "system": "http://unitsofmeasure.org"
            }
          }
        ],
        "text": {
          "status": "generated",
          "div": "<div xmlns=\"http://www.w3.org/1999/xhtml\"><table class=\"hl7__eu__lab__report\"><tr><th>Test</th><th>17-Feb-2019</th><th>Reference&#xA0;Range</th><th>Unit</th></tr><tr><td>Urea nitrogen [Mass/volume] in Blood</td><td>13.5</td><td>7 - 25</td><td></td><td>mg/dL</td></tr></table></div>"
        },
        "status": "final",
        "subject": {
          "reference": "urn:uuid:62dfffb0-1cdc-4239-a2e1-a91ddac2278e",
          "display": "Iva Kratochvílová"
        },
        "effectiveDateTime": "2019-02-17T16:10:29Z",
        "specimen": {
          "reference": "urn:uuid:9efc702b-2635-48e6-a08f-851b1cd536f7"
        }
      }
    },
    {
      "fullUrl": "urn:uuid:029a0c3f-784d-4da2-bdc8-4e190021a83e",
      "resource": {
        "resourceType": "Observation",
        "id": "029a0c3f-784d-4da2-bdc8-4e190021a83e",
        "meta": {
          "profile": [
            "http://hl7.eu/fhir/laboratory/StructureDefinition/Observation-resultslab-eu-lab"
          ]
        },
        "performer": [
          {
            "display": "The Central European Lab"
          }
        ],
        "category": [
          {
            "coding": [
              {
                "system": "http://terminology.hl7.org/CodeSystem/observation-category",
                "code": "laboratory"
              }
            ]
          }
        ],
        "code": {
          "coding": [
            {
              "code": "38483-4",
              "system": "http://loinc.org",
              "display": "Creatinine [Mass/volume] in Blood"
            }
          ],
          "text": "Creatinine [Mass/volume] in Blood"
        },
        "valueQuantity": {
          "system": "http://unitsofmeasure.org",
          "value": 0.8,
          "unit": "mg/dL",
          "code": "mg/dL"
        },
        "referenceRange": [
          {
            "low": {
              "value": 0.6,
              "code": "mg/dL",
              "system": "http://unitsofmeasure.org"
            }
          },
          {
            "high": {
              "value": 1.1,
              "code": "mg/dL",
              "system": "http://unitsofmeasure.org"
            }
          }
        ],
        "text": {
          "status": "generated",
          "div": "<div xmlns=\"http://www.w3.org/1999/xhtml\"><table class=\"hl7__eu__lab__report\"><tr><th>Test</th><th>17-Feb-2019</th><th>Reference&#xA0;Range</th><th>Unit</th></tr><tr><td>Creatinine [Mass/volume] in Blood</td><td>0.8</td><td>0.6 - 1.1</td><td></td><td>mg/dL</td></tr></table></div>"
        },
        "status": "final",
        "subject": {
          "reference": "urn:uuid:62dfffb0-1cdc-4239-a2e1-a91ddac2278e",
          "display": "Iva Kratochvílová"
        },
        "effectiveDateTime": "2019-02-17T16:10:29Z",
        "specimen": {
          "reference": "urn:uuid:9efc702b-2635-48e6-a08f-851b1cd536f7"
        }
      }
    },
    {
      "fullUrl": "urn:uuid:456a8347-e7dd-4e38-933f-dd874e6c0ae1",
      "resource": {
        "resourceType": "Observation",
        "id": "456a8347-e7dd-4e38-933f-dd874e6c0ae1",
        "meta": {
          "profile": [
            "http://hl7.eu/fhir/laboratory/StructureDefinition/Observation-resultslab-eu-lab"
          ]
        },
        "performer": [
          {
            "display": "The Central European Lab"
          }
        ],
        "category": [
          {
            "coding": [
              {
                "system": "http://terminology.hl7.org/CodeSystem/observation-category",
                "code": "laboratory"
              }
            ]
          }
        ],
        "code": {
          "coding": [
            {
              "code": "49765-1",
              "system": "http://loinc.org",
              "display": "Calcium [Mass/volume] in Blood"
            }
          ],
          "text": "Calcium [Mass/volume] in Blood"
        },
        "valueQuantity": {
          "system": "http://unitsofmeasure.org",
          "value": 9.4,
          "unit": "mg/dL",
          "code": "mg/dL"
        },
        "referenceRange": [
          {
            "low": {
              "value": 8.6,
              "code": "mg/dL",
              "system": "http://unitsofmeasure.org"
            }
          },
          {
            "high": {
              "value": 10.4,
              "code": "mg/dL",
              "system": "http://unitsofmeasure.org"
            }
          }
        ],
        "text": {
          "status": "generated",
          "div": "<div xmlns=\"http://www.w3.org/1999/xhtml\"><table class=\"hl7__eu__lab__report\"><tr><th>Test</th><th>17-Feb-2019</th><th>Reference&#xA0;Range</th><th>Unit</th></tr><tr><td>Calcium [Mass/volume] in Blood</td><td>9.4</td><td>8.6 - 10.4</td><td></td><td>mg/dL</td></tr></table></div>"
        },
        "status": "final",
        "subject": {
          "reference": "urn:uuid:62dfffb0-1cdc-4239-a2e1-a91ddac2278e",
          "display": "Iva Kratochvílová"
        },
        "effectiveDateTime": "2019-02-17T16:10:29Z",
        "specimen": {
          "reference": "urn:uuid:9efc702b-2635-48e6-a08f-851b1cd536f7"
        }
      }
    },
    {
      "fullUrl": "urn:uuid:48067495-4e47-4782-9a5a-08150edc4459",
      "resource": {
        "resourceType": "Observation",
        "id": "48067495-4e47-4782-9a5a-08150edc4459",
        "meta": {
          "profile": [
            "http://hl7.eu/fhir/laboratory/StructureDefinition/Observation-resultslab-eu-lab"
          ]
        },
        "performer": [
          {
            "display": "The Central European Lab"
          }
        ],
        "category": [
          {
            "coding": [
              {
                "system": "http://terminology.hl7.org/CodeSystem/observation-category",
                "code": "laboratory"
              }
            ]
          }
        ],
        "code": {
          "coding": [
            {
              "code": "2947-0",
              "system": "http://loinc.org",
              "display": "Sodium [Moles/volume] in Blood"
            }
          ],
          "text": "Sodium [Moles/volume] in Blood"
        },
        "valueQuantity": {
          "system": "http://unitsofmeasure.org",
          "value": 141.6,
          "unit": "mmol/L",
          "code": "mmol/L"
        },
        "referenceRange": [
          {
            "low": {
              "value": 135,
              "code": "mmol/L",
              "system": "http://unitsofmeasure.org"
            }
          },
          {
            "high": {
              "value": 145,
              "code": "mmol/L",
              "system": "http://unitsofmeasure.org"
            }
          }
        ],
        "text": {
          "status": "generated",
          "div": "<div xmlns=\"http://www.w3.org/1999/xhtml\"><table class=\"hl7__eu__lab__report\"><tr><th>Test</th><th>17-Feb-2019</th><th>Reference&#xA0;Range</th><th>Unit</th></tr><tr><td>Sodium [Moles/volume] in Blood</td><td>141.6</td><td>135 - 145</td><td></td><td>mmol/L</td></tr></table></div>"
        },
        "status": "final",
        "subject": {
          "reference": "urn:uuid:62dfffb0-1cdc-4239-a2e1-a91ddac2278e",
          "display": "Iva Kratochvílová"
        },
        "effectiveDateTime": "2019-02-17T16:10:29Z",
        "specimen": {
          "reference": "urn:uuid:9efc702b-2635-48e6-a08f-851b1cd536f7"
        }
      }
    },
    {
      "fullUrl": "urn:uuid:18aab07b-0534-48ba-ab75-daf59bce6e1f",
      "resource": {
        "resourceType": "Observation",
        "id": "18aab07b-0534-48ba-ab75-daf59bce6e1f",
        "meta": {
          "profile": [
            "http://hl7.eu/fhir/laboratory/StructureDefinition/Observation-resultslab-eu-lab"
          ]
        },
        "performer": [
          {
            "display": "The Central European Lab"
          }
        ],
        "category": [
          {
            "coding": [
              {
                "system": "http://terminology.hl7.org/CodeSystem/observation-category",
                "code": "laboratory"
              }
            ]
          }
        ],
        "code": {
          "coding": [
            {
              "code": "6298-4",
              "system": "http://loinc.org",
              "display": "Potassium [Moles/volume] in Blood"
            }
          ],
          "text": "Potassium [Moles/volume] in Blood"
        },
        "valueQuantity": {
          "system": "http://unitsofmeasure.org",
          "value": 5,
          "unit": "mmol/L",
          "code": "mmol/L"
        },
        "referenceRange": [
          {
            "low": {
              "value": 3.5,
              "code": "mmol/L",
              "system": "http://unitsofmeasure.org"
            }
          },
          {
            "high": {
              "value": 5.1,
              "code": "mmol/L",
              "system": "http://unitsofmeasure.org"
            }
          }
        ],
        "text": {
          "status": "generated",
          "div": "<div xmlns=\"http://www.w3.org/1999/xhtml\"><table class=\"hl7__eu__lab__report\"><tr><th>Test</th><th>17-Feb-2019</th><th>Reference&#xA0;Range</th><th>Unit</th></tr><tr><td>Potassium [Moles/volume] in Blood</td><td>5.0</td><td>3.5 - 5.1</td><td></td><td>mmol/L</td></tr></table></div>"
        },
        "status": "final",
        "subject": {
          "reference": "urn:uuid:62dfffb0-1cdc-4239-a2e1-a91ddac2278e",
          "display": "Iva Kratochvílová"
        },
        "effectiveDateTime": "2019-02-17T16:10:29Z",
        "specimen": {
          "reference": "urn:uuid:9efc702b-2635-48e6-a08f-851b1cd536f7"
        }
      }
    },
    {
      "fullUrl": "urn:uuid:8fc6900f-4c41-4190-990b-2c4699199e29",
      "resource": {
        "resourceType": "Observation",
        "id": "8fc6900f-4c41-4190-990b-2c4699199e29",
        "meta": {
          "profile": [
            "http://hl7.eu/fhir/laboratory/StructureDefinition/Observation-resultslab-eu-lab"
          ]
        },
        "performer": [
          {
            "display": "The Central European Lab"
          }
        ],
        "category": [
          {
            "coding": [
              {
                "system": "http://terminology.hl7.org/CodeSystem/observation-category",
                "code": "laboratory"
              }
            ]
          }
        ],
        "code": {
          "coding": [
            {
              "code": "2069-3",
              "system": "http://loinc.org",
              "display": "Chloride [Moles/volume] in Blood"
            }
          ],
          "text": "Chloride [Moles/volume] in Blood"
        },
        "valueQuantity": {
          "system": "http://unitsofmeasure.org",
          "value": 109.7,
          "unit": "mmol/L",
          "code": "mmol/L"
        },
        "referenceRange": [
          {
            "low": {
              "value": 98,
              "code": "mmol/L",
              "system": "http://unitsofmeasure.org"
            }
          },
          {
            "high": {
              "value": 110,
              "code": "mmol/L",
              "system": "http://unitsofmeasure.org"
            }
          }
        ],
        "text": {
          "status": "generated",
          "div": "<div xmlns=\"http://www.w3.org/1999/xhtml\"><table class=\"hl7__eu__lab__report\"><tr><th>Test</th><th>17-Feb-2019</th><th>Reference&#xA0;Range</th><th>Unit</th></tr><tr><td>Chloride [Moles/volume] in Blood</td><td>109.7</td><td>98 - 110</td><td></td><td>mmol/L</td></tr></table></div>"
        },
        "status": "final",
        "subject": {
          "reference": "urn:uuid:62dfffb0-1cdc-4239-a2e1-a91ddac2278e",
          "display": "Iva Kratochvílová"
        },
        "effectiveDateTime": "2019-02-17T16:10:29Z",
        "specimen": {
          "reference": "urn:uuid:9efc702b-2635-48e6-a08f-851b1cd536f7"
        }
      }
    },
    {
      "fullUrl": "urn:uuid:ca2dac79-ba98-4096-abba-14ab1b56e9f0",
      "resource": {
        "resourceType": "Observation",
        "id": "ca2dac79-ba98-4096-abba-14ab1b56e9f0",
        "meta": {
          "profile": [
            "http://hl7.eu/fhir/laboratory/StructureDefinition/Observation-resultslab-eu-lab"
          ]
        },
        "performer": [
          {
            "display": "The Central European Lab"
          }
        ],
        "category": [
          {
            "coding": [
              {
                "system": "http://terminology.hl7.org/CodeSystem/observation-category",
                "code": "laboratory"
              }
            ]
          }
        ],
        "code": {
          "coding": [
            {
              "code": "20565-8",
              "system": "http://loinc.org",
              "display": "Carbon dioxide, total [Moles/volume] in Blood"
            }
          ],
          "text": "Carbon dioxide, total [Moles/volume] in Blood"
        },
        "valueQuantity": {
          "system": "http://unitsofmeasure.org",
          "value": 25.1,
          "unit": "mmol/L",
          "code": "mmol/L"
        },
        "referenceRange": [
          {
            "low": {
              "value": 22,
              "code": "mmol/L",
              "system": "http://unitsofmeasure.org"
            }
          },
          {
            "high": {
              "value": 29,
              "code": "mmol/L",
              "system": "http://unitsofmeasure.org"
            }
          }
        ],
        "text": {
          "status": "generated",
          "div": "<div xmlns=\"http://www.w3.org/1999/xhtml\"><table class=\"hl7__eu__lab__report\"><tr><th>Test</th><th>17-Feb-2019</th><th>Reference&#xA0;Range</th><th>Unit</th></tr><tr><td>Carbon dioxide, total [Moles/volume] in Blood</td><td>25.1</td><td>22 - 29</td><td></td><td>mmol/L</td></tr></table></div>"
        },
        "status": "final",
        "subject": {
          "reference": "urn:uuid:62dfffb0-1cdc-4239-a2e1-a91ddac2278e",
          "display": "Iva Kratochvílová"
        },
        "effectiveDateTime": "2019-02-17T16:10:29Z",
        "specimen": {
          "reference": "urn:uuid:9efc702b-2635-48e6-a08f-851b1cd536f7"
        }
      }
    },
    {
      "fullUrl": "urn:uuid:e3b1277a-883e-4d40-ac84-1d03ac1f41c4",
      "resource": {
        "resourceType": "Observation",
        "id": "e3b1277a-883e-4d40-ac84-1d03ac1f41c4",
        "meta": {
          "profile": [
            "http://hl7.eu/fhir/laboratory/StructureDefinition/Observation-resultslab-eu-lab"
          ]
        },
        "performer": [
          {
            "display": "The Central European Lab"
          }
        ],
        "category": [
          {
            "coding": [
              {
                "system": "http://terminology.hl7.org/CodeSystem/observation-category",
                "code": "laboratory"
              }
            ]
          }
        ],
        "code": {
          "coding": [
            {
              "code": "2093-3",
              "system": "http://loinc.org",
              "display": "Cholesterol [Mass/volume] in Serum or Plasma"
            }
          ],
          "text": "Cholesterol [Mass/volume] in Serum or Plasma"
        },
        "valueQuantity": {
          "system": "http://unitsofmeasure.org",
          "value": 195.1,
          "unit": "mg/dL",
          "code": "mg/dL"
        },
        "referenceRange": [
          {
            "low": {
              "value": 130,
              "code": "mg/dL",
              "system": "http://unitsofmeasure.org"
            }
          },
          {
            "high": {
              "value": 200,
              "code": "mg/dL",
              "system": "http://unitsofmeasure.org"
            }
          }
        ],
        "text": {
          "status": "generated",
          "div": "<div xmlns=\"http://www.w3.org/1999/xhtml\"><table class=\"hl7__eu__lab__report\"><tr><th>Test</th><th>17-Feb-2019</th><th>Reference&#xA0;Range</th><th>Unit</th></tr><tr><td>Cholesterol [Mass/volume] in Serum or Plasma</td><td>195.1</td><td>130 - 200</td><td></td><td>mg/dL</td></tr></table></div>"
        },
        "status": "final",
        "subject": {
          "reference": "urn:uuid:62dfffb0-1cdc-4239-a2e1-a91ddac2278e",
          "display": "Iva Kratochvílová"
        },
        "effectiveDateTime": "2019-02-17T16:10:29Z",
        "specimen": {
          "reference": "urn:uuid:ed39f2f3-3cc6-41d0-865c-4ef8a8fc9a0d"
        }
      }
    },
    {
      "fullUrl": "urn:uuid:4f450a79-944a-47fa-8ca0-b297f2a0cbe0",
      "resource": {
        "resourceType": "Observation",
        "id": "4f450a79-944a-47fa-8ca0-b297f2a0cbe0",
        "meta": {
          "profile": [
            "http://hl7.eu/fhir/laboratory/StructureDefinition/Observation-resultslab-eu-lab"
          ]
        },
        "performer": [
          {
            "display": "The Central European Lab"
          }
        ],
        "category": [
          {
            "coding": [
              {
                "system": "http://terminology.hl7.org/CodeSystem/observation-category",
                "code": "laboratory"
              }
            ]
          }
        ],
        "code": {
          "coding": [
            {
              "code": "2571-8",
              "system": "http://loinc.org",
              "display": "Triglyceride [Mass/volume] in Serum or Plasma"
            }
          ],
          "text": "Triglyceride [Mass/volume] in Serum or Plasma"
        },
        "valueQuantity": {
          "system": "http://unitsofmeasure.org",
          "value": 107.6,
          "unit": "mg/dL",
          "code": "mg/dL"
        },
        "referenceRange": [
          {
            "low": {
              "value": 35,
              "code": "mg/dL",
              "system": "http://unitsofmeasure.org"
            }
          },
          {
            "high": {
              "value": 150,
              "code": "mg/dL",
              "system": "http://unitsofmeasure.org"
            }
          }
        ],
        "text": {
          "status": "generated",
          "div": "<div xmlns=\"http://www.w3.org/1999/xhtml\"><table class=\"hl7__eu__lab__report\"><tr><th>Test</th><th>17-Feb-2019</th><th>Reference&#xA0;Range</th><th>Unit</th></tr><tr><td>Triglyceride [Mass/volume] in Serum or Plasma</td><td>107.6</td><td>35 - 150</td><td></td><td>mg/dL</td></tr></table></div>"
        },
        "status": "final",
        "subject": {
          "reference": "urn:uuid:62dfffb0-1cdc-4239-a2e1-a91ddac2278e",
          "display": "Iva Kratochvílová"
        },
        "effectiveDateTime": "2019-02-17T16:10:29Z",
        "specimen": {
          "reference": "urn:uuid:ed39f2f3-3cc6-41d0-865c-4ef8a8fc9a0d"
        }
      }
    },
    {
      "fullUrl": "urn:uuid:e9513792-3d6c-4030-9bb6-bd9ecf4e5134",
      "resource": {
        "resourceType": "Observation",
        "id": "e9513792-3d6c-4030-9bb6-bd9ecf4e5134",
        "meta": {
          "profile": [
            "http://hl7.eu/fhir/laboratory/StructureDefinition/Observation-resultslab-eu-lab"
          ]
        },
        "performer": [
          {
            "display": "The Central European Lab"
          }
        ],
        "category": [
          {
            "coding": [
              {
                "system": "http://terminology.hl7.org/CodeSystem/observation-category",
                "code": "laboratory"
              }
            ]
          }
        ],
        "code": {
          "coding": [
            {
              "code": "18262-6",
              "system": "http://loinc.org",
              "display": "Cholesterol in LDL [Mass/volume] in Serum or Plasma by Direct assay"
            }
          ],
          "text": "Cholesterol in LDL [Mass/volume] in Serum or Plasma by Direct assay"
        },
        "valueQuantity": {
          "system": "http://unitsofmeasure.org",
          "value": 120.6,
          "unit": "mg/dL",
          "code": "mg/dL"
        },
        "referenceRange": [
          {
            "low": {
              "value": 0,
              "code": "mg/dL",
              "system": "http://unitsofmeasure.org"
            }
          },
          {
            "high": {
              "value": 130,
              "code": "mg/dL",
              "system": "http://unitsofmeasure.org"
            }
          }
        ],
        "text": {
          "status": "generated",
          "div": "<div xmlns=\"http://www.w3.org/1999/xhtml\"><table class=\"hl7__eu__lab__report\"><tr><th>Test</th><th>17-Feb-2019</th><th>Reference&#xA0;Range</th><th>Unit</th></tr><tr><td>Cholesterol in LDL [Mass/volume] in Serum or Plasma by Direct assay</td><td>120.6</td><td>0 - 130</td><td></td><td>mg/dL</td></tr></table></div>"
        },
        "status": "final",
        "subject": {
          "reference": "urn:uuid:62dfffb0-1cdc-4239-a2e1-a91ddac2278e",
          "display": "Iva Kratochvílová"
        },
        "effectiveDateTime": "2019-02-17T16:10:29Z",
        "specimen": {
          "reference": "urn:uuid:ed39f2f3-3cc6-41d0-865c-4ef8a8fc9a0d"
        }
      }
    },
    {
      "fullUrl": "urn:uuid:93fd2ada-82e5-46a6-8aa8-7af5f6fdf665",
      "resource": {
        "resourceType": "Observation",
        "id": "93fd2ada-82e5-46a6-8aa8-7af5f6fdf665",
        "meta": {
          "profile": [
            "http://hl7.eu/fhir/laboratory/StructureDefinition/Observation-resultslab-eu-lab"
          ]
        },
        "performer": [
          {
            "display": "The Central European Lab"
          }
        ],
        "category": [
          {
            "coding": [
              {
                "system": "http://terminology.hl7.org/CodeSystem/observation-category",
                "code": "laboratory"
              }
            ]
          }
        ],
        "code": {
          "coding": [
            {
              "code": "2085-9",
              "system": "http://loinc.org",
              "display": "Cholesterol in HDL [Mass/volume] in Serum or Plasma"
            }
          ],
          "text": "Cholesterol in HDL [Mass/volume] in Serum or Plasma"
        },
        "valueQuantity": {
          "system": "http://unitsofmeasure.org",
          "value": 53,
          "unit": "mg/dL",
          "code": "mg/dL"
        },
        "referenceRange": [
          {
            "low": {
              "value": 50,
              "code": "mg/dL",
              "system": "http://unitsofmeasure.org"
            }
          },
          {
            "high": {
              "value": 100,
              "code": "mg/dL",
              "system": "http://unitsofmeasure.org"
            }
          }
        ],
        "text": {
          "status": "generated",
          "div": "<div xmlns=\"http://www.w3.org/1999/xhtml\"><table class=\"hl7__eu__lab__report\"><tr><th>Test</th><th>17-Feb-2019</th><th>Reference&#xA0;Range</th><th>Unit</th></tr><tr><td>Cholesterol in HDL [Mass/volume] in Serum or Plasma</td><td>53.0</td><td>50 - 100</td><td></td><td>mg/dL</td></tr></table></div>"
        },
        "status": "final",
        "subject": {
          "reference": "urn:uuid:62dfffb0-1cdc-4239-a2e1-a91ddac2278e",
          "display": "Iva Kratochvílová"
        },
        "effectiveDateTime": "2019-02-17T16:10:29Z",
        "specimen": {
          "reference": "urn:uuid:ed39f2f3-3cc6-41d0-865c-4ef8a8fc9a0d"
        }
      }
    },
    {
      "fullUrl": "urn:uuid:eef08d6f-731f-4196-a172-4665749fd92b",
      "resource": {
        "resourceType": "Observation",
        "id": "eef08d6f-731f-4196-a172-4665749fd92b",
        "meta": {
          "profile": [
            "http://hl7.eu/fhir/laboratory/StructureDefinition/Observation-resultslab-eu-lab"
          ]
        },
        "performer": [
          {
            "display": "The Central European Lab"
          }
        ],
        "category": [
          {
            "coding": [
              {
                "system": "http://terminology.hl7.org/CodeSystem/observation-category",
                "code": "laboratory"
              }
            ]
          }
        ],
        "code": {
          "coding": [
            {
              "code": "6690-2",
              "system": "http://loinc.org",
              "display": "Leukocytes [#/volume] in Blood by Automated count"
            }
          ],
          "text": "Leukocytes [#/volume] in Blood by Automated count"
        },
        "valueQuantity": {
          "system": "http://unitsofmeasure.org",
          "value": 4,
          "unit": "10*3/uL",
          "code": "10*3/uL"
        },
        "referenceRange": [
          {
            "low": {
              "value": 3.4,
              "code": "10*3/uL",
              "system": "http://unitsofmeasure.org"
            }
          },
          {
            "high": {
              "value": 10.6,
              "code": "10*3/uL",
              "system": "http://unitsofmeasure.org"
            }
          }
        ],
        "text": {
          "status": "generated",
          "div": "<div xmlns=\"http://www.w3.org/1999/xhtml\"><table class=\"hl7__eu__lab__report\"><tr><th>Test</th><th>17-Feb-2019</th><th>Reference&#xA0;Range</th><th>Unit</th></tr><tr><td>Leukocytes [#/volume] in Blood by Automated count</td><td>4.0</td><td>3.4 - 10.6</td><td></td><td>10*3/uL</td></tr></table></div>"
        },
        "status": "final",
        "subject": {
          "reference": "urn:uuid:62dfffb0-1cdc-4239-a2e1-a91ddac2278e",
          "display": "Iva Kratochvílová"
        },
        "effectiveDateTime": "2019-02-17T16:10:29Z",
        "specimen": {
          "reference": "urn:uuid:9efc702b-2635-48e6-a08f-851b1cd536f7"
        }
      }
    },
    {
      "fullUrl": "urn:uuid:cac59e18-a06e-4347-b083-4d3cdc233fec",
      "resource": {
        "resourceType": "Observation",
        "id": "cac59e18-a06e-4347-b083-4d3cdc233fec",
        "meta": {
          "profile": [
            "http://hl7.eu/fhir/laboratory/StructureDefinition/Observation-resultslab-eu-lab"
          ]
        },
        "performer": [
          {
            "display": "The Central European Lab"
          }
        ],
        "category": [
          {
            "coding": [
              {
                "system": "http://terminology.hl7.org/CodeSystem/observation-category",
                "code": "laboratory"
              }
            ]
          }
        ],
        "code": {
          "coding": [
            {
              "code": "789-8",
              "system": "http://loinc.org",
              "display": "Erythrocytes [#/volume] in Blood by Automated count"
            }
          ],
          "text": "Erythrocytes [#/volume] in Blood by Automated count"
        },
        "valueQuantity": {
          "system": "http://unitsofmeasure.org",
          "value": 4,
          "unit": "10*6/uL",
          "code": "10*6/uL"
        },
        "referenceRange": [
          {
            "low": {
              "value": 4.2,
              "code": "10*6/uL",
              "system": "http://unitsofmeasure.org"
            }
          },
          {
            "high": {
              "value": 5.2,
              "code": "10*6/uL",
              "system": "http://unitsofmeasure.org"
            }
          }
        ],
        "interpretation": [
          {
            "coding": [
              {
                "code": "L",
                "system": "http://terminology.hl7.org/CodeSystem/v3-ObservationInterpretation",
                "display": "Low"
              }
            ]
          }
        ],
        "text": {
          "status": "generated",
          "div": "<div xmlns=\"http://www.w3.org/1999/xhtml\"><table class=\"hl7__eu__lab__report\"><tr><th>Test</th><th>17-Feb-2019</th><th>Reference&#xA0;Range</th><th>Unit</th></tr><tr><td>Erythrocytes [#/volume] in Blood by Automated count</td><td>4.0</td><td>4.2 - 5.2</td><td>L</td><td>10*6/uL</td></tr></table></div>"
        },
        "status": "final",
        "subject": {
          "reference": "urn:uuid:62dfffb0-1cdc-4239-a2e1-a91ddac2278e",
          "display": "Iva Kratochvílová"
        },
        "effectiveDateTime": "2019-02-17T16:10:29Z",
        "specimen": {
          "reference": "urn:uuid:9efc702b-2635-48e6-a08f-851b1cd536f7"
        }
      }
    },
    {
      "fullUrl": "urn:uuid:c3a6c0c0-e84c-4d92-908b-b3919fd23051",
      "resource": {
        "resourceType": "Observation",
        "id": "c3a6c0c0-e84c-4d92-908b-b3919fd23051",
        "meta": {
          "profile": [
            "http://hl7.eu/fhir/laboratory/StructureDefinition/Observation-resultslab-eu-lab"
          ]
        },
        "performer": [
          {
            "display": "The Central European Lab"
          }
        ],
        "category": [
          {
            "coding": [
              {
                "system": "http://terminology.hl7.org/CodeSystem/observation-category",
                "code": "laboratory"
              }
            ]
          }
        ],
        "code": {
          "coding": [
            {
              "code": "718-7",
              "system": "http://loinc.org",
              "display": "Hemoglobin [Mass/volume] in Blood"
            }
          ],
          "text": "Hemoglobin [Mass/volume] in Blood"
        },
        "valueQuantity": {
          "system": "http://unitsofmeasure.org",
          "value": 15.7,
          "unit": "g/dL",
          "code": "g/dL"
        },
        "referenceRange": [
          {
            "low": {
              "value": 12,
              "code": "g/dL",
              "system": "http://unitsofmeasure.org"
            }
          },
          {
            "high": {
              "value": 16,
              "code": "g/dL",
              "system": "http://unitsofmeasure.org"
            }
          }
        ],
        "text": {
          "status": "generated",
          "div": "<div xmlns=\"http://www.w3.org/1999/xhtml\"><table class=\"hl7__eu__lab__report\"><tr><th>Test</th><th>17-Feb-2019</th><th>Reference&#xA0;Range</th><th>Unit</th></tr><tr><td>Hemoglobin [Mass/volume] in Blood</td><td>15.7</td><td>12 - 16</td><td></td><td>g/dL</td></tr></table></div>"
        },
        "status": "final",
        "subject": {
          "reference": "urn:uuid:62dfffb0-1cdc-4239-a2e1-a91ddac2278e",
          "display": "Iva Kratochvílová"
        },
        "effectiveDateTime": "2019-02-17T16:10:29Z",
        "specimen": {
          "reference": "urn:uuid:9efc702b-2635-48e6-a08f-851b1cd536f7"
        }
      }
    },
    {
      "fullUrl": "urn:uuid:ba87ddbf-23a1-492b-8ebc-5161004caf3f",
      "resource": {
        "resourceType": "Observation",
        "id": "ba87ddbf-23a1-492b-8ebc-5161004caf3f",
        "meta": {
          "profile": [
            "http://hl7.eu/fhir/laboratory/StructureDefinition/Observation-resultslab-eu-lab"
          ]
        },
        "performer": [
          {
            "display": "The Central European Lab"
          }
        ],
        "category": [
          {
            "coding": [
              {
                "system": "http://terminology.hl7.org/CodeSystem/observation-category",
                "code": "laboratory"
              }
            ]
          }
        ],
        "code": {
          "coding": [
            {
              "code": "4544-3",
              "system": "http://loinc.org",
              "display": "Hematocrit [Volume Fraction] of Blood by Automated count"
            }
          ],
          "text": "Hematocrit [Volume Fraction] of Blood by Automated count"
        },
        "valueQuantity": {
          "system": "http://unitsofmeasure.org",
          "value": 43.3,
          "unit": "%",
          "code": "%"
        },
        "referenceRange": [
          {
            "low": {
              "value": 36,
              "code": "%",
              "system": "http://unitsofmeasure.org"
            }
          },
          {
            "high": {
              "value": 48,
              "code": "%",
              "system": "http://unitsofmeasure.org"
            }
          }
        ],
        "text": {
          "status": "generated",
          "div": "<div xmlns=\"http://www.w3.org/1999/xhtml\"><table class=\"hl7__eu__lab__report\"><tr><th>Test</th><th>17-Feb-2019</th><th>Reference&#xA0;Range</th><th>Unit</th></tr><tr><td>Hematocrit [Volume Fraction] of Blood by Automated count</td><td>43.3</td><td>36 - 48</td><td></td><td>%</td></tr></table></div>"
        },
        "status": "final",
        "subject": {
          "reference": "urn:uuid:62dfffb0-1cdc-4239-a2e1-a91ddac2278e",
          "display": "Iva Kratochvílová"
        },
        "effectiveDateTime": "2019-02-17T16:10:29Z",
        "specimen": {
          "reference": "urn:uuid:9efc702b-2635-48e6-a08f-851b1cd536f7"
        }
      }
    },
    {
      "fullUrl": "urn:uuid:6346289b-152f-454a-8732-d394ec78de8b",
      "resource": {
        "resourceType": "Observation",
        "id": "6346289b-152f-454a-8732-d394ec78de8b",
        "meta": {
          "profile": [
            "http://hl7.eu/fhir/laboratory/StructureDefinition/Observation-resultslab-eu-lab"
          ]
        },
        "performer": [
          {
            "display": "The Central European Lab"
          }
        ],
        "category": [
          {
            "coding": [
              {
                "system": "http://terminology.hl7.org/CodeSystem/observation-category",
                "code": "laboratory"
              }
            ]
          }
        ],
        "code": {
          "coding": [
            {
              "code": "787-2",
              "system": "http://loinc.org",
              "display": "MCV [Entitic volume] by Automated count"
            }
          ],
          "text": "MCV [Entitic volume] by Automated count"
        },
        "valueQuantity": {
          "system": "http://unitsofmeasure.org",
          "value": 91.4,
          "unit": "fL",
          "code": "fL"
        },
        "referenceRange": [
          {
            "low": {
              "value": 82,
              "code": "fL",
              "system": "http://unitsofmeasure.org"
            }
          },
          {
            "high": {
              "value": 98,
              "code": "fL",
              "system": "http://unitsofmeasure.org"
            }
          }
        ],
        "text": {
          "status": "generated",
          "div": "<div xmlns=\"http://www.w3.org/1999/xhtml\"><table class=\"hl7__eu__lab__report\"><tr><th>Test</th><th>17-Feb-2019</th><th>Reference&#xA0;Range</th><th>Unit</th></tr><tr><td>MCV [Entitic volume] by Automated count</td><td>91.4</td><td>82 - 98</td><td></td><td>fL</td></tr></table></div>"
        },
        "status": "final",
        "subject": {
          "reference": "urn:uuid:62dfffb0-1cdc-4239-a2e1-a91ddac2278e",
          "display": "Iva Kratochvílová"
        },
        "effectiveDateTime": "2019-02-17T16:10:29Z",
        "specimen": {
          "reference": "urn:uuid:9efc702b-2635-48e6-a08f-851b1cd536f7"
        }
      }
    },
    {
      "fullUrl": "urn:uuid:b39698c4-0d4e-48de-94b9-a07703ad83cf",
      "resource": {
        "resourceType": "Observation",
        "id": "b39698c4-0d4e-48de-94b9-a07703ad83cf",
        "meta": {
          "profile": [
            "http://hl7.eu/fhir/laboratory/StructureDefinition/Observation-resultslab-eu-lab"
          ]
        },
        "performer": [
          {
            "display": "The Central European Lab"
          }
        ],
        "category": [
          {
            "coding": [
              {
                "system": "http://terminology.hl7.org/CodeSystem/observation-category",
                "code": "laboratory"
              }
            ]
          }
        ],
        "code": {
          "coding": [
            {
              "code": "785-6",
              "system": "http://loinc.org",
              "display": "MCH [Entitic mass] by Automated count"
            }
          ],
          "text": "MCH [Entitic mass] by Automated count"
        },
        "valueQuantity": {
          "system": "http://unitsofmeasure.org",
          "value": 28.7,
          "unit": "pg",
          "code": "pg"
        },
        "referenceRange": [
          {
            "low": {
              "value": 27,
              "code": "pg",
              "system": "http://unitsofmeasure.org"
            }
          },
          {
            "high": {
              "value": 33,
              "code": "pg",
              "system": "http://unitsofmeasure.org"
            }
          }
        ],
        "text": {
          "status": "generated",
          "div": "<div xmlns=\"http://www.w3.org/1999/xhtml\"><table class=\"hl7__eu__lab__report\"><tr><th>Test</th><th>17-Feb-2019</th><th>Reference&#xA0;Range</th><th>Unit</th></tr><tr><td>MCH [Entitic mass] by Automated count</td><td>28.7</td><td>27 - 33</td><td></td><td>pg</td></tr></table></div>"
        },
        "status": "final",
        "subject": {
          "reference": "urn:uuid:62dfffb0-1cdc-4239-a2e1-a91ddac2278e",
          "display": "Iva Kratochvílová"
        },
        "effectiveDateTime": "2019-02-17T16:10:29Z",
        "specimen": {
          "reference": "urn:uuid:9efc702b-2635-48e6-a08f-851b1cd536f7"
        }
      }
    },
    {
      "fullUrl": "urn:uuid:d74319f1-19ab-4ff0-8323-59be04023f63",
      "resource": {
        "resourceType": "Observation",
        "id": "d74319f1-19ab-4ff0-8323-59be04023f63",
        "meta": {
          "profile": [
            "http://hl7.eu/fhir/laboratory/StructureDefinition/Observation-resultslab-eu-lab"
          ]
        },
        "performer": [
          {
            "display": "The Central European Lab"
          }
        ],
        "category": [
          {
            "coding": [
              {
                "system": "http://terminology.hl7.org/CodeSystem/observation-category",
                "code": "laboratory"
              }
            ]
          }
        ],
        "code": {
          "coding": [
            {
              "code": "786-4",
              "system": "http://loinc.org",
              "display": "MCHC [Mass/volume] by Automated count"
            }
          ],
          "text": "MCHC [Mass/volume] by Automated count"
        },
        "valueQuantity": {
          "system": "http://unitsofmeasure.org",
          "value": 33.3,
          "unit": "g/dL",
          "code": "g/dL"
        },
        "referenceRange": [
          {
            "low": {
              "value": 32,
              "code": "g/dL",
              "system": "http://unitsofmeasure.org"
            }
          },
          {
            "high": {
              "value": 37,
              "code": "g/dL",
              "system": "http://unitsofmeasure.org"
            }
          }
        ],
        "text": {
          "status": "generated",
          "div": "<div xmlns=\"http://www.w3.org/1999/xhtml\"><table class=\"hl7__eu__lab__report\"><tr><th>Test</th><th>17-Feb-2019</th><th>Reference&#xA0;Range</th><th>Unit</th></tr><tr><td>MCHC [Mass/volume] by Automated count</td><td>33.3</td><td>32 - 37</td><td></td><td>g/dL</td></tr></table></div>"
        },
        "status": "final",
        "subject": {
          "reference": "urn:uuid:62dfffb0-1cdc-4239-a2e1-a91ddac2278e",
          "display": "Iva Kratochvílová"
        },
        "effectiveDateTime": "2019-02-17T16:10:29Z",
        "specimen": {
          "reference": "urn:uuid:9efc702b-2635-48e6-a08f-851b1cd536f7"
        }
      }
    },
    {
      "fullUrl": "urn:uuid:f1fd2ca7-9156-455d-b9b5-8e2b6ce98dba",
      "resource": {
        "resourceType": "Observation",
        "id": "f1fd2ca7-9156-455d-b9b5-8e2b6ce98dba",
        "meta": {
          "profile": [
            "http://hl7.eu/fhir/laboratory/StructureDefinition/Observation-resultslab-eu-lab"
          ]
        },
        "performer": [
          {
            "display": "The Central European Lab"
          }
        ],
        "category": [
          {
            "coding": [
              {
                "system": "http://terminology.hl7.org/CodeSystem/observation-category",
                "code": "laboratory"
              }
            ]
          }
        ],
        "code": {
          "coding": [
            {
              "code": "21000-5",
              "system": "http://loinc.org",
              "display": "Erythrocyte distribution width [Entitic volume] by Automated count"
            }
          ],
          "text": "Erythrocyte distribution width [Entitic volume] by Automated count"
        },
        "valueQuantity": {
          "system": "http://unitsofmeasure.org",
          "value": 40.9,
          "unit": "fL",
          "code": "fL"
        },
        "referenceRange": [
          {
            "low": {
              "value": 36,
              "code": "fL",
              "system": "http://unitsofmeasure.org"
            }
          },
          {
            "high": {
              "value": 46,
              "code": "fL",
              "system": "http://unitsofmeasure.org"
            }
          }
        ],
        "text": {
          "status": "generated",
          "div": "<div xmlns=\"http://www.w3.org/1999/xhtml\"><table class=\"hl7__eu__lab__report\"><tr><th>Test</th><th>17-Feb-2019</th><th>Reference&#xA0;Range</th><th>Unit</th></tr><tr><td>Erythrocyte distribution width [Entitic volume] by Automated count</td><td>40.9</td><td>36 - 46</td><td></td><td>fL</td></tr></table></div>"
        },
        "status": "final",
        "subject": {
          "reference": "urn:uuid:62dfffb0-1cdc-4239-a2e1-a91ddac2278e",
          "display": "Iva Kratochvílová"
        },
        "effectiveDateTime": "2019-02-17T16:10:29Z",
        "specimen": {
          "reference": "urn:uuid:9efc702b-2635-48e6-a08f-851b1cd536f7"
        }
      }
    },
    {
      "fullUrl": "urn:uuid:02120168-8d81-404e-bf8b-9bda7f994577",
      "resource": {
        "resourceType": "Observation",
        "id": "02120168-8d81-404e-bf8b-9bda7f994577",
        "meta": {
          "profile": [
            "http://hl7.eu/fhir/laboratory/StructureDefinition/Observation-resultslab-eu-lab"
          ]
        },
        "performer": [
          {
            "display": "The Central European Lab"
          }
        ],
        "category": [
          {
            "coding": [
              {
                "system": "http://terminology.hl7.org/CodeSystem/observation-category",
                "code": "laboratory"
              }
            ]
          }
        ],
        "code": {
          "coding": [
            {
              "code": "777-3",
              "system": "http://loinc.org",
              "display": "Platelets [#/volume] in Blood by Automated count"
            }
          ],
          "text": "Platelets [#/volume] in Blood by Automated count"
        },
        "valueQuantity": {
          "system": "http://unitsofmeasure.org",
          "value": 402,
          "unit": "10*3/uL",
          "code": "10*3/uL"
        },
        "referenceRange": [
          {
            "low": {
              "value": 150,
              "code": "10*3/uL",
              "system": "http://unitsofmeasure.org"
            }
          },
          {
            "high": {
              "value": 450,
              "code": "10*3/uL",
              "system": "http://unitsofmeasure.org"
            }
          }
        ],
        "text": {
          "status": "generated",
          "div": "<div xmlns=\"http://www.w3.org/1999/xhtml\"><table class=\"hl7__eu__lab__report\"><tr><th>Test</th><th>17-Feb-2019</th><th>Reference&#xA0;Range</th><th>Unit</th></tr><tr><td>Platelets [#/volume] in Blood by Automated count</td><td>402.0</td><td>150 - 450</td><td></td><td>10*3/uL</td></tr></table></div>"
        },
        "status": "final",
        "subject": {
          "reference": "urn:uuid:62dfffb0-1cdc-4239-a2e1-a91ddac2278e",
          "display": "Iva Kratochvílová"
        },
        "effectiveDateTime": "2019-02-17T16:10:29Z",
        "specimen": {
          "reference": "urn:uuid:9efc702b-2635-48e6-a08f-851b1cd536f7"
        }
      }
    },
    {
      "fullUrl": "urn:uuid:3b86d79d-13c4-41a4-9cb2-ebd85cb627e6",
      "resource": {
        "resourceType": "Observation",
        "id": "3b86d79d-13c4-41a4-9cb2-ebd85cb627e6",
        "meta": {
          "profile": [
            "http://hl7.eu/fhir/laboratory/StructureDefinition/Observation-resultslab-eu-lab"
          ]
        },
        "performer": [
          {
            "display": "The Central European Lab"
          }
        ],
        "category": [
          {
            "coding": [
              {
                "system": "http://terminology.hl7.org/CodeSystem/observation-category",
                "code": "laboratory"
              }
            ]
          }
        ],
        "code": {
          "coding": [
            {
              "code": "32207-3",
              "system": "http://loinc.org",
              "display": "Platelet distribution width [Entitic volume] in Blood by Automated count"
            }
          ],
          "text": "Platelet distribution width [Entitic volume] in Blood by Automated count"
        },
        "valueQuantity": {
          "system": "http://unitsofmeasure.org",
          "value": 298.3,
          "unit": "fL",
          "code": "fL"
        },
        "referenceRange": [
          {
            "low": {
              "value": 11.6,
              "code": "fL",
              "system": "http://unitsofmeasure.org"
            }
          },
          {
            "high": {
              "value": 17.4,
              "code": "fL",
              "system": "http://unitsofmeasure.org"
            }
          }
        ],
        "interpretation": [
          {
            "coding": [
              {
                "code": "H",
                "system": "http://terminology.hl7.org/CodeSystem/v3-ObservationInterpretation",
                "display": "High"
              }
            ]
          }
        ],
        "text": {
          "status": "generated",
          "div": "<div xmlns=\"http://www.w3.org/1999/xhtml\"><table class=\"hl7__eu__lab__report\"><tr><th>Test</th><th>17-Feb-2019</th><th>Reference&#xA0;Range</th><th>Unit</th></tr><tr><td>Platelet distribution width [Entitic volume] in Blood by Automated count</td><td>298.3</td><td>11.6 - 17.4</td><td>H</td><td>fL</td></tr></table></div>"
        },
        "status": "final",
        "subject": {
          "reference": "urn:uuid:62dfffb0-1cdc-4239-a2e1-a91ddac2278e",
          "display": "Iva Kratochvílová"
        },
        "effectiveDateTime": "2019-02-17T16:10:29Z",
        "specimen": {
          "reference": "urn:uuid:9efc702b-2635-48e6-a08f-851b1cd536f7"
        }
      }
    },
    {
      "fullUrl": "urn:uuid:45f084d9-31a9-460b-83cf-fbc29b2f77d9",
      "resource": {
        "resourceType": "Observation",
        "id": "45f084d9-31a9-460b-83cf-fbc29b2f77d9",
        "meta": {
          "profile": [
            "http://hl7.eu/fhir/laboratory/StructureDefinition/Observation-resultslab-eu-lab"
          ]
        },
        "performer": [
          {
            "display": "The Central European Lab"
          }
        ],
        "category": [
          {
            "coding": [
              {
                "system": "http://terminology.hl7.org/CodeSystem/observation-category",
                "code": "laboratory"
              }
            ]
          }
        ],
        "code": {
          "coding": [
            {
              "code": "32623-1",
              "system": "http://loinc.org",
              "display": "Platelet mean volume [Entitic volume] in Blood by Automated count"
            }
          ],
          "text": "Platelet mean volume [Entitic volume] in Blood by Automated count"
        },
        "valueQuantity": {
          "system": "http://unitsofmeasure.org",
          "value": 10.2,
          "unit": "fL",
          "code": "fL"
        },
        "referenceRange": [
          {
            "low": {
              "value": 7.4,
              "code": "fL",
              "system": "http://unitsofmeasure.org"
            }
          },
          {
            "high": {
              "value": 12,
              "code": "fL",
              "system": "http://unitsofmeasure.org"
            }
          }
        ],
        "text": {
          "status": "generated",
          "div": "<div xmlns=\"http://www.w3.org/1999/xhtml\"><table class=\"hl7__eu__lab__report\"><tr><th>Test</th><th>17-Feb-2019</th><th>Reference&#xA0;Range</th><th>Unit</th></tr><tr><td>Platelet mean volume [Entitic volume] in Blood by Automated count</td><td>10.2</td><td>7.4 - 12</td><td></td><td>fL</td></tr></table></div>"
        },
        "status": "final",
        "subject": {
          "reference": "urn:uuid:62dfffb0-1cdc-4239-a2e1-a91ddac2278e",
          "display": "Iva Kratochvílová"
        },
        "effectiveDateTime": "2019-02-17T16:10:29Z",
        "specimen": {
          "reference": "urn:uuid:9efc702b-2635-48e6-a08f-851b1cd536f7"
        }
      }
    },
    {
      "fullUrl": "urn:uuid:742bac2b-d2a6-4aae-8f1e-c03d6c8ba687",
      "resource": {
        "resourceType": "Device",
        "id": "742bac2b-d2a6-4aae-8f1e-c03d6c8ba687",
        "deviceName": [
          {
            "name": "SYNDERAI Synthetic Generator",
            "type": "manufacturer-name"
          }
        ],
        "version": [
          {
            "value": "5.0"
          }
        ],
        "text": {
          "status": "generated",
          "div": "<div xmlns=\"http://www.w3.org/1999/xhtml\">SYNDERAI Synthetic Generator v5.0</div>"
        },
        "status": "active\"",
        "distinctIdentifier": "synderai-generator-50",
        "manufacturer": "SYNDERAI Project"
      }
    },
    {
      "fullUrl": "urn:uuid:94e6f002-5f0a-4d92-8818-c3d676b85aa7",
      "resource": {
        "resourceType": "Provenance",
        "id": "94e6f002-5f0a-4d92-8818-c3d676b85aa7",
        "target": [
          {
            "reference": "Patient/62dfffb0-1cdc-4239-a2e1-a91ddac2278e"
          },
          {
            "reference": "Bundle/43a6a7b9-1328-49b1-9915-1dac23770c99"
          },
          {
            "reference": "Composition/28f5dabe-e0c6-4044-bc8a-923b85a10242"
          },
          {
            "reference": "PractitionerRole/a6387ef3-18a2-4c55-828a-a1a857a00cb2"
          },
          {
            "reference": "Practitioner/38b0ce38-f847-4e72-a8ce-4410a53e454f"
          },
          {
            "reference": "PractitionerRole/e65da907-73f6-4d30-9475-32f7d8ba7a63"
          },
          {
            "reference": "Organization/713f5752-84d6-4021-ba12-81a07d412f60"
          }
        ],
        "activity": {
          "text": "Synthetic Example Data Generation"
        },
        "policy": [
          "https://synderai.net/synderai-synthetic-data-policy"
        ],
        "agent": [
          {
            "type": {
              "text": "author"
            },
            "who": {
              "reference": "Device/742bac2b-d2a6-4aae-8f1e-c03d6c8ba687"
            }
          }
        ],
        "reason": [
          {
            "text": "Interoperability Testing and Training (non-clinical use)"
          }
        ],
        "text": {
          "status": "generated",
          "div": "<div xmlns=\"http://www.w3.org/1999/xhtml\">Provenance for SYNDERAI Synthetic Example Data Resource</div>"
        },
        "recorded": "2019-02-17T17:10:29Z"
      }
    },
    {
      "fullUrl": "urn:uuid:a6387ef3-18a2-4c55-828a-a1a857a00cb2",
      "resource": {
        "resourceType": "PractitionerRole",
        "id": "a6387ef3-18a2-4c55-828a-a1a857a00cb2",
        "meta": {
          "profile": [
            "http://hl7.eu/fhir/base/StructureDefinition/practitionerRole-eu"
          ]
        },
        "text": {
          "status": "generated",
          "div": "<div xmlns=\"http://www.w3.org/1999/xhtml\">Laboratory Role Id: a6387ef3-18a2-4c55-828a-a1a857a00cb2</div>"
        },
        "practitioner": {
          "reference": "urn:uuid:38b0ce38-f847-4e72-a8ce-4410a53e454f"
        }
      }
    },
    {
      "fullUrl": "urn:uuid:38b0ce38-f847-4e72-a8ce-4410a53e454f",
      "resource": {
        "resourceType": "Practitioner",
        "id": "38b0ce38-f847-4e72-a8ce-4410a53e454f",
        "meta": {
          "profile": [
            "http://hl7.eu/fhir/base/StructureDefinition/practitioner-eu"
          ]
        },
        "identifier": [
          {
            "assigner": {
              "display": "HL7 Europe"
            },
            "system": "urn:oid:2.16.840.1.113883.2.51.999",
            "value": "012a8601-eaf4-4746-ae5d-a1adf9b157a4"
          }
        ],
        "name": [
          {
            "prefix": [
              "dr"
            ],
            "given": [
              "Ex"
            ],
            "family": "Ample"
          }
        ],
        "address": [
          {
            "line": [
              "Laboratoire Central Européenne",
              "Boulevard du Jardin Botanique 32"
            ],
            "postalCode": "1000",
            "city": "Brussels",
            "country": "Belgium"
          }
        ],
        "text": {
          "status": "generated",
          "div": "<div xmlns=\"http://www.w3.org/1999/xhtml\">Laboratory: Laboratoire Central Européenne, 1000 Brussels, Belgium</div>"
        }
      }
    }
  ],
  "type": "document",
  "timestamp": "2019-02-17T17:10:29Z"
}
