{
  "resourceType": "Bundle",
  "id": "8e39b80d-b96e-43e1-bede-e1a37b1eb105",
  "meta": {
    "profile": [
      "http://hl7.eu/fhir/laboratory/StructureDefinition/Bundle-eu-lab"
    ]
  },
  "identifier": {
    "assigner": {
      "display": "HL7 Europe"
    },
    "system": "urn:oid:2.16.840.1.113883.2.51.999",
    "value": "cd970502-d277-4811-a39a-ec2082ef3479"
  },
  "entry": [
    {
      "fullUrl": "urn:uuid:910fe9fe-a4cb-407e-afaa-09a1936b003f",
      "resource": {
        "resourceType": "Composition",
        "id": "910fe9fe-a4cb-407e-afaa-09a1936b003f",
        "meta": {
          "profile": [
            "http://hl7.eu/fhir/laboratory/StructureDefinition/Composition-eu-lab"
          ]
        },
        "identifier": {
          "assigner": {
            "display": "HL7 Europe"
          },
          "system": "urn:oid:2.16.840.1.113883.2.51.999",
          "value": "7e6f1259-4786-40f2-94e1-88e34db3cacc"
        },
        "author": [
          {
            "reference": "urn:uuid:ffd91a3e-cddc-4dd0-a65b-8504bbcc7d31"
          }
        ],
        "category": [
          {
            "coding": [
              {
                "code": "26436-6",
                "system": "http://loinc.org",
                "display": "Laboratory studies (set)"
              }
            ]
          }
        ],
        "type": {
          "coding": [
            {
              "code": "11502-2",
              "system": "http://loinc.org",
              "display": "Laboratory report"
            }
          ],
          "text": "Laboratory Report"
        },
        "section": [
          {
            "code": {
              "coding": [
                {
                  "code": "26436-6",
                  "system": "http://loinc.org",
                  "display": "Laboratory studies (set)"
                }
              ],
              "text": "Laboratory studies"
            },
            "section": [
              {
                "code": {
                  "coding": [
                    {
                      "code": "$18719-5",
                      "system": "http://loinc.org",
                      "display": "Chemistry studies (set)"
                    }
                  ],
                  "text": "Chemistry"
                },
                "entry": [
                  {
                    "reference": "urn:uuid:8755fbba-d1a9-41e3-a05d-7e86df7551e1"
                  },
                  {
                    "reference": "urn:uuid:f4bbd5bc-89b2-408a-8ef2-1880f028451d"
                  },
                  {
                    "reference": "urn:uuid:71a8bce0-5d70-43dc-8f7d-da83febfe889"
                  },
                  {
                    "reference": "urn:uuid:3b9785d5-29b1-4c02-a06f-5b657906e675"
                  },
                  {
                    "reference": "urn:uuid:44e4f05d-d92d-423b-995d-8e6664237473"
                  },
                  {
                    "reference": "urn:uuid:71ce4646-9448-4fec-a94c-23d50c06088a"
                  },
                  {
                    "reference": "urn:uuid:d88d2427-d8c3-4c82-af48-30a5a0747a8c"
                  },
                  {
                    "reference": "urn:uuid:aaa73c80-57de-409d-a961-c79aa1f9c639"
                  },
                  {
                    "reference": "urn:uuid:8226e867-1fc2-43c4-b6c5-bc87841621a8"
                  }
                ],
                "text": {
                  "status": "generated",
                  "div": "<div xmlns=\"http://www.w3.org/1999/xhtml\"><h3>Chemistry</h3><table class=\"hl7__eu__lab__report\"><thead><tr><th>Test</th><th>23-JAN-2020</th><th>Reference&#xA0;Range</th><th>Unit</th></tr></thead><tbody><tr><td>Hemoglobin A1c/Hemoglobin.total in Blood</td><td>6.2</td><td>4.5 - 6.4</td><td>%</td></tr><tr><td>Glucose [Mass/volume] in Blood</td><td>90.1</td><td>70 - 99</td><td>mg/dL</td></tr><tr><td>Urea nitrogen [Mass/volume] in Blood</td><td>14.5</td><td>7 - 20</td><td>mg/dL</td></tr><tr><td>Creatinine [Mass/volume] in Blood</td><td>1.3</td><td>0.7 - 1.3</td><td>mg/dL</td></tr><tr><td>Calcium [Mass/volume] in Blood</td><td>8.9</td><td>8.5 - 10.5</td><td>mg/dL</td></tr><tr><td>Sodium [Moles/volume] in Blood</td><td>139.7</td><td>135 - 145</td><td>mmol/L</td></tr><tr><td>Potassium [Moles/volume] in Blood</td><td>4.8</td><td>3.5 - 5.3</td><td>mmol/L</td></tr><tr><td>Chloride [Moles/volume] in Blood</td><td>110.0</td><td>98 - 110</td><td>mmol/L</td></tr><tr><td>Carbon dioxide, total [Moles/volume] in Blood</td><td>28.0</td><td>22 - 29</td><td>mmol/L</td></tr></tbody></table></div>"
                },
                "title": "Chemistry"
              }
            ],
            "title": "Laboratory Report"
          },
          {
            "text": {
              "status": "generated",
              "div": "<div xmlns=\"http://www.w3.org/1999/xhtml\"><h3>Annotation</h3><table class=\"hl7__eu__lab__report\"><tr><th>Conclusion and Recommendations based on this report and previous findings known to us</th></tr><tr><td>All measured parameters are within normal limits, with HbA1c at the upper end of normal, suggesting good but borderline glycemic control. Renal function (urea, creatinine), electrolytes, and calcium are normal. No acute laboratory abnormalities detected; recommend continued monitoring of glycemic status.</td></tr></table></div>"
            },
            "code": {
              "coding": [
                {
                  "system": "http://loinc.org",
                  "code": "48767-8",
                  "display": "Annotation comment"
                }
              ]
            },
            "title": "Annotation comment"
          }
        ],
        "status": "final",
        "subject": {
          "reference": "urn:uuid:a7d28ad0-153a-42d5-9e83-4fe5ba257e65",
          "display": "Alfred Rémy"
        },
        "date": "2020-01-23T07:54:36Z",
        "title": "Laboratory Report",
        "confidentiality": "N"
      }
    },
    {
      "fullUrl": "urn:uuid:c3cdddd4-9d0e-4b6f-8f27-17f306f42b32",
      "resource": {
        "resourceType": "DiagnosticReport",
        "id": "c3cdddd4-9d0e-4b6f-8f27-17f306f42b32",
        "meta": {
          "profile": [
            "http://hl7.eu/fhir/laboratory/StructureDefinition/DiagnosticReport-eu-lab"
          ]
        },
        "identifier": [
          {
            "assigner": {
              "display": "HL7 Europe"
            },
            "system": "urn:oid:2.16.840.1.113883.2.51.999",
            "value": "6474a844-f911-417e-a19c-9baef1479c60"
          }
        ],
        "extension": [
          {
            "url": "http://hl7.org/fhir/5.0/StructureDefinition/extension-DiagnosticReport.composition",
            "valueReference": {
              "reference": "urn:uuid:7e6f1259-4786-40f2-94e1-88e34db3cacc"
            }
          }
        ],
        "category": [
          {
            "coding": [
              {
                "code": "26436-6",
                "system": "http://loinc.org",
                "display": "Laboratory studies (set)"
              }
            ]
          }
        ],
        "specimen": [
          {
            "reference": "urn:uuid:c4809398-1963-47b1-9274-52ecf31743f4"
          }
        ],
        "result": [
          {
            "reference": "urn:uuid:8755fbba-d1a9-41e3-a05d-7e86df7551e1"
          },
          {
            "reference": "urn:uuid:f4bbd5bc-89b2-408a-8ef2-1880f028451d"
          },
          {
            "reference": "urn:uuid:71a8bce0-5d70-43dc-8f7d-da83febfe889"
          },
          {
            "reference": "urn:uuid:3b9785d5-29b1-4c02-a06f-5b657906e675"
          },
          {
            "reference": "urn:uuid:44e4f05d-d92d-423b-995d-8e6664237473"
          },
          {
            "reference": "urn:uuid:71ce4646-9448-4fec-a94c-23d50c06088a"
          },
          {
            "reference": "urn:uuid:d88d2427-d8c3-4c82-af48-30a5a0747a8c"
          },
          {
            "reference": "urn:uuid:aaa73c80-57de-409d-a961-c79aa1f9c639"
          },
          {
            "reference": "urn:uuid:8226e867-1fc2-43c4-b6c5-bc87841621a8"
          }
        ],
        "status": "registered",
        "code": {
          "coding": [
            {
              "code": "11502-2",
              "system": "http://loinc.org",
              "display": "Laboratory report"
            }
          ]
        },
        "subject": {
          "reference": "urn:uuid:a7d28ad0-153a-42d5-9e83-4fe5ba257e65",
          "display": "Alfred Rémy"
        }
      }
    },
    {
      "fullUrl": "urn:uuid:a7d28ad0-153a-42d5-9e83-4fe5ba257e65",
      "resource": {
        "resourceType": "Patient",
        "id": "a7d28ad0-153a-42d5-9e83-4fe5ba257e65",
        "meta": {
          "security": [
            {
              "system": "http://terminology.hl7.org/CodeSystem/v3-ActReason",
              "code": "HTEST"
            },
            {
              "system": "http://terminology.hl7.org/CodeSystem/v3-ActReason",
              "code": "TRAIN"
            }
          ],
          "tag": [
            {
              "system": "https://synderai.net/fhir/CodeSystem/tags",
              "code": "synthetic",
              "display": "SYNDERAI Synthetic data"
            }
          ],
          "profile": [
            "http://hl7.eu/fhir/base/StructureDefinition/patient-eu-core"
          ]
        },
        "identifier": [
          {
            "type": {
              "coding": [
                {
                  "code": "PT",
                  "system": "http://terminology.hl7.org/CodeSystem/v2-0203"
                }
              ]
            },
            "system": "http://ec.europa.eu/identifier/eci",
            "value": "9962-084919-2"
          },
          {
            "type": {
              "coding": [
                {
                  "code": "MR",
                  "system": "http://terminology.hl7.org/CodeSystem/v2-0203"
                }
              ]
            },
            "system": "http://local.setting.eu/identifier",
            "value": "cc3b7d7f-bed4-5811-99b9-3468e2f4203c"
          }
        ],
        "name": [
          {
            "family": "Rémy"
          },
          {
            "given": [
              "Alfred"
            ]
          },
          {
            "text": "Alfred Rémy"
          }
        ],
        "address": [
          {
            "line": [
              "88, rue de Jacquot"
            ],
            "use": "home",
            "type": "physical",
            "postalCode": "75018",
            "city": "Paris",
            "country": "France"
          }
        ],
        "telecom": [
          {
            "system": "phone",
            "value": "+33 (0)4 73 74 17 67"
          }
        ],
        "extension": [
          {
            "url": "http://hl7.org/fhir/StructureDefinition/patient-nationality",
            "valueCodeableConcept": {
              "coding": [
                {
                  "code": "FR",
                  "system": "http://hl7.org/fhir/ValueSet/country"
                }
              ]
            }
          }
        ],
        "text": {
          "status": "generated",
          "div": "<div xmlns=\"http://www.w3.org/1999/xhtml\"><table class=\"hl7__ips\"><tr><td>Alfred Rémy</td><td>male</td><td>05-Jul-1967</td></tr></table></div>"
        },
        "gender": "male",
        "birthDate": "1967-07-05"
      }
    },
    {
      "fullUrl": "urn:uuid:f1146caf-72d7-4701-bfda-6f61c6444c8b",
      "resource": {
        "resourceType": "ServiceRequest",
        "id": "f1146caf-72d7-4701-bfda-6f61c6444c8b",
        "meta": {
          "profile": [
            "http://hl7.eu/fhir/laboratory/StructureDefinition/ServiceRequest-eu-lab"
          ]
        },
        "identifier": [
          {
            "system": "http://example.org",
            "value": "6eb6ca16-e256-4e7e-b613-4695b724ccd2"
          }
        ],
        "specimen": [
          {
            "reference": "urn:uuid:c4809398-1963-47b1-9274-52ecf31743f4"
          }
        ],
        "reasonCode": [
          {
            "coding": [
              {
                "code": "271737000",
                "system": "http://snomed.info/sct",
                "display": "Anemia"
              }
            ]
          },
          {
            "coding": [
              {
                "code": "15777000",
                "system": "http://snomed.info/sct",
                "display": "Prediabetes"
              }
            ]
          }
        ],
        "status": "active",
        "intent": "order",
        "code": {
          "coding": [
            {
              "code": "108252007",
              "system": "http://snomed.info/sct",
              "display": "Laboratory procedure"
            }
          ]
        },
        "subject": {
          "reference": "urn:uuid:a7d28ad0-153a-42d5-9e83-4fe5ba257e65",
          "display": "Alfred Rémy"
        },
        "requester": {
          "reference": "urn:uuid:accf055e-6489-4302-bae4-39d8bc501e6c"
        }
      }
    },
    {
      "fullUrl": "urn:uuid:accf055e-6489-4302-bae4-39d8bc501e6c",
      "resource": {
        "resourceType": "PractitionerRole",
        "id": "accf055e-6489-4302-bae4-39d8bc501e6c",
        "meta": {
          "profile": [
            "http://hl7.eu/fhir/base/StructureDefinition/practitionerRole-eu"
          ]
        },
        "text": {
          "status": "generated",
          "div": "<div xmlns=\"http://www.w3.org/1999/xhtml\">Provider Role Id: accf055e-6489-4302-bae4-39d8bc501e6c</div>"
        },
        "organization": {
          "reference": "urn:uuid:08577e49-69fe-4631-abdc-5cdfd1823c67"
        }
      }
    },
    {
      "fullUrl": "urn:uuid:08577e49-69fe-4631-abdc-5cdfd1823c67",
      "resource": {
        "resourceType": "Organization",
        "id": "08577e49-69fe-4631-abdc-5cdfd1823c67",
        "meta": {
          "profile": [
            "http://hl7.eu/fhir/base/StructureDefinition/organization-eu"
          ]
        },
        "identifier": [
          {
            "assigner": {
              "display": "HL7 Europe"
            },
            "system": "urn:oid:2.16.840.1.113883.2.51.999",
            "value": "c836be2e-eb6f-446d-ba15-deba6854b0ea"
          }
        ],
        "address": [
          {
            "city": "Paris",
            "postalCode": "75005",
            "country": "France"
          }
        ],
        "text": {
          "status": "generated",
          "div": "<div xmlns=\"http://www.w3.org/1999/xhtml\">Provider Organization: Maison des parents Irène Joliot-Curie</div>"
        },
        "name": "Maison des parents Irène Joliot-Curie"
      }
    },
    {
      "fullUrl": "urn:uuid:c4809398-1963-47b1-9274-52ecf31743f4",
      "resource": {
        "resourceType": "Specimen",
        "id": "c4809398-1963-47b1-9274-52ecf31743f4",
        "meta": {
          "profile": [
            "http://hl7.eu/fhir/laboratory/StructureDefinition/Specimen-eu-lab"
          ]
        },
        "collection": {
          "collectedDateTime": "2020-01-23"
        },
        "text": {
          "status": "generated",
          "div": "<div xmlns=\"http://www.w3.org/1999/xhtml\"><table class=\"hl7__eu__lab__report\"><tr><th>Specimen</th><th>Collection Date</th></tr><tr><td>Whole blood specimen (specimen)</td><td><span class=\"nb\">23-Jan-2020</span></td></tr></table></div>"
        },
        "type": {
          "coding": [
            {
              "code": "258580003",
              "system": "http://snomed.info/sct",
              "display": "Whole blood specimen (specimen)"
            }
          ]
        }
      }
    },
    {
      "fullUrl": "urn:uuid:8755fbba-d1a9-41e3-a05d-7e86df7551e1",
      "resource": {
        "resourceType": "Observation",
        "id": "8755fbba-d1a9-41e3-a05d-7e86df7551e1",
        "meta": {
          "profile": [
            "http://hl7.eu/fhir/laboratory/StructureDefinition/Observation-resultslab-eu-lab"
          ]
        },
        "performer": [
          {
            "display": "The Central European Lab"
          }
        ],
        "category": [
          {
            "coding": [
              {
                "system": "http://terminology.hl7.org/CodeSystem/observation-category",
                "code": "laboratory"
              }
            ]
          }
        ],
        "code": {
          "coding": [
            {
              "code": "4548-4",
              "system": "http://loinc.org",
              "display": "Hemoglobin A1c/Hemoglobin.total in Blood"
            }
          ],
          "text": "Hemoglobin A1c/Hemoglobin.total in Blood"
        },
        "valueQuantity": {
          "system": "http://unitsofmeasure.org",
          "value": 6.2,
          "unit": "%",
          "code": "%"
        },
        "referenceRange": [
          {
            "low": {
              "value": 4.5,
              "code": "%",
              "system": "http://unitsofmeasure.org"
            }
          },
          {
            "high": {
              "value": 6.4,
              "code": "%",
              "system": "http://unitsofmeasure.org"
            }
          }
        ],
        "text": {
          "status": "generated",
          "div": "<div xmlns=\"http://www.w3.org/1999/xhtml\"><table class=\"hl7__eu__lab__report\"><tr><th>Test</th><th>23-Jan-2020</th><th>Reference&#xA0;Range</th><th>Unit</th></tr><tr><td>Hemoglobin A1c/Hemoglobin.total in Blood</td><td>6.2</td><td>4.5 - 6.4</td><td></td><td>%</td></tr></table></div>"
        },
        "status": "final",
        "subject": {
          "reference": "urn:uuid:a7d28ad0-153a-42d5-9e83-4fe5ba257e65",
          "display": "Alfred Rémy"
        },
        "effectiveDateTime": "2020-01-23T06:54:36Z",
        "specimen": {
          "reference": "urn:uuid:c4809398-1963-47b1-9274-52ecf31743f4"
        }
      }
    },
    {
      "fullUrl": "urn:uuid:f4bbd5bc-89b2-408a-8ef2-1880f028451d",
      "resource": {
        "resourceType": "Observation",
        "id": "f4bbd5bc-89b2-408a-8ef2-1880f028451d",
        "meta": {
          "profile": [
            "http://hl7.eu/fhir/laboratory/StructureDefinition/Observation-resultslab-eu-lab"
          ]
        },
        "performer": [
          {
            "display": "The Central European Lab"
          }
        ],
        "category": [
          {
            "coding": [
              {
                "system": "http://terminology.hl7.org/CodeSystem/observation-category",
                "code": "laboratory"
              }
            ]
          }
        ],
        "code": {
          "coding": [
            {
              "code": "2339-0",
              "system": "http://loinc.org",
              "display": "Glucose [Mass/volume] in Blood"
            }
          ],
          "text": "Glucose [Mass/volume] in Blood"
        },
        "valueQuantity": {
          "system": "http://unitsofmeasure.org",
          "value": 90.1,
          "unit": "mg/dL",
          "code": "mg/dL"
        },
        "referenceRange": [
          {
            "low": {
              "value": 70,
              "code": "mg/dL",
              "system": "http://unitsofmeasure.org"
            }
          },
          {
            "high": {
              "value": 99,
              "code": "mg/dL",
              "system": "http://unitsofmeasure.org"
            }
          }
        ],
        "text": {
          "status": "generated",
          "div": "<div xmlns=\"http://www.w3.org/1999/xhtml\"><table class=\"hl7__eu__lab__report\"><tr><th>Test</th><th>23-Jan-2020</th><th>Reference&#xA0;Range</th><th>Unit</th></tr><tr><td>Glucose [Mass/volume] in Blood</td><td>90.1</td><td>70 - 99</td><td></td><td>mg/dL</td></tr></table></div>"
        },
        "status": "final",
        "subject": {
          "reference": "urn:uuid:a7d28ad0-153a-42d5-9e83-4fe5ba257e65",
          "display": "Alfred Rémy"
        },
        "effectiveDateTime": "2020-01-23T06:54:36Z",
        "specimen": {
          "reference": "urn:uuid:c4809398-1963-47b1-9274-52ecf31743f4"
        }
      }
    },
    {
      "fullUrl": "urn:uuid:71a8bce0-5d70-43dc-8f7d-da83febfe889",
      "resource": {
        "resourceType": "Observation",
        "id": "71a8bce0-5d70-43dc-8f7d-da83febfe889",
        "meta": {
          "profile": [
            "http://hl7.eu/fhir/laboratory/StructureDefinition/Observation-resultslab-eu-lab"
          ]
        },
        "performer": [
          {
            "display": "The Central European Lab"
          }
        ],
        "category": [
          {
            "coding": [
              {
                "system": "http://terminology.hl7.org/CodeSystem/observation-category",
                "code": "laboratory"
              }
            ]
          }
        ],
        "code": {
          "coding": [
            {
              "code": "6299-2",
              "system": "http://loinc.org",
              "display": "Urea nitrogen [Mass/volume] in Blood"
            }
          ],
          "text": "Urea nitrogen [Mass/volume] in Blood"
        },
        "valueQuantity": {
          "system": "http://unitsofmeasure.org",
          "value": 14.5,
          "unit": "mg/dL",
          "code": "mg/dL"
        },
        "referenceRange": [
          {
            "low": {
              "value": 7,
              "code": "mg/dL",
              "system": "http://unitsofmeasure.org"
            }
          },
          {
            "high": {
              "value": 20,
              "code": "mg/dL",
              "system": "http://unitsofmeasure.org"
            }
          }
        ],
        "text": {
          "status": "generated",
          "div": "<div xmlns=\"http://www.w3.org/1999/xhtml\"><table class=\"hl7__eu__lab__report\"><tr><th>Test</th><th>23-Jan-2020</th><th>Reference&#xA0;Range</th><th>Unit</th></tr><tr><td>Urea nitrogen [Mass/volume] in Blood</td><td>14.5</td><td>7 - 20</td><td></td><td>mg/dL</td></tr></table></div>"
        },
        "status": "final",
        "subject": {
          "reference": "urn:uuid:a7d28ad0-153a-42d5-9e83-4fe5ba257e65",
          "display": "Alfred Rémy"
        },
        "effectiveDateTime": "2020-01-23T06:54:36Z",
        "specimen": {
          "reference": "urn:uuid:c4809398-1963-47b1-9274-52ecf31743f4"
        }
      }
    },
    {
      "fullUrl": "urn:uuid:3b9785d5-29b1-4c02-a06f-5b657906e675",
      "resource": {
        "resourceType": "Observation",
        "id": "3b9785d5-29b1-4c02-a06f-5b657906e675",
        "meta": {
          "profile": [
            "http://hl7.eu/fhir/laboratory/StructureDefinition/Observation-resultslab-eu-lab"
          ]
        },
        "performer": [
          {
            "display": "The Central European Lab"
          }
        ],
        "category": [
          {
            "coding": [
              {
                "system": "http://terminology.hl7.org/CodeSystem/observation-category",
                "code": "laboratory"
              }
            ]
          }
        ],
        "code": {
          "coding": [
            {
              "code": "38483-4",
              "system": "http://loinc.org",
              "display": "Creatinine [Mass/volume] in Blood"
            }
          ],
          "text": "Creatinine [Mass/volume] in Blood"
        },
        "valueQuantity": {
          "system": "http://unitsofmeasure.org",
          "value": 1.3,
          "unit": "mg/dL",
          "code": "mg/dL"
        },
        "referenceRange": [
          {
            "low": {
              "value": 0.7,
              "code": "mg/dL",
              "system": "http://unitsofmeasure.org"
            }
          },
          {
            "high": {
              "value": 1.3,
              "code": "mg/dL",
              "system": "http://unitsofmeasure.org"
            }
          }
        ],
        "text": {
          "status": "generated",
          "div": "<div xmlns=\"http://www.w3.org/1999/xhtml\"><table class=\"hl7__eu__lab__report\"><tr><th>Test</th><th>23-Jan-2020</th><th>Reference&#xA0;Range</th><th>Unit</th></tr><tr><td>Creatinine [Mass/volume] in Blood</td><td>1.3</td><td>0.7 - 1.3</td><td></td><td>mg/dL</td></tr></table></div>"
        },
        "status": "final",
        "subject": {
          "reference": "urn:uuid:a7d28ad0-153a-42d5-9e83-4fe5ba257e65",
          "display": "Alfred Rémy"
        },
        "effectiveDateTime": "2020-01-23T06:54:36Z",
        "specimen": {
          "reference": "urn:uuid:c4809398-1963-47b1-9274-52ecf31743f4"
        }
      }
    },
    {
      "fullUrl": "urn:uuid:44e4f05d-d92d-423b-995d-8e6664237473",
      "resource": {
        "resourceType": "Observation",
        "id": "44e4f05d-d92d-423b-995d-8e6664237473",
        "meta": {
          "profile": [
            "http://hl7.eu/fhir/laboratory/StructureDefinition/Observation-resultslab-eu-lab"
          ]
        },
        "performer": [
          {
            "display": "The Central European Lab"
          }
        ],
        "category": [
          {
            "coding": [
              {
                "system": "http://terminology.hl7.org/CodeSystem/observation-category",
                "code": "laboratory"
              }
            ]
          }
        ],
        "code": {
          "coding": [
            {
              "code": "49765-1",
              "system": "http://loinc.org",
              "display": "Calcium [Mass/volume] in Blood"
            }
          ],
          "text": "Calcium [Mass/volume] in Blood"
        },
        "valueQuantity": {
          "system": "http://unitsofmeasure.org",
          "value": 8.9,
          "unit": "mg/dL",
          "code": "mg/dL"
        },
        "referenceRange": [
          {
            "low": {
              "value": 8.5,
              "code": "mg/dL",
              "system": "http://unitsofmeasure.org"
            }
          },
          {
            "high": {
              "value": 10.5,
              "code": "mg/dL",
              "system": "http://unitsofmeasure.org"
            }
          }
        ],
        "text": {
          "status": "generated",
          "div": "<div xmlns=\"http://www.w3.org/1999/xhtml\"><table class=\"hl7__eu__lab__report\"><tr><th>Test</th><th>23-Jan-2020</th><th>Reference&#xA0;Range</th><th>Unit</th></tr><tr><td>Calcium [Mass/volume] in Blood</td><td>8.9</td><td>8.5 - 10.5</td><td></td><td>mg/dL</td></tr></table></div>"
        },
        "status": "final",
        "subject": {
          "reference": "urn:uuid:a7d28ad0-153a-42d5-9e83-4fe5ba257e65",
          "display": "Alfred Rémy"
        },
        "effectiveDateTime": "2020-01-23T06:54:36Z",
        "specimen": {
          "reference": "urn:uuid:c4809398-1963-47b1-9274-52ecf31743f4"
        }
      }
    },
    {
      "fullUrl": "urn:uuid:71ce4646-9448-4fec-a94c-23d50c06088a",
      "resource": {
        "resourceType": "Observation",
        "id": "71ce4646-9448-4fec-a94c-23d50c06088a",
        "meta": {
          "profile": [
            "http://hl7.eu/fhir/laboratory/StructureDefinition/Observation-resultslab-eu-lab"
          ]
        },
        "performer": [
          {
            "display": "The Central European Lab"
          }
        ],
        "category": [
          {
            "coding": [
              {
                "system": "http://terminology.hl7.org/CodeSystem/observation-category",
                "code": "laboratory"
              }
            ]
          }
        ],
        "code": {
          "coding": [
            {
              "code": "2947-0",
              "system": "http://loinc.org",
              "display": "Sodium [Moles/volume] in Blood"
            }
          ],
          "text": "Sodium [Moles/volume] in Blood"
        },
        "valueQuantity": {
          "system": "http://unitsofmeasure.org",
          "value": 139.7,
          "unit": "mmol/L",
          "code": "mmol/L"
        },
        "referenceRange": [
          {
            "low": {
              "value": 135,
              "code": "mmol/L",
              "system": "http://unitsofmeasure.org"
            }
          },
          {
            "high": {
              "value": 145,
              "code": "mmol/L",
              "system": "http://unitsofmeasure.org"
            }
          }
        ],
        "text": {
          "status": "generated",
          "div": "<div xmlns=\"http://www.w3.org/1999/xhtml\"><table class=\"hl7__eu__lab__report\"><tr><th>Test</th><th>23-Jan-2020</th><th>Reference&#xA0;Range</th><th>Unit</th></tr><tr><td>Sodium [Moles/volume] in Blood</td><td>139.7</td><td>135 - 145</td><td></td><td>mmol/L</td></tr></table></div>"
        },
        "status": "final",
        "subject": {
          "reference": "urn:uuid:a7d28ad0-153a-42d5-9e83-4fe5ba257e65",
          "display": "Alfred Rémy"
        },
        "effectiveDateTime": "2020-01-23T06:54:36Z",
        "specimen": {
          "reference": "urn:uuid:c4809398-1963-47b1-9274-52ecf31743f4"
        }
      }
    },
    {
      "fullUrl": "urn:uuid:d88d2427-d8c3-4c82-af48-30a5a0747a8c",
      "resource": {
        "resourceType": "Observation",
        "id": "d88d2427-d8c3-4c82-af48-30a5a0747a8c",
        "meta": {
          "profile": [
            "http://hl7.eu/fhir/laboratory/StructureDefinition/Observation-resultslab-eu-lab"
          ]
        },
        "performer": [
          {
            "display": "The Central European Lab"
          }
        ],
        "category": [
          {
            "coding": [
              {
                "system": "http://terminology.hl7.org/CodeSystem/observation-category",
                "code": "laboratory"
              }
            ]
          }
        ],
        "code": {
          "coding": [
            {
              "code": "6298-4",
              "system": "http://loinc.org",
              "display": "Potassium [Moles/volume] in Blood"
            }
          ],
          "text": "Potassium [Moles/volume] in Blood"
        },
        "valueQuantity": {
          "system": "http://unitsofmeasure.org",
          "value": 4.8,
          "unit": "mmol/L",
          "code": "mmol/L"
        },
        "referenceRange": [
          {
            "low": {
              "value": 3.5,
              "code": "mmol/L",
              "system": "http://unitsofmeasure.org"
            }
          },
          {
            "high": {
              "value": 5.3,
              "code": "mmol/L",
              "system": "http://unitsofmeasure.org"
            }
          }
        ],
        "text": {
          "status": "generated",
          "div": "<div xmlns=\"http://www.w3.org/1999/xhtml\"><table class=\"hl7__eu__lab__report\"><tr><th>Test</th><th>23-Jan-2020</th><th>Reference&#xA0;Range</th><th>Unit</th></tr><tr><td>Potassium [Moles/volume] in Blood</td><td>4.8</td><td>3.5 - 5.3</td><td></td><td>mmol/L</td></tr></table></div>"
        },
        "status": "final",
        "subject": {
          "reference": "urn:uuid:a7d28ad0-153a-42d5-9e83-4fe5ba257e65",
          "display": "Alfred Rémy"
        },
        "effectiveDateTime": "2020-01-23T06:54:36Z",
        "specimen": {
          "reference": "urn:uuid:c4809398-1963-47b1-9274-52ecf31743f4"
        }
      }
    },
    {
      "fullUrl": "urn:uuid:aaa73c80-57de-409d-a961-c79aa1f9c639",
      "resource": {
        "resourceType": "Observation",
        "id": "aaa73c80-57de-409d-a961-c79aa1f9c639",
        "meta": {
          "profile": [
            "http://hl7.eu/fhir/laboratory/StructureDefinition/Observation-resultslab-eu-lab"
          ]
        },
        "performer": [
          {
            "display": "The Central European Lab"
          }
        ],
        "category": [
          {
            "coding": [
              {
                "system": "http://terminology.hl7.org/CodeSystem/observation-category",
                "code": "laboratory"
              }
            ]
          }
        ],
        "code": {
          "coding": [
            {
              "code": "2069-3",
              "system": "http://loinc.org",
              "display": "Chloride [Moles/volume] in Blood"
            }
          ],
          "text": "Chloride [Moles/volume] in Blood"
        },
        "valueQuantity": {
          "system": "http://unitsofmeasure.org",
          "value": 110,
          "unit": "mmol/L",
          "code": "mmol/L"
        },
        "referenceRange": [
          {
            "low": {
              "value": 98,
              "code": "mmol/L",
              "system": "http://unitsofmeasure.org"
            }
          },
          {
            "high": {
              "value": 110,
              "code": "mmol/L",
              "system": "http://unitsofmeasure.org"
            }
          }
        ],
        "text": {
          "status": "generated",
          "div": "<div xmlns=\"http://www.w3.org/1999/xhtml\"><table class=\"hl7__eu__lab__report\"><tr><th>Test</th><th>23-Jan-2020</th><th>Reference&#xA0;Range</th><th>Unit</th></tr><tr><td>Chloride [Moles/volume] in Blood</td><td>110.0</td><td>98 - 110</td><td></td><td>mmol/L</td></tr></table></div>"
        },
        "status": "final",
        "subject": {
          "reference": "urn:uuid:a7d28ad0-153a-42d5-9e83-4fe5ba257e65",
          "display": "Alfred Rémy"
        },
        "effectiveDateTime": "2020-01-23T06:54:36Z",
        "specimen": {
          "reference": "urn:uuid:c4809398-1963-47b1-9274-52ecf31743f4"
        }
      }
    },
    {
      "fullUrl": "urn:uuid:8226e867-1fc2-43c4-b6c5-bc87841621a8",
      "resource": {
        "resourceType": "Observation",
        "id": "8226e867-1fc2-43c4-b6c5-bc87841621a8",
        "meta": {
          "profile": [
            "http://hl7.eu/fhir/laboratory/StructureDefinition/Observation-resultslab-eu-lab"
          ]
        },
        "performer": [
          {
            "display": "The Central European Lab"
          }
        ],
        "category": [
          {
            "coding": [
              {
                "system": "http://terminology.hl7.org/CodeSystem/observation-category",
                "code": "laboratory"
              }
            ]
          }
        ],
        "code": {
          "coding": [
            {
              "code": "20565-8",
              "system": "http://loinc.org",
              "display": "Carbon dioxide, total [Moles/volume] in Blood"
            }
          ],
          "text": "Carbon dioxide, total [Moles/volume] in Blood"
        },
        "valueQuantity": {
          "system": "http://unitsofmeasure.org",
          "value": 28,
          "unit": "mmol/L",
          "code": "mmol/L"
        },
        "referenceRange": [
          {
            "low": {
              "value": 22,
              "code": "mmol/L",
              "system": "http://unitsofmeasure.org"
            }
          },
          {
            "high": {
              "value": 29,
              "code": "mmol/L",
              "system": "http://unitsofmeasure.org"
            }
          }
        ],
        "text": {
          "status": "generated",
          "div": "<div xmlns=\"http://www.w3.org/1999/xhtml\"><table class=\"hl7__eu__lab__report\"><tr><th>Test</th><th>23-Jan-2020</th><th>Reference&#xA0;Range</th><th>Unit</th></tr><tr><td>Carbon dioxide, total [Moles/volume] in Blood</td><td>28.0</td><td>22 - 29</td><td></td><td>mmol/L</td></tr></table></div>"
        },
        "status": "final",
        "subject": {
          "reference": "urn:uuid:a7d28ad0-153a-42d5-9e83-4fe5ba257e65",
          "display": "Alfred Rémy"
        },
        "effectiveDateTime": "2020-01-23T06:54:36Z",
        "specimen": {
          "reference": "urn:uuid:c4809398-1963-47b1-9274-52ecf31743f4"
        }
      }
    },
    {
      "fullUrl": "urn:uuid:e1d91ce1-be1f-415e-be81-537f1ba8431b",
      "resource": {
        "resourceType": "Device",
        "id": "e1d91ce1-be1f-415e-be81-537f1ba8431b",
        "deviceName": [
          {
            "name": "SYNDERAI Synthetic Generator",
            "type": "manufacturer-name"
          }
        ],
        "version": [
          {
            "value": "5.0"
          }
        ],
        "text": {
          "status": "generated",
          "div": "<div xmlns=\"http://www.w3.org/1999/xhtml\">SYNDERAI Synthetic Generator v5.0</div>"
        },
        "status": "active\"",
        "distinctIdentifier": "synderai-generator-50",
        "manufacturer": "SYNDERAI Project"
      }
    },
    {
      "fullUrl": "urn:uuid:8c941487-80bd-4348-8e17-fdf32117b64e",
      "resource": {
        "resourceType": "Provenance",
        "id": "8c941487-80bd-4348-8e17-fdf32117b64e",
        "target": [
          {
            "reference": "Patient/a7d28ad0-153a-42d5-9e83-4fe5ba257e65"
          },
          {
            "reference": "Bundle/8e39b80d-b96e-43e1-bede-e1a37b1eb105"
          },
          {
            "reference": "Composition/910fe9fe-a4cb-407e-afaa-09a1936b003f"
          },
          {
            "reference": "PractitionerRole/ffd91a3e-cddc-4dd0-a65b-8504bbcc7d31"
          },
          {
            "reference": "Practitioner/e10d4089-9ea2-45e5-bc83-3ff22752594e"
          },
          {
            "reference": "PractitionerRole/accf055e-6489-4302-bae4-39d8bc501e6c"
          },
          {
            "reference": "Organization/08577e49-69fe-4631-abdc-5cdfd1823c67"
          }
        ],
        "activity": {
          "text": "Synthetic Example Data Generation"
        },
        "policy": [
          "https://synderai.net/synderai-synthetic-data-policy"
        ],
        "agent": [
          {
            "type": {
              "text": "author"
            },
            "who": {
              "reference": "Device/e1d91ce1-be1f-415e-be81-537f1ba8431b"
            }
          }
        ],
        "reason": [
          {
            "text": "Interoperability Testing and Training (non-clinical use)"
          }
        ],
        "text": {
          "status": "generated",
          "div": "<div xmlns=\"http://www.w3.org/1999/xhtml\">Provenance for SYNDERAI Synthetic Example Data Resource</div>"
        },
        "recorded": "2020-01-23T07:54:36Z"
      }
    },
    {
      "fullUrl": "urn:uuid:ffd91a3e-cddc-4dd0-a65b-8504bbcc7d31",
      "resource": {
        "resourceType": "PractitionerRole",
        "id": "ffd91a3e-cddc-4dd0-a65b-8504bbcc7d31",
        "meta": {
          "profile": [
            "http://hl7.eu/fhir/base/StructureDefinition/practitionerRole-eu"
          ]
        },
        "text": {
          "status": "generated",
          "div": "<div xmlns=\"http://www.w3.org/1999/xhtml\">Laboratory Role Id: ffd91a3e-cddc-4dd0-a65b-8504bbcc7d31</div>"
        },
        "practitioner": {
          "reference": "urn:uuid:e10d4089-9ea2-45e5-bc83-3ff22752594e"
        }
      }
    },
    {
      "fullUrl": "urn:uuid:e10d4089-9ea2-45e5-bc83-3ff22752594e",
      "resource": {
        "resourceType": "Practitioner",
        "id": "e10d4089-9ea2-45e5-bc83-3ff22752594e",
        "meta": {
          "profile": [
            "http://hl7.eu/fhir/base/StructureDefinition/practitioner-eu"
          ]
        },
        "identifier": [
          {
            "assigner": {
              "display": "HL7 Europe"
            },
            "system": "urn:oid:2.16.840.1.113883.2.51.999",
            "value": "9bd3a8a1-57b7-4eb1-86b2-53f5d8f45059"
          }
        ],
        "name": [
          {
            "prefix": [
              "dr"
            ],
            "given": [
              "Ex"
            ],
            "family": "Ample"
          }
        ],
        "address": [
          {
            "line": [
              "Laboratoire Central Européenne",
              "Boulevard du Jardin Botanique 32"
            ],
            "postalCode": "1000",
            "city": "Brussels",
            "country": "Belgium"
          }
        ],
        "text": {
          "status": "generated",
          "div": "<div xmlns=\"http://www.w3.org/1999/xhtml\">Laboratory: Laboratoire Central Européenne, 1000 Brussels, Belgium</div>"
        }
      }
    }
  ],
  "type": "document",
  "timestamp": "2020-01-23T07:54:36Z"
}
