{
  "resourceType": "Bundle",
  "id": "702a693e-812e-4769-a1c0-06dc36e064d2",
  "meta": {
    "profile": [
      "http://hl7.eu/fhir/laboratory/StructureDefinition/Bundle-eu-lab"
    ]
  },
  "identifier": {
    "assigner": {
      "display": "HL7 Europe"
    },
    "system": "urn:oid:2.16.840.1.113883.2.51.999",
    "value": "dd5805c0-608d-4a03-872a-fafe44e23baa"
  },
  "entry": [
    {
      "fullUrl": "urn:uuid:31e175de-bfb0-4dff-93fe-e8f14e7fbf43",
      "resource": {
        "resourceType": "Composition",
        "id": "31e175de-bfb0-4dff-93fe-e8f14e7fbf43",
        "meta": {
          "profile": [
            "http://hl7.eu/fhir/laboratory/StructureDefinition/Composition-eu-lab"
          ]
        },
        "identifier": {
          "assigner": {
            "display": "HL7 Europe"
          },
          "system": "urn:oid:2.16.840.1.113883.2.51.999",
          "value": "0facc857-f3c4-44f9-88ae-17e8726dbee3"
        },
        "author": [
          {
            "reference": "urn:uuid:4e42eaae-4f0e-444b-a87e-de74d9182f25"
          }
        ],
        "category": [
          {
            "coding": [
              {
                "code": "26436-6",
                "system": "http://loinc.org",
                "display": "Laboratory studies (set)"
              }
            ]
          }
        ],
        "type": {
          "coding": [
            {
              "code": "11502-2",
              "system": "http://loinc.org",
              "display": "Laboratory report"
            }
          ],
          "text": "Laboratory Report"
        },
        "section": [
          {
            "code": {
              "coding": [
                {
                  "code": "26436-6",
                  "system": "http://loinc.org",
                  "display": "Laboratory studies (set)"
                }
              ],
              "text": "Laboratory studies"
            },
            "section": [
              {
                "code": {
                  "coding": [
                    {
                      "code": "$18723-7",
                      "system": "http://loinc.org",
                      "display": "Hematology studies (set)"
                    }
                  ],
                  "text": "Hematology"
                },
                "entry": [
                  {
                    "reference": "urn:uuid:fc3e8b04-3d30-469e-ac5a-9ffcb909d920"
                  },
                  {
                    "reference": "urn:uuid:e5a04344-846e-43fb-9187-a7136d5ac28f"
                  },
                  {
                    "reference": "urn:uuid:9bd6ee36-d02b-4fa8-be6f-dff0bb35a3ac"
                  },
                  {
                    "reference": "urn:uuid:0fd21ed8-c67d-4954-9300-8bfada0af690"
                  },
                  {
                    "reference": "urn:uuid:23a1b3bb-f135-4391-bb19-35cfec1f431e"
                  },
                  {
                    "reference": "urn:uuid:42159e0c-623a-4ff4-8360-3889024db807"
                  },
                  {
                    "reference": "urn:uuid:206c299e-f6dc-44da-b1cd-c28e476aefa2"
                  },
                  {
                    "reference": "urn:uuid:789aaf9f-5aab-4a3c-afdd-4b7bf43a8cf6"
                  },
                  {
                    "reference": "urn:uuid:03a03c5c-188e-4aac-86ca-d46e10813e87"
                  },
                  {
                    "reference": "urn:uuid:f45a03a9-999b-4245-846b-d3e2d451f17b"
                  },
                  {
                    "reference": "urn:uuid:5a80c062-9b52-407e-9245-ad318104cd41"
                  }
                ],
                "text": {
                  "status": "generated",
                  "div": "<div xmlns=\"http://www.w3.org/1999/xhtml\"><h3>Hematology</h3><table class=\"hl7__eu__lab__report\"><thead><tr><th>Test</th><th>17-MAR-2019</th><th>Reference&#xA0;Range</th><th>Unit</th></tr></thead><tbody><tr><td>Leukocytes [#/volume] in Blood by Automated count</td><td>4.8</td><td>3.4 - 10.6</td><td>10*3/uL</td></tr><tr><td>Erythrocytes [#/volume] in Blood by Automated count</td><td>4.7</td><td>4.2 - 6.2</td><td>10*6/uL</td></tr><tr><td>Hemoglobin [Mass/volume] in Blood</td><td>14.6</td><td>13.5 - 17.5</td><td>g/dL</td></tr><tr><td>Hematocrit [Volume Fraction] of Blood by Automated count</td><td>45.5</td><td>38 - 50</td><td>%</td></tr><tr><td>MCV [Entitic volume] by Automated count</td><td>84.0</td><td>80 - 99</td><td>fL</td></tr><tr><td>MCH [Entitic mass] by Automated count</td><td>32.8</td><td>27 - 34</td><td>pg</td></tr><tr><td>MCHC [Mass/volume] by Automated count</td><td>34.9</td><td>31 - 37</td><td>g/dL</td></tr><tr><td>Erythrocyte distribution width [Entitic volume] by Automated count</td><td>40.6</td><td>39 - 55</td><td>fL</td></tr><tr><td>Platelets [#/volume] in Blood by Automated count</td><td>384.3</td><td>150 - 450</td><td>10*3/uL</td></tr><tr><td>Platelet distribution width [Entitic volume] in Blood by Automated count</td><td>226.7</td><td>150 - 450</td><td>fL</td></tr><tr><td>Platelet mean volume [Entitic volume] in Blood by Automated count</td><td>11.0</td><td>9.6 - 13.8</td><td>fL</td></tr></tbody></table></div>"
                },
                "title": "Hematology"
              },
              {
                "code": {
                  "coding": [
                    {
                      "code": "$18719-5",
                      "system": "http://loinc.org",
                      "display": "Chemistry studies (set)"
                    }
                  ],
                  "text": "Chemistry"
                },
                "entry": [
                  {
                    "reference": "urn:uuid:0cb39066-5dfb-48dc-bb42-91f05c3c5df9"
                  },
                  {
                    "reference": "urn:uuid:6418843d-c704-47eb-ac83-dda2fc8162a8"
                  },
                  {
                    "reference": "urn:uuid:98ce2391-82ec-429a-a3bc-e746598242ff"
                  },
                  {
                    "reference": "urn:uuid:388df0ec-8c64-47e3-b9b2-f4344e9ac126"
                  },
                  {
                    "reference": "urn:uuid:e60139cc-3b2e-457e-b0c2-3b9b99754263"
                  },
                  {
                    "reference": "urn:uuid:a77c64f8-1a47-4060-8358-aa9437a8ff5d"
                  },
                  {
                    "reference": "urn:uuid:a2c4f17b-c201-423c-9430-fdd7955eb586"
                  },
                  {
                    "reference": "urn:uuid:c3903646-d183-45be-88c9-de2dad4e9beb"
                  },
                  {
                    "reference": "urn:uuid:62c91142-ebda-497e-bf26-c3c0f9de2dd9"
                  }
                ],
                "text": {
                  "status": "generated",
                  "div": "<div xmlns=\"http://www.w3.org/1999/xhtml\"><h3>Chemistry</h3><table class=\"hl7__eu__lab__report\"><thead><tr><th>Test</th><th>17-MAR-2019</th><th>Reference&#xA0;Range</th><th>Unit</th></tr></thead><tbody><tr><td>Hemoglobin A1c/Hemoglobin.total in Blood</td><td>6.0</td><td>4 - 6</td><td>%</td></tr><tr><td>Glucose [Mass/volume] in Blood</td><td>92.0</td><td>70 - 99</td><td>mg/dL</td></tr><tr><td>Urea nitrogen [Mass/volume] in Blood</td><td>10.2</td><td>7 - 20</td><td>mg/dL</td></tr><tr><td>Creatinine [Mass/volume] in Blood</td><td><strong>1.4 H</strong></td><td>0.6 - 1.3</td><td>mg/dL</td></tr><tr><td>Calcium [Mass/volume] in Blood</td><td>8.6</td><td>8.5 - 10.5</td><td>mg/dL</td></tr><tr><td>Sodium [Moles/volume] in Blood</td><td>137.3</td><td>135 - 145</td><td>mmol/L</td></tr><tr><td>Potassium [Moles/volume] in Blood</td><td>4.1</td><td>3.5 - 5.2</td><td>mmol/L</td></tr><tr><td>Chloride [Moles/volume] in Blood</td><td>104.2</td><td>98 - 114</td><td>mmol/L</td></tr><tr><td>Carbon dioxide, total [Moles/volume] in Blood</td><td>27.9</td><td>24 - 29</td><td>mmol/L</td></tr></tbody></table></div>"
                },
                "title": "Chemistry"
              }
            ],
            "title": "Laboratory Report"
          },
          {
            "text": {
              "status": "generated",
              "div": "<div xmlns=\"http://www.w3.org/1999/xhtml\"><h3>Annotation</h3><table class=\"hl7__eu__lab__report\"><tr><th>Conclusion and Recommendations based on this report and previous findings known to us</th></tr><tr><td>All results are within normal limits except for a mildly elevated creatinine (1.4 mg/dL; normal up to 1.3 mg/dL), which may suggest early renal impairment or dehydration. HbA1c is at the upper limit of normal (6.0%), indicating possible impaired glucose tolerance. Other parameters, including electrolytes, blood count, and platelets, are unremarkable. Recommend clinical correlation and, if indicated, follow-up of renal function and glycemic status.</td></tr></table></div>"
            },
            "code": {
              "coding": [
                {
                  "system": "http://loinc.org",
                  "code": "48767-8",
                  "display": "Annotation comment"
                }
              ]
            },
            "title": "Annotation comment"
          }
        ],
        "status": "final",
        "subject": {
          "reference": "urn:uuid:2341008d-35df-4f49-bc76-7af648b00ebf",
          "display": "Benedetto Lombroso"
        },
        "date": "2019-03-17T08:22:02Z",
        "title": "Laboratory Report",
        "confidentiality": "N"
      }
    },
    {
      "fullUrl": "urn:uuid:f9684a3b-3af7-4e29-b56e-3b520324c8a2",
      "resource": {
        "resourceType": "DiagnosticReport",
        "id": "f9684a3b-3af7-4e29-b56e-3b520324c8a2",
        "meta": {
          "profile": [
            "http://hl7.eu/fhir/laboratory/StructureDefinition/DiagnosticReport-eu-lab"
          ]
        },
        "identifier": [
          {
            "assigner": {
              "display": "HL7 Europe"
            },
            "system": "urn:oid:2.16.840.1.113883.2.51.999",
            "value": "d937d31f-6ff2-4561-bf4c-7809aa9c205c"
          }
        ],
        "extension": [
          {
            "url": "http://hl7.org/fhir/5.0/StructureDefinition/extension-DiagnosticReport.composition",
            "valueReference": {
              "reference": "urn:uuid:0facc857-f3c4-44f9-88ae-17e8726dbee3"
            }
          }
        ],
        "category": [
          {
            "coding": [
              {
                "code": "26436-6",
                "system": "http://loinc.org",
                "display": "Laboratory studies (set)"
              }
            ]
          }
        ],
        "specimen": [
          {
            "reference": "urn:uuid:434aa2fe-0459-4ddf-ac36-0b92313c433a"
          },
          {
            "reference": "urn:uuid:434aa2fe-0459-4ddf-ac36-0b92313c433a"
          }
        ],
        "result": [
          {
            "reference": "urn:uuid:0cb39066-5dfb-48dc-bb42-91f05c3c5df9"
          },
          {
            "reference": "urn:uuid:6418843d-c704-47eb-ac83-dda2fc8162a8"
          },
          {
            "reference": "urn:uuid:98ce2391-82ec-429a-a3bc-e746598242ff"
          },
          {
            "reference": "urn:uuid:388df0ec-8c64-47e3-b9b2-f4344e9ac126"
          },
          {
            "reference": "urn:uuid:e60139cc-3b2e-457e-b0c2-3b9b99754263"
          },
          {
            "reference": "urn:uuid:a77c64f8-1a47-4060-8358-aa9437a8ff5d"
          },
          {
            "reference": "urn:uuid:a2c4f17b-c201-423c-9430-fdd7955eb586"
          },
          {
            "reference": "urn:uuid:c3903646-d183-45be-88c9-de2dad4e9beb"
          },
          {
            "reference": "urn:uuid:62c91142-ebda-497e-bf26-c3c0f9de2dd9"
          },
          {
            "reference": "urn:uuid:fc3e8b04-3d30-469e-ac5a-9ffcb909d920"
          },
          {
            "reference": "urn:uuid:e5a04344-846e-43fb-9187-a7136d5ac28f"
          },
          {
            "reference": "urn:uuid:9bd6ee36-d02b-4fa8-be6f-dff0bb35a3ac"
          },
          {
            "reference": "urn:uuid:0fd21ed8-c67d-4954-9300-8bfada0af690"
          },
          {
            "reference": "urn:uuid:23a1b3bb-f135-4391-bb19-35cfec1f431e"
          },
          {
            "reference": "urn:uuid:42159e0c-623a-4ff4-8360-3889024db807"
          },
          {
            "reference": "urn:uuid:206c299e-f6dc-44da-b1cd-c28e476aefa2"
          },
          {
            "reference": "urn:uuid:789aaf9f-5aab-4a3c-afdd-4b7bf43a8cf6"
          },
          {
            "reference": "urn:uuid:03a03c5c-188e-4aac-86ca-d46e10813e87"
          },
          {
            "reference": "urn:uuid:f45a03a9-999b-4245-846b-d3e2d451f17b"
          },
          {
            "reference": "urn:uuid:5a80c062-9b52-407e-9245-ad318104cd41"
          }
        ],
        "status": "registered",
        "code": {
          "coding": [
            {
              "code": "11502-2",
              "system": "http://loinc.org",
              "display": "Laboratory report"
            }
          ]
        },
        "subject": {
          "reference": "urn:uuid:2341008d-35df-4f49-bc76-7af648b00ebf",
          "display": "Benedetto Lombroso"
        }
      }
    },
    {
      "fullUrl": "urn:uuid:2341008d-35df-4f49-bc76-7af648b00ebf",
      "resource": {
        "resourceType": "Patient",
        "id": "2341008d-35df-4f49-bc76-7af648b00ebf",
        "meta": {
          "security": [
            {
              "system": "http://terminology.hl7.org/CodeSystem/v3-ActReason",
              "code": "HTEST"
            },
            {
              "system": "http://terminology.hl7.org/CodeSystem/v3-ActReason",
              "code": "TRAIN"
            }
          ],
          "tag": [
            {
              "system": "https://synderai.net/fhir/CodeSystem/tags",
              "code": "synthetic",
              "display": "SYNDERAI Synthetic data"
            }
          ],
          "profile": [
            "http://hl7.eu/fhir/base/StructureDefinition/patient-eu-core"
          ]
        },
        "identifier": [
          {
            "type": {
              "coding": [
                {
                  "code": "PT",
                  "system": "http://terminology.hl7.org/CodeSystem/v2-0203"
                }
              ]
            },
            "system": "http://ec.europa.eu/identifier/eci",
            "value": "9244-804304-9"
          },
          {
            "type": {
              "coding": [
                {
                  "code": "MR",
                  "system": "http://terminology.hl7.org/CodeSystem/v2-0203"
                }
              ]
            },
            "system": "http://local.setting.eu/identifier",
            "value": "320c36e6-403e-bb27-4756-8ebdd21bc0e5"
          }
        ],
        "name": [
          {
            "family": "Lombroso"
          },
          {
            "given": [
              "Benedetto"
            ]
          },
          {
            "text": "Benedetto Lombroso"
          }
        ],
        "address": [
          {
            "line": [
              "Stretto Zaccagnini, 924"
            ],
            "use": "home",
            "type": "physical",
            "postalCode": "37121",
            "city": "Verona",
            "country": "Italy"
          }
        ],
        "telecom": [
          {
            "system": "phone",
            "value": "+39 016691228"
          }
        ],
        "extension": [
          {
            "url": "http://hl7.org/fhir/StructureDefinition/patient-nationality",
            "valueCodeableConcept": {
              "coding": [
                {
                  "code": "IT",
                  "system": "http://hl7.org/fhir/ValueSet/country"
                }
              ]
            }
          }
        ],
        "text": {
          "status": "generated",
          "div": "<div xmlns=\"http://www.w3.org/1999/xhtml\"><table class=\"hl7__ips\"><tr><td>Benedetto Lombroso</td><td>male</td><td>07-May-1989</td></tr></table></div>"
        },
        "gender": "male",
        "birthDate": "1989-05-07"
      }
    },
    {
      "fullUrl": "urn:uuid:27c55b28-7ed1-41e3-907e-9ac6354defb2",
      "resource": {
        "resourceType": "ServiceRequest",
        "id": "27c55b28-7ed1-41e3-907e-9ac6354defb2",
        "meta": {
          "profile": [
            "http://hl7.eu/fhir/laboratory/StructureDefinition/ServiceRequest-eu-lab"
          ]
        },
        "identifier": [
          {
            "system": "http://example.org",
            "value": "78502426-3473-4de7-b0a5-3d9fd9b06a57"
          }
        ],
        "specimen": [
          {
            "reference": "urn:uuid:434aa2fe-0459-4ddf-ac36-0b92313c433a"
          }
        ],
        "reasonCode": [
          {
            "coding": [
              {
                "code": "15777000",
                "system": "http://snomed.info/sct",
                "display": "Prediabetes"
              }
            ]
          },
          {
            "coding": [
              {
                "code": "271737000",
                "system": "http://snomed.info/sct",
                "display": "Anemia"
              }
            ]
          }
        ],
        "status": "active",
        "intent": "order",
        "code": {
          "coding": [
            {
              "code": "108252007",
              "system": "http://snomed.info/sct",
              "display": "Laboratory procedure"
            }
          ]
        },
        "subject": {
          "reference": "urn:uuid:2341008d-35df-4f49-bc76-7af648b00ebf",
          "display": "Benedetto Lombroso"
        },
        "requester": {
          "reference": "urn:uuid:3d61001d-4497-448b-ad7f-618b2e6069c7"
        }
      }
    },
    {
      "fullUrl": "urn:uuid:3d61001d-4497-448b-ad7f-618b2e6069c7",
      "resource": {
        "resourceType": "PractitionerRole",
        "id": "3d61001d-4497-448b-ad7f-618b2e6069c7",
        "meta": {
          "profile": [
            "http://hl7.eu/fhir/base/StructureDefinition/practitionerRole-eu"
          ]
        },
        "text": {
          "status": "generated",
          "div": "<div xmlns=\"http://www.w3.org/1999/xhtml\">Provider Role Id: 3d61001d-4497-448b-ad7f-618b2e6069c7</div>"
        },
        "organization": {
          "reference": "urn:uuid:adf5fa70-8ac3-4d58-ab3f-4fc3a9182b10"
        }
      }
    },
    {
      "fullUrl": "urn:uuid:adf5fa70-8ac3-4d58-ab3f-4fc3a9182b10",
      "resource": {
        "resourceType": "Organization",
        "id": "adf5fa70-8ac3-4d58-ab3f-4fc3a9182b10",
        "meta": {
          "profile": [
            "http://hl7.eu/fhir/base/StructureDefinition/organization-eu"
          ]
        },
        "identifier": [
          {
            "assigner": {
              "display": "HL7 Europe"
            },
            "system": "urn:oid:2.16.840.1.113883.2.51.999",
            "value": "98efb688-bfea-4b9f-b4ce-fbaa3235b181"
          }
        ],
        "address": [
          {
            "line": [
              "Piazzale Aristide Stefani 1"
            ],
            "city": "Verona",
            "postalCode": "37124",
            "country": "Italy"
          }
        ],
        "text": {
          "status": "generated",
          "div": "<div xmlns=\"http://www.w3.org/1999/xhtml\">Provider Organization: Ospedale Civile Maggiore</div>"
        },
        "name": "Ospedale Civile Maggiore"
      }
    },
    {
      "fullUrl": "urn:uuid:434aa2fe-0459-4ddf-ac36-0b92313c433a",
      "resource": {
        "resourceType": "Specimen",
        "id": "434aa2fe-0459-4ddf-ac36-0b92313c433a",
        "meta": {
          "profile": [
            "http://hl7.eu/fhir/laboratory/StructureDefinition/Specimen-eu-lab"
          ]
        },
        "collection": {
          "collectedDateTime": "2019-03-17"
        },
        "text": {
          "status": "generated",
          "div": "<div xmlns=\"http://www.w3.org/1999/xhtml\"><table class=\"hl7__eu__lab__report\"><tr><th>Specimen</th><th>Collection Date</th></tr><tr><td>Whole blood specimen (specimen)</td><td><span class=\"nb\">17-Mar-2019</span></td></tr></table></div>"
        },
        "type": {
          "coding": [
            {
              "code": "258580003",
              "system": "http://snomed.info/sct",
              "display": "Whole blood specimen (specimen)"
            }
          ]
        }
      }
    },
    {
      "fullUrl": "urn:uuid:434aa2fe-0459-4ddf-ac36-0b92313c433a",
      "resource": {
        "resourceType": "Specimen",
        "id": "434aa2fe-0459-4ddf-ac36-0b92313c433a",
        "meta": {
          "profile": [
            "http://hl7.eu/fhir/laboratory/StructureDefinition/Specimen-eu-lab"
          ]
        },
        "collection": {
          "collectedDateTime": "2019-03-17"
        },
        "text": {
          "status": "generated",
          "div": "<div xmlns=\"http://www.w3.org/1999/xhtml\"><table class=\"hl7__eu__lab__report\"><tr><th>Specimen</th><th>Collection Date</th></tr><tr><td>Whole blood specimen (specimen)</td><td><span class=\"nb\">17-Mar-2019</span></td></tr></table></div>"
        },
        "type": {
          "coding": [
            {
              "code": "258580003",
              "system": "http://snomed.info/sct",
              "display": "Whole blood specimen (specimen)"
            }
          ]
        }
      }
    },
    {
      "fullUrl": "urn:uuid:0cb39066-5dfb-48dc-bb42-91f05c3c5df9",
      "resource": {
        "resourceType": "Observation",
        "id": "0cb39066-5dfb-48dc-bb42-91f05c3c5df9",
        "meta": {
          "profile": [
            "http://hl7.eu/fhir/laboratory/StructureDefinition/Observation-resultslab-eu-lab"
          ]
        },
        "performer": [
          {
            "display": "The Central European Lab"
          }
        ],
        "category": [
          {
            "coding": [
              {
                "system": "http://terminology.hl7.org/CodeSystem/observation-category",
                "code": "laboratory"
              }
            ]
          }
        ],
        "code": {
          "coding": [
            {
              "code": "4548-4",
              "system": "http://loinc.org",
              "display": "Hemoglobin A1c/Hemoglobin.total in Blood"
            }
          ],
          "text": "Hemoglobin A1c/Hemoglobin.total in Blood"
        },
        "valueQuantity": {
          "system": "http://unitsofmeasure.org",
          "value": 6,
          "unit": "%",
          "code": "%"
        },
        "referenceRange": [
          {
            "low": {
              "value": 4,
              "code": "%",
              "system": "http://unitsofmeasure.org"
            }
          },
          {
            "high": {
              "value": 6,
              "code": "%",
              "system": "http://unitsofmeasure.org"
            }
          }
        ],
        "text": {
          "status": "generated",
          "div": "<div xmlns=\"http://www.w3.org/1999/xhtml\"><table class=\"hl7__eu__lab__report\"><tr><th>Test</th><th>17-Mar-2019</th><th>Reference&#xA0;Range</th><th>Unit</th></tr><tr><td>Hemoglobin A1c/Hemoglobin.total in Blood</td><td>6.0</td><td>4 - 6</td><td></td><td>%</td></tr></table></div>"
        },
        "status": "final",
        "subject": {
          "reference": "urn:uuid:2341008d-35df-4f49-bc76-7af648b00ebf",
          "display": "Benedetto Lombroso"
        },
        "effectiveDateTime": "2019-03-17T07:22:02Z",
        "specimen": {
          "reference": "urn:uuid:434aa2fe-0459-4ddf-ac36-0b92313c433a"
        }
      }
    },
    {
      "fullUrl": "urn:uuid:6418843d-c704-47eb-ac83-dda2fc8162a8",
      "resource": {
        "resourceType": "Observation",
        "id": "6418843d-c704-47eb-ac83-dda2fc8162a8",
        "meta": {
          "profile": [
            "http://hl7.eu/fhir/laboratory/StructureDefinition/Observation-resultslab-eu-lab"
          ]
        },
        "performer": [
          {
            "display": "The Central European Lab"
          }
        ],
        "category": [
          {
            "coding": [
              {
                "system": "http://terminology.hl7.org/CodeSystem/observation-category",
                "code": "laboratory"
              }
            ]
          }
        ],
        "code": {
          "coding": [
            {
              "code": "2339-0",
              "system": "http://loinc.org",
              "display": "Glucose [Mass/volume] in Blood"
            }
          ],
          "text": "Glucose [Mass/volume] in Blood"
        },
        "valueQuantity": {
          "system": "http://unitsofmeasure.org",
          "value": 92,
          "unit": "mg/dL",
          "code": "mg/dL"
        },
        "referenceRange": [
          {
            "low": {
              "value": 70,
              "code": "mg/dL",
              "system": "http://unitsofmeasure.org"
            }
          },
          {
            "high": {
              "value": 99,
              "code": "mg/dL",
              "system": "http://unitsofmeasure.org"
            }
          }
        ],
        "text": {
          "status": "generated",
          "div": "<div xmlns=\"http://www.w3.org/1999/xhtml\"><table class=\"hl7__eu__lab__report\"><tr><th>Test</th><th>17-Mar-2019</th><th>Reference&#xA0;Range</th><th>Unit</th></tr><tr><td>Glucose [Mass/volume] in Blood</td><td>92.0</td><td>70 - 99</td><td></td><td>mg/dL</td></tr></table></div>"
        },
        "status": "final",
        "subject": {
          "reference": "urn:uuid:2341008d-35df-4f49-bc76-7af648b00ebf",
          "display": "Benedetto Lombroso"
        },
        "effectiveDateTime": "2019-03-17T07:22:02Z",
        "specimen": {
          "reference": "urn:uuid:434aa2fe-0459-4ddf-ac36-0b92313c433a"
        }
      }
    },
    {
      "fullUrl": "urn:uuid:98ce2391-82ec-429a-a3bc-e746598242ff",
      "resource": {
        "resourceType": "Observation",
        "id": "98ce2391-82ec-429a-a3bc-e746598242ff",
        "meta": {
          "profile": [
            "http://hl7.eu/fhir/laboratory/StructureDefinition/Observation-resultslab-eu-lab"
          ]
        },
        "performer": [
          {
            "display": "The Central European Lab"
          }
        ],
        "category": [
          {
            "coding": [
              {
                "system": "http://terminology.hl7.org/CodeSystem/observation-category",
                "code": "laboratory"
              }
            ]
          }
        ],
        "code": {
          "coding": [
            {
              "code": "6299-2",
              "system": "http://loinc.org",
              "display": "Urea nitrogen [Mass/volume] in Blood"
            }
          ],
          "text": "Urea nitrogen [Mass/volume] in Blood"
        },
        "valueQuantity": {
          "system": "http://unitsofmeasure.org",
          "value": 10.2,
          "unit": "mg/dL",
          "code": "mg/dL"
        },
        "referenceRange": [
          {
            "low": {
              "value": 7,
              "code": "mg/dL",
              "system": "http://unitsofmeasure.org"
            }
          },
          {
            "high": {
              "value": 20,
              "code": "mg/dL",
              "system": "http://unitsofmeasure.org"
            }
          }
        ],
        "text": {
          "status": "generated",
          "div": "<div xmlns=\"http://www.w3.org/1999/xhtml\"><table class=\"hl7__eu__lab__report\"><tr><th>Test</th><th>17-Mar-2019</th><th>Reference&#xA0;Range</th><th>Unit</th></tr><tr><td>Urea nitrogen [Mass/volume] in Blood</td><td>10.2</td><td>7 - 20</td><td></td><td>mg/dL</td></tr></table></div>"
        },
        "status": "final",
        "subject": {
          "reference": "urn:uuid:2341008d-35df-4f49-bc76-7af648b00ebf",
          "display": "Benedetto Lombroso"
        },
        "effectiveDateTime": "2019-03-17T07:22:02Z",
        "specimen": {
          "reference": "urn:uuid:434aa2fe-0459-4ddf-ac36-0b92313c433a"
        }
      }
    },
    {
      "fullUrl": "urn:uuid:388df0ec-8c64-47e3-b9b2-f4344e9ac126",
      "resource": {
        "resourceType": "Observation",
        "id": "388df0ec-8c64-47e3-b9b2-f4344e9ac126",
        "meta": {
          "profile": [
            "http://hl7.eu/fhir/laboratory/StructureDefinition/Observation-resultslab-eu-lab"
          ]
        },
        "performer": [
          {
            "display": "The Central European Lab"
          }
        ],
        "category": [
          {
            "coding": [
              {
                "system": "http://terminology.hl7.org/CodeSystem/observation-category",
                "code": "laboratory"
              }
            ]
          }
        ],
        "code": {
          "coding": [
            {
              "code": "38483-4",
              "system": "http://loinc.org",
              "display": "Creatinine [Mass/volume] in Blood"
            }
          ],
          "text": "Creatinine [Mass/volume] in Blood"
        },
        "valueQuantity": {
          "system": "http://unitsofmeasure.org",
          "value": 1.4,
          "unit": "mg/dL",
          "code": "mg/dL"
        },
        "referenceRange": [
          {
            "low": {
              "value": 0.6,
              "code": "mg/dL",
              "system": "http://unitsofmeasure.org"
            }
          },
          {
            "high": {
              "value": 1.3,
              "code": "mg/dL",
              "system": "http://unitsofmeasure.org"
            }
          }
        ],
        "interpretation": [
          {
            "coding": [
              {
                "code": "H",
                "system": "http://terminology.hl7.org/CodeSystem/v3-ObservationInterpretation",
                "display": "High"
              }
            ]
          }
        ],
        "text": {
          "status": "generated",
          "div": "<div xmlns=\"http://www.w3.org/1999/xhtml\"><table class=\"hl7__eu__lab__report\"><tr><th>Test</th><th>17-Mar-2019</th><th>Reference&#xA0;Range</th><th>Unit</th></tr><tr><td>Creatinine [Mass/volume] in Blood</td><td>1.4</td><td>0.6 - 1.3</td><td>H</td><td>mg/dL</td></tr></table></div>"
        },
        "status": "final",
        "subject": {
          "reference": "urn:uuid:2341008d-35df-4f49-bc76-7af648b00ebf",
          "display": "Benedetto Lombroso"
        },
        "effectiveDateTime": "2019-03-17T07:22:02Z",
        "specimen": {
          "reference": "urn:uuid:434aa2fe-0459-4ddf-ac36-0b92313c433a"
        }
      }
    },
    {
      "fullUrl": "urn:uuid:e60139cc-3b2e-457e-b0c2-3b9b99754263",
      "resource": {
        "resourceType": "Observation",
        "id": "e60139cc-3b2e-457e-b0c2-3b9b99754263",
        "meta": {
          "profile": [
            "http://hl7.eu/fhir/laboratory/StructureDefinition/Observation-resultslab-eu-lab"
          ]
        },
        "performer": [
          {
            "display": "The Central European Lab"
          }
        ],
        "category": [
          {
            "coding": [
              {
                "system": "http://terminology.hl7.org/CodeSystem/observation-category",
                "code": "laboratory"
              }
            ]
          }
        ],
        "code": {
          "coding": [
            {
              "code": "49765-1",
              "system": "http://loinc.org",
              "display": "Calcium [Mass/volume] in Blood"
            }
          ],
          "text": "Calcium [Mass/volume] in Blood"
        },
        "valueQuantity": {
          "system": "http://unitsofmeasure.org",
          "value": 8.6,
          "unit": "mg/dL",
          "code": "mg/dL"
        },
        "referenceRange": [
          {
            "low": {
              "value": 8.5,
              "code": "mg/dL",
              "system": "http://unitsofmeasure.org"
            }
          },
          {
            "high": {
              "value": 10.5,
              "code": "mg/dL",
              "system": "http://unitsofmeasure.org"
            }
          }
        ],
        "text": {
          "status": "generated",
          "div": "<div xmlns=\"http://www.w3.org/1999/xhtml\"><table class=\"hl7__eu__lab__report\"><tr><th>Test</th><th>17-Mar-2019</th><th>Reference&#xA0;Range</th><th>Unit</th></tr><tr><td>Calcium [Mass/volume] in Blood</td><td>8.6</td><td>8.5 - 10.5</td><td></td><td>mg/dL</td></tr></table></div>"
        },
        "status": "final",
        "subject": {
          "reference": "urn:uuid:2341008d-35df-4f49-bc76-7af648b00ebf",
          "display": "Benedetto Lombroso"
        },
        "effectiveDateTime": "2019-03-17T07:22:02Z",
        "specimen": {
          "reference": "urn:uuid:434aa2fe-0459-4ddf-ac36-0b92313c433a"
        }
      }
    },
    {
      "fullUrl": "urn:uuid:a77c64f8-1a47-4060-8358-aa9437a8ff5d",
      "resource": {
        "resourceType": "Observation",
        "id": "a77c64f8-1a47-4060-8358-aa9437a8ff5d",
        "meta": {
          "profile": [
            "http://hl7.eu/fhir/laboratory/StructureDefinition/Observation-resultslab-eu-lab"
          ]
        },
        "performer": [
          {
            "display": "The Central European Lab"
          }
        ],
        "category": [
          {
            "coding": [
              {
                "system": "http://terminology.hl7.org/CodeSystem/observation-category",
                "code": "laboratory"
              }
            ]
          }
        ],
        "code": {
          "coding": [
            {
              "code": "2947-0",
              "system": "http://loinc.org",
              "display": "Sodium [Moles/volume] in Blood"
            }
          ],
          "text": "Sodium [Moles/volume] in Blood"
        },
        "valueQuantity": {
          "system": "http://unitsofmeasure.org",
          "value": 137.3,
          "unit": "mmol/L",
          "code": "mmol/L"
        },
        "referenceRange": [
          {
            "low": {
              "value": 135,
              "code": "mmol/L",
              "system": "http://unitsofmeasure.org"
            }
          },
          {
            "high": {
              "value": 145,
              "code": "mmol/L",
              "system": "http://unitsofmeasure.org"
            }
          }
        ],
        "text": {
          "status": "generated",
          "div": "<div xmlns=\"http://www.w3.org/1999/xhtml\"><table class=\"hl7__eu__lab__report\"><tr><th>Test</th><th>17-Mar-2019</th><th>Reference&#xA0;Range</th><th>Unit</th></tr><tr><td>Sodium [Moles/volume] in Blood</td><td>137.3</td><td>135 - 145</td><td></td><td>mmol/L</td></tr></table></div>"
        },
        "status": "final",
        "subject": {
          "reference": "urn:uuid:2341008d-35df-4f49-bc76-7af648b00ebf",
          "display": "Benedetto Lombroso"
        },
        "effectiveDateTime": "2019-03-17T07:22:02Z",
        "specimen": {
          "reference": "urn:uuid:434aa2fe-0459-4ddf-ac36-0b92313c433a"
        }
      }
    },
    {
      "fullUrl": "urn:uuid:a2c4f17b-c201-423c-9430-fdd7955eb586",
      "resource": {
        "resourceType": "Observation",
        "id": "a2c4f17b-c201-423c-9430-fdd7955eb586",
        "meta": {
          "profile": [
            "http://hl7.eu/fhir/laboratory/StructureDefinition/Observation-resultslab-eu-lab"
          ]
        },
        "performer": [
          {
            "display": "The Central European Lab"
          }
        ],
        "category": [
          {
            "coding": [
              {
                "system": "http://terminology.hl7.org/CodeSystem/observation-category",
                "code": "laboratory"
              }
            ]
          }
        ],
        "code": {
          "coding": [
            {
              "code": "6298-4",
              "system": "http://loinc.org",
              "display": "Potassium [Moles/volume] in Blood"
            }
          ],
          "text": "Potassium [Moles/volume] in Blood"
        },
        "valueQuantity": {
          "system": "http://unitsofmeasure.org",
          "value": 4.1,
          "unit": "mmol/L",
          "code": "mmol/L"
        },
        "referenceRange": [
          {
            "low": {
              "value": 3.5,
              "code": "mmol/L",
              "system": "http://unitsofmeasure.org"
            }
          },
          {
            "high": {
              "value": 5.2,
              "code": "mmol/L",
              "system": "http://unitsofmeasure.org"
            }
          }
        ],
        "text": {
          "status": "generated",
          "div": "<div xmlns=\"http://www.w3.org/1999/xhtml\"><table class=\"hl7__eu__lab__report\"><tr><th>Test</th><th>17-Mar-2019</th><th>Reference&#xA0;Range</th><th>Unit</th></tr><tr><td>Potassium [Moles/volume] in Blood</td><td>4.1</td><td>3.5 - 5.2</td><td></td><td>mmol/L</td></tr></table></div>"
        },
        "status": "final",
        "subject": {
          "reference": "urn:uuid:2341008d-35df-4f49-bc76-7af648b00ebf",
          "display": "Benedetto Lombroso"
        },
        "effectiveDateTime": "2019-03-17T07:22:02Z",
        "specimen": {
          "reference": "urn:uuid:434aa2fe-0459-4ddf-ac36-0b92313c433a"
        }
      }
    },
    {
      "fullUrl": "urn:uuid:c3903646-d183-45be-88c9-de2dad4e9beb",
      "resource": {
        "resourceType": "Observation",
        "id": "c3903646-d183-45be-88c9-de2dad4e9beb",
        "meta": {
          "profile": [
            "http://hl7.eu/fhir/laboratory/StructureDefinition/Observation-resultslab-eu-lab"
          ]
        },
        "performer": [
          {
            "display": "The Central European Lab"
          }
        ],
        "category": [
          {
            "coding": [
              {
                "system": "http://terminology.hl7.org/CodeSystem/observation-category",
                "code": "laboratory"
              }
            ]
          }
        ],
        "code": {
          "coding": [
            {
              "code": "2069-3",
              "system": "http://loinc.org",
              "display": "Chloride [Moles/volume] in Blood"
            }
          ],
          "text": "Chloride [Moles/volume] in Blood"
        },
        "valueQuantity": {
          "system": "http://unitsofmeasure.org",
          "value": 104.2,
          "unit": "mmol/L",
          "code": "mmol/L"
        },
        "referenceRange": [
          {
            "low": {
              "value": 98,
              "code": "mmol/L",
              "system": "http://unitsofmeasure.org"
            }
          },
          {
            "high": {
              "value": 114,
              "code": "mmol/L",
              "system": "http://unitsofmeasure.org"
            }
          }
        ],
        "text": {
          "status": "generated",
          "div": "<div xmlns=\"http://www.w3.org/1999/xhtml\"><table class=\"hl7__eu__lab__report\"><tr><th>Test</th><th>17-Mar-2019</th><th>Reference&#xA0;Range</th><th>Unit</th></tr><tr><td>Chloride [Moles/volume] in Blood</td><td>104.2</td><td>98 - 114</td><td></td><td>mmol/L</td></tr></table></div>"
        },
        "status": "final",
        "subject": {
          "reference": "urn:uuid:2341008d-35df-4f49-bc76-7af648b00ebf",
          "display": "Benedetto Lombroso"
        },
        "effectiveDateTime": "2019-03-17T07:22:02Z",
        "specimen": {
          "reference": "urn:uuid:434aa2fe-0459-4ddf-ac36-0b92313c433a"
        }
      }
    },
    {
      "fullUrl": "urn:uuid:62c91142-ebda-497e-bf26-c3c0f9de2dd9",
      "resource": {
        "resourceType": "Observation",
        "id": "62c91142-ebda-497e-bf26-c3c0f9de2dd9",
        "meta": {
          "profile": [
            "http://hl7.eu/fhir/laboratory/StructureDefinition/Observation-resultslab-eu-lab"
          ]
        },
        "performer": [
          {
            "display": "The Central European Lab"
          }
        ],
        "category": [
          {
            "coding": [
              {
                "system": "http://terminology.hl7.org/CodeSystem/observation-category",
                "code": "laboratory"
              }
            ]
          }
        ],
        "code": {
          "coding": [
            {
              "code": "20565-8",
              "system": "http://loinc.org",
              "display": "Carbon dioxide, total [Moles/volume] in Blood"
            }
          ],
          "text": "Carbon dioxide, total [Moles/volume] in Blood"
        },
        "valueQuantity": {
          "system": "http://unitsofmeasure.org",
          "value": 27.9,
          "unit": "mmol/L",
          "code": "mmol/L"
        },
        "referenceRange": [
          {
            "low": {
              "value": 24,
              "code": "mmol/L",
              "system": "http://unitsofmeasure.org"
            }
          },
          {
            "high": {
              "value": 29,
              "code": "mmol/L",
              "system": "http://unitsofmeasure.org"
            }
          }
        ],
        "text": {
          "status": "generated",
          "div": "<div xmlns=\"http://www.w3.org/1999/xhtml\"><table class=\"hl7__eu__lab__report\"><tr><th>Test</th><th>17-Mar-2019</th><th>Reference&#xA0;Range</th><th>Unit</th></tr><tr><td>Carbon dioxide, total [Moles/volume] in Blood</td><td>27.9</td><td>24 - 29</td><td></td><td>mmol/L</td></tr></table></div>"
        },
        "status": "final",
        "subject": {
          "reference": "urn:uuid:2341008d-35df-4f49-bc76-7af648b00ebf",
          "display": "Benedetto Lombroso"
        },
        "effectiveDateTime": "2019-03-17T07:22:02Z",
        "specimen": {
          "reference": "urn:uuid:434aa2fe-0459-4ddf-ac36-0b92313c433a"
        }
      }
    },
    {
      "fullUrl": "urn:uuid:fc3e8b04-3d30-469e-ac5a-9ffcb909d920",
      "resource": {
        "resourceType": "Observation",
        "id": "fc3e8b04-3d30-469e-ac5a-9ffcb909d920",
        "meta": {
          "profile": [
            "http://hl7.eu/fhir/laboratory/StructureDefinition/Observation-resultslab-eu-lab"
          ]
        },
        "performer": [
          {
            "display": "The Central European Lab"
          }
        ],
        "category": [
          {
            "coding": [
              {
                "system": "http://terminology.hl7.org/CodeSystem/observation-category",
                "code": "laboratory"
              }
            ]
          }
        ],
        "code": {
          "coding": [
            {
              "code": "6690-2",
              "system": "http://loinc.org",
              "display": "Leukocytes [#/volume] in Blood by Automated count"
            }
          ],
          "text": "Leukocytes [#/volume] in Blood by Automated count"
        },
        "valueQuantity": {
          "system": "http://unitsofmeasure.org",
          "value": 4.8,
          "unit": "10*3/uL",
          "code": "10*3/uL"
        },
        "referenceRange": [
          {
            "low": {
              "value": 3.4,
              "code": "10*3/uL",
              "system": "http://unitsofmeasure.org"
            }
          },
          {
            "high": {
              "value": 10.6,
              "code": "10*3/uL",
              "system": "http://unitsofmeasure.org"
            }
          }
        ],
        "text": {
          "status": "generated",
          "div": "<div xmlns=\"http://www.w3.org/1999/xhtml\"><table class=\"hl7__eu__lab__report\"><tr><th>Test</th><th>17-Mar-2019</th><th>Reference&#xA0;Range</th><th>Unit</th></tr><tr><td>Leukocytes [#/volume] in Blood by Automated count</td><td>4.8</td><td>3.4 - 10.6</td><td></td><td>10*3/uL</td></tr></table></div>"
        },
        "status": "final",
        "subject": {
          "reference": "urn:uuid:2341008d-35df-4f49-bc76-7af648b00ebf",
          "display": "Benedetto Lombroso"
        },
        "effectiveDateTime": "2019-03-17T07:22:02Z",
        "specimen": {
          "reference": "urn:uuid:434aa2fe-0459-4ddf-ac36-0b92313c433a"
        }
      }
    },
    {
      "fullUrl": "urn:uuid:e5a04344-846e-43fb-9187-a7136d5ac28f",
      "resource": {
        "resourceType": "Observation",
        "id": "e5a04344-846e-43fb-9187-a7136d5ac28f",
        "meta": {
          "profile": [
            "http://hl7.eu/fhir/laboratory/StructureDefinition/Observation-resultslab-eu-lab"
          ]
        },
        "performer": [
          {
            "display": "The Central European Lab"
          }
        ],
        "category": [
          {
            "coding": [
              {
                "system": "http://terminology.hl7.org/CodeSystem/observation-category",
                "code": "laboratory"
              }
            ]
          }
        ],
        "code": {
          "coding": [
            {
              "code": "789-8",
              "system": "http://loinc.org",
              "display": "Erythrocytes [#/volume] in Blood by Automated count"
            }
          ],
          "text": "Erythrocytes [#/volume] in Blood by Automated count"
        },
        "valueQuantity": {
          "system": "http://unitsofmeasure.org",
          "value": 4.7,
          "unit": "10*6/uL",
          "code": "10*6/uL"
        },
        "referenceRange": [
          {
            "low": {
              "value": 4.2,
              "code": "10*6/uL",
              "system": "http://unitsofmeasure.org"
            }
          },
          {
            "high": {
              "value": 6.2,
              "code": "10*6/uL",
              "system": "http://unitsofmeasure.org"
            }
          }
        ],
        "text": {
          "status": "generated",
          "div": "<div xmlns=\"http://www.w3.org/1999/xhtml\"><table class=\"hl7__eu__lab__report\"><tr><th>Test</th><th>17-Mar-2019</th><th>Reference&#xA0;Range</th><th>Unit</th></tr><tr><td>Erythrocytes [#/volume] in Blood by Automated count</td><td>4.7</td><td>4.2 - 6.2</td><td></td><td>10*6/uL</td></tr></table></div>"
        },
        "status": "final",
        "subject": {
          "reference": "urn:uuid:2341008d-35df-4f49-bc76-7af648b00ebf",
          "display": "Benedetto Lombroso"
        },
        "effectiveDateTime": "2019-03-17T07:22:02Z",
        "specimen": {
          "reference": "urn:uuid:434aa2fe-0459-4ddf-ac36-0b92313c433a"
        }
      }
    },
    {
      "fullUrl": "urn:uuid:9bd6ee36-d02b-4fa8-be6f-dff0bb35a3ac",
      "resource": {
        "resourceType": "Observation",
        "id": "9bd6ee36-d02b-4fa8-be6f-dff0bb35a3ac",
        "meta": {
          "profile": [
            "http://hl7.eu/fhir/laboratory/StructureDefinition/Observation-resultslab-eu-lab"
          ]
        },
        "performer": [
          {
            "display": "The Central European Lab"
          }
        ],
        "category": [
          {
            "coding": [
              {
                "system": "http://terminology.hl7.org/CodeSystem/observation-category",
                "code": "laboratory"
              }
            ]
          }
        ],
        "code": {
          "coding": [
            {
              "code": "718-7",
              "system": "http://loinc.org",
              "display": "Hemoglobin [Mass/volume] in Blood"
            }
          ],
          "text": "Hemoglobin [Mass/volume] in Blood"
        },
        "valueQuantity": {
          "system": "http://unitsofmeasure.org",
          "value": 14.6,
          "unit": "g/dL",
          "code": "g/dL"
        },
        "referenceRange": [
          {
            "low": {
              "value": 13.5,
              "code": "g/dL",
              "system": "http://unitsofmeasure.org"
            }
          },
          {
            "high": {
              "value": 17.5,
              "code": "g/dL",
              "system": "http://unitsofmeasure.org"
            }
          }
        ],
        "text": {
          "status": "generated",
          "div": "<div xmlns=\"http://www.w3.org/1999/xhtml\"><table class=\"hl7__eu__lab__report\"><tr><th>Test</th><th>17-Mar-2019</th><th>Reference&#xA0;Range</th><th>Unit</th></tr><tr><td>Hemoglobin [Mass/volume] in Blood</td><td>14.6</td><td>13.5 - 17.5</td><td></td><td>g/dL</td></tr></table></div>"
        },
        "status": "final",
        "subject": {
          "reference": "urn:uuid:2341008d-35df-4f49-bc76-7af648b00ebf",
          "display": "Benedetto Lombroso"
        },
        "effectiveDateTime": "2019-03-17T07:22:02Z",
        "specimen": {
          "reference": "urn:uuid:434aa2fe-0459-4ddf-ac36-0b92313c433a"
        }
      }
    },
    {
      "fullUrl": "urn:uuid:0fd21ed8-c67d-4954-9300-8bfada0af690",
      "resource": {
        "resourceType": "Observation",
        "id": "0fd21ed8-c67d-4954-9300-8bfada0af690",
        "meta": {
          "profile": [
            "http://hl7.eu/fhir/laboratory/StructureDefinition/Observation-resultslab-eu-lab"
          ]
        },
        "performer": [
          {
            "display": "The Central European Lab"
          }
        ],
        "category": [
          {
            "coding": [
              {
                "system": "http://terminology.hl7.org/CodeSystem/observation-category",
                "code": "laboratory"
              }
            ]
          }
        ],
        "code": {
          "coding": [
            {
              "code": "4544-3",
              "system": "http://loinc.org",
              "display": "Hematocrit [Volume Fraction] of Blood by Automated count"
            }
          ],
          "text": "Hematocrit [Volume Fraction] of Blood by Automated count"
        },
        "valueQuantity": {
          "system": "http://unitsofmeasure.org",
          "value": 45.5,
          "unit": "%",
          "code": "%"
        },
        "referenceRange": [
          {
            "low": {
              "value": 38,
              "code": "%",
              "system": "http://unitsofmeasure.org"
            }
          },
          {
            "high": {
              "value": 50,
              "code": "%",
              "system": "http://unitsofmeasure.org"
            }
          }
        ],
        "text": {
          "status": "generated",
          "div": "<div xmlns=\"http://www.w3.org/1999/xhtml\"><table class=\"hl7__eu__lab__report\"><tr><th>Test</th><th>17-Mar-2019</th><th>Reference&#xA0;Range</th><th>Unit</th></tr><tr><td>Hematocrit [Volume Fraction] of Blood by Automated count</td><td>45.5</td><td>38 - 50</td><td></td><td>%</td></tr></table></div>"
        },
        "status": "final",
        "subject": {
          "reference": "urn:uuid:2341008d-35df-4f49-bc76-7af648b00ebf",
          "display": "Benedetto Lombroso"
        },
        "effectiveDateTime": "2019-03-17T07:22:02Z",
        "specimen": {
          "reference": "urn:uuid:434aa2fe-0459-4ddf-ac36-0b92313c433a"
        }
      }
    },
    {
      "fullUrl": "urn:uuid:23a1b3bb-f135-4391-bb19-35cfec1f431e",
      "resource": {
        "resourceType": "Observation",
        "id": "23a1b3bb-f135-4391-bb19-35cfec1f431e",
        "meta": {
          "profile": [
            "http://hl7.eu/fhir/laboratory/StructureDefinition/Observation-resultslab-eu-lab"
          ]
        },
        "performer": [
          {
            "display": "The Central European Lab"
          }
        ],
        "category": [
          {
            "coding": [
              {
                "system": "http://terminology.hl7.org/CodeSystem/observation-category",
                "code": "laboratory"
              }
            ]
          }
        ],
        "code": {
          "coding": [
            {
              "code": "787-2",
              "system": "http://loinc.org",
              "display": "MCV [Entitic volume] by Automated count"
            }
          ],
          "text": "MCV [Entitic volume] by Automated count"
        },
        "valueQuantity": {
          "system": "http://unitsofmeasure.org",
          "value": 84,
          "unit": "fL",
          "code": "fL"
        },
        "referenceRange": [
          {
            "low": {
              "value": 80,
              "code": "fL",
              "system": "http://unitsofmeasure.org"
            }
          },
          {
            "high": {
              "value": 99,
              "code": "fL",
              "system": "http://unitsofmeasure.org"
            }
          }
        ],
        "text": {
          "status": "generated",
          "div": "<div xmlns=\"http://www.w3.org/1999/xhtml\"><table class=\"hl7__eu__lab__report\"><tr><th>Test</th><th>17-Mar-2019</th><th>Reference&#xA0;Range</th><th>Unit</th></tr><tr><td>MCV [Entitic volume] by Automated count</td><td>84.0</td><td>80 - 99</td><td></td><td>fL</td></tr></table></div>"
        },
        "status": "final",
        "subject": {
          "reference": "urn:uuid:2341008d-35df-4f49-bc76-7af648b00ebf",
          "display": "Benedetto Lombroso"
        },
        "effectiveDateTime": "2019-03-17T07:22:02Z",
        "specimen": {
          "reference": "urn:uuid:434aa2fe-0459-4ddf-ac36-0b92313c433a"
        }
      }
    },
    {
      "fullUrl": "urn:uuid:42159e0c-623a-4ff4-8360-3889024db807",
      "resource": {
        "resourceType": "Observation",
        "id": "42159e0c-623a-4ff4-8360-3889024db807",
        "meta": {
          "profile": [
            "http://hl7.eu/fhir/laboratory/StructureDefinition/Observation-resultslab-eu-lab"
          ]
        },
        "performer": [
          {
            "display": "The Central European Lab"
          }
        ],
        "category": [
          {
            "coding": [
              {
                "system": "http://terminology.hl7.org/CodeSystem/observation-category",
                "code": "laboratory"
              }
            ]
          }
        ],
        "code": {
          "coding": [
            {
              "code": "785-6",
              "system": "http://loinc.org",
              "display": "MCH [Entitic mass] by Automated count"
            }
          ],
          "text": "MCH [Entitic mass] by Automated count"
        },
        "valueQuantity": {
          "system": "http://unitsofmeasure.org",
          "value": 32.8,
          "unit": "pg",
          "code": "pg"
        },
        "referenceRange": [
          {
            "low": {
              "value": 27,
              "code": "pg",
              "system": "http://unitsofmeasure.org"
            }
          },
          {
            "high": {
              "value": 34,
              "code": "pg",
              "system": "http://unitsofmeasure.org"
            }
          }
        ],
        "text": {
          "status": "generated",
          "div": "<div xmlns=\"http://www.w3.org/1999/xhtml\"><table class=\"hl7__eu__lab__report\"><tr><th>Test</th><th>17-Mar-2019</th><th>Reference&#xA0;Range</th><th>Unit</th></tr><tr><td>MCH [Entitic mass] by Automated count</td><td>32.8</td><td>27 - 34</td><td></td><td>pg</td></tr></table></div>"
        },
        "status": "final",
        "subject": {
          "reference": "urn:uuid:2341008d-35df-4f49-bc76-7af648b00ebf",
          "display": "Benedetto Lombroso"
        },
        "effectiveDateTime": "2019-03-17T07:22:02Z",
        "specimen": {
          "reference": "urn:uuid:434aa2fe-0459-4ddf-ac36-0b92313c433a"
        }
      }
    },
    {
      "fullUrl": "urn:uuid:206c299e-f6dc-44da-b1cd-c28e476aefa2",
      "resource": {
        "resourceType": "Observation",
        "id": "206c299e-f6dc-44da-b1cd-c28e476aefa2",
        "meta": {
          "profile": [
            "http://hl7.eu/fhir/laboratory/StructureDefinition/Observation-resultslab-eu-lab"
          ]
        },
        "performer": [
          {
            "display": "The Central European Lab"
          }
        ],
        "category": [
          {
            "coding": [
              {
                "system": "http://terminology.hl7.org/CodeSystem/observation-category",
                "code": "laboratory"
              }
            ]
          }
        ],
        "code": {
          "coding": [
            {
              "code": "786-4",
              "system": "http://loinc.org",
              "display": "MCHC [Mass/volume] by Automated count"
            }
          ],
          "text": "MCHC [Mass/volume] by Automated count"
        },
        "valueQuantity": {
          "system": "http://unitsofmeasure.org",
          "value": 34.9,
          "unit": "g/dL",
          "code": "g/dL"
        },
        "referenceRange": [
          {
            "low": {
              "value": 31,
              "code": "g/dL",
              "system": "http://unitsofmeasure.org"
            }
          },
          {
            "high": {
              "value": 37,
              "code": "g/dL",
              "system": "http://unitsofmeasure.org"
            }
          }
        ],
        "text": {
          "status": "generated",
          "div": "<div xmlns=\"http://www.w3.org/1999/xhtml\"><table class=\"hl7__eu__lab__report\"><tr><th>Test</th><th>17-Mar-2019</th><th>Reference&#xA0;Range</th><th>Unit</th></tr><tr><td>MCHC [Mass/volume] by Automated count</td><td>34.9</td><td>31 - 37</td><td></td><td>g/dL</td></tr></table></div>"
        },
        "status": "final",
        "subject": {
          "reference": "urn:uuid:2341008d-35df-4f49-bc76-7af648b00ebf",
          "display": "Benedetto Lombroso"
        },
        "effectiveDateTime": "2019-03-17T07:22:02Z",
        "specimen": {
          "reference": "urn:uuid:434aa2fe-0459-4ddf-ac36-0b92313c433a"
        }
      }
    },
    {
      "fullUrl": "urn:uuid:789aaf9f-5aab-4a3c-afdd-4b7bf43a8cf6",
      "resource": {
        "resourceType": "Observation",
        "id": "789aaf9f-5aab-4a3c-afdd-4b7bf43a8cf6",
        "meta": {
          "profile": [
            "http://hl7.eu/fhir/laboratory/StructureDefinition/Observation-resultslab-eu-lab"
          ]
        },
        "performer": [
          {
            "display": "The Central European Lab"
          }
        ],
        "category": [
          {
            "coding": [
              {
                "system": "http://terminology.hl7.org/CodeSystem/observation-category",
                "code": "laboratory"
              }
            ]
          }
        ],
        "code": {
          "coding": [
            {
              "code": "21000-5",
              "system": "http://loinc.org",
              "display": "Erythrocyte distribution width [Entitic volume] by Automated count"
            }
          ],
          "text": "Erythrocyte distribution width [Entitic volume] by Automated count"
        },
        "valueQuantity": {
          "system": "http://unitsofmeasure.org",
          "value": 40.6,
          "unit": "fL",
          "code": "fL"
        },
        "referenceRange": [
          {
            "low": {
              "value": 39,
              "code": "fL",
              "system": "http://unitsofmeasure.org"
            }
          },
          {
            "high": {
              "value": 55,
              "code": "fL",
              "system": "http://unitsofmeasure.org"
            }
          }
        ],
        "text": {
          "status": "generated",
          "div": "<div xmlns=\"http://www.w3.org/1999/xhtml\"><table class=\"hl7__eu__lab__report\"><tr><th>Test</th><th>17-Mar-2019</th><th>Reference&#xA0;Range</th><th>Unit</th></tr><tr><td>Erythrocyte distribution width [Entitic volume] by Automated count</td><td>40.6</td><td>39 - 55</td><td></td><td>fL</td></tr></table></div>"
        },
        "status": "final",
        "subject": {
          "reference": "urn:uuid:2341008d-35df-4f49-bc76-7af648b00ebf",
          "display": "Benedetto Lombroso"
        },
        "effectiveDateTime": "2019-03-17T07:22:02Z",
        "specimen": {
          "reference": "urn:uuid:434aa2fe-0459-4ddf-ac36-0b92313c433a"
        }
      }
    },
    {
      "fullUrl": "urn:uuid:03a03c5c-188e-4aac-86ca-d46e10813e87",
      "resource": {
        "resourceType": "Observation",
        "id": "03a03c5c-188e-4aac-86ca-d46e10813e87",
        "meta": {
          "profile": [
            "http://hl7.eu/fhir/laboratory/StructureDefinition/Observation-resultslab-eu-lab"
          ]
        },
        "performer": [
          {
            "display": "The Central European Lab"
          }
        ],
        "category": [
          {
            "coding": [
              {
                "system": "http://terminology.hl7.org/CodeSystem/observation-category",
                "code": "laboratory"
              }
            ]
          }
        ],
        "code": {
          "coding": [
            {
              "code": "777-3",
              "system": "http://loinc.org",
              "display": "Platelets [#/volume] in Blood by Automated count"
            }
          ],
          "text": "Platelets [#/volume] in Blood by Automated count"
        },
        "valueQuantity": {
          "system": "http://unitsofmeasure.org",
          "value": 384.3,
          "unit": "10*3/uL",
          "code": "10*3/uL"
        },
        "referenceRange": [
          {
            "low": {
              "value": 150,
              "code": "10*3/uL",
              "system": "http://unitsofmeasure.org"
            }
          },
          {
            "high": {
              "value": 450,
              "code": "10*3/uL",
              "system": "http://unitsofmeasure.org"
            }
          }
        ],
        "text": {
          "status": "generated",
          "div": "<div xmlns=\"http://www.w3.org/1999/xhtml\"><table class=\"hl7__eu__lab__report\"><tr><th>Test</th><th>17-Mar-2019</th><th>Reference&#xA0;Range</th><th>Unit</th></tr><tr><td>Platelets [#/volume] in Blood by Automated count</td><td>384.3</td><td>150 - 450</td><td></td><td>10*3/uL</td></tr></table></div>"
        },
        "status": "final",
        "subject": {
          "reference": "urn:uuid:2341008d-35df-4f49-bc76-7af648b00ebf",
          "display": "Benedetto Lombroso"
        },
        "effectiveDateTime": "2019-03-17T07:22:02Z",
        "specimen": {
          "reference": "urn:uuid:434aa2fe-0459-4ddf-ac36-0b92313c433a"
        }
      }
    },
    {
      "fullUrl": "urn:uuid:f45a03a9-999b-4245-846b-d3e2d451f17b",
      "resource": {
        "resourceType": "Observation",
        "id": "f45a03a9-999b-4245-846b-d3e2d451f17b",
        "meta": {
          "profile": [
            "http://hl7.eu/fhir/laboratory/StructureDefinition/Observation-resultslab-eu-lab"
          ]
        },
        "performer": [
          {
            "display": "The Central European Lab"
          }
        ],
        "category": [
          {
            "coding": [
              {
                "system": "http://terminology.hl7.org/CodeSystem/observation-category",
                "code": "laboratory"
              }
            ]
          }
        ],
        "code": {
          "coding": [
            {
              "code": "32207-3",
              "system": "http://loinc.org",
              "display": "Platelet distribution width [Entitic volume] in Blood by Automated count"
            }
          ],
          "text": "Platelet distribution width [Entitic volume] in Blood by Automated count"
        },
        "valueQuantity": {
          "system": "http://unitsofmeasure.org",
          "value": 226.7,
          "unit": "fL",
          "code": "fL"
        },
        "referenceRange": [
          {
            "low": {
              "value": 150,
              "code": "fL",
              "system": "http://unitsofmeasure.org"
            }
          },
          {
            "high": {
              "value": 450,
              "code": "fL",
              "system": "http://unitsofmeasure.org"
            }
          }
        ],
        "text": {
          "status": "generated",
          "div": "<div xmlns=\"http://www.w3.org/1999/xhtml\"><table class=\"hl7__eu__lab__report\"><tr><th>Test</th><th>17-Mar-2019</th><th>Reference&#xA0;Range</th><th>Unit</th></tr><tr><td>Platelet distribution width [Entitic volume] in Blood by Automated count</td><td>226.7</td><td>150 - 450</td><td></td><td>fL</td></tr></table></div>"
        },
        "status": "final",
        "subject": {
          "reference": "urn:uuid:2341008d-35df-4f49-bc76-7af648b00ebf",
          "display": "Benedetto Lombroso"
        },
        "effectiveDateTime": "2019-03-17T07:22:02Z",
        "specimen": {
          "reference": "urn:uuid:434aa2fe-0459-4ddf-ac36-0b92313c433a"
        }
      }
    },
    {
      "fullUrl": "urn:uuid:5a80c062-9b52-407e-9245-ad318104cd41",
      "resource": {
        "resourceType": "Observation",
        "id": "5a80c062-9b52-407e-9245-ad318104cd41",
        "meta": {
          "profile": [
            "http://hl7.eu/fhir/laboratory/StructureDefinition/Observation-resultslab-eu-lab"
          ]
        },
        "performer": [
          {
            "display": "The Central European Lab"
          }
        ],
        "category": [
          {
            "coding": [
              {
                "system": "http://terminology.hl7.org/CodeSystem/observation-category",
                "code": "laboratory"
              }
            ]
          }
        ],
        "code": {
          "coding": [
            {
              "code": "32623-1",
              "system": "http://loinc.org",
              "display": "Platelet mean volume [Entitic volume] in Blood by Automated count"
            }
          ],
          "text": "Platelet mean volume [Entitic volume] in Blood by Automated count"
        },
        "valueQuantity": {
          "system": "http://unitsofmeasure.org",
          "value": 11,
          "unit": "fL",
          "code": "fL"
        },
        "referenceRange": [
          {
            "low": {
              "value": 9.6,
              "code": "fL",
              "system": "http://unitsofmeasure.org"
            }
          },
          {
            "high": {
              "value": 13.8,
              "code": "fL",
              "system": "http://unitsofmeasure.org"
            }
          }
        ],
        "text": {
          "status": "generated",
          "div": "<div xmlns=\"http://www.w3.org/1999/xhtml\"><table class=\"hl7__eu__lab__report\"><tr><th>Test</th><th>17-Mar-2019</th><th>Reference&#xA0;Range</th><th>Unit</th></tr><tr><td>Platelet mean volume [Entitic volume] in Blood by Automated count</td><td>11.0</td><td>9.6 - 13.8</td><td></td><td>fL</td></tr></table></div>"
        },
        "status": "final",
        "subject": {
          "reference": "urn:uuid:2341008d-35df-4f49-bc76-7af648b00ebf",
          "display": "Benedetto Lombroso"
        },
        "effectiveDateTime": "2019-03-17T07:22:02Z",
        "specimen": {
          "reference": "urn:uuid:434aa2fe-0459-4ddf-ac36-0b92313c433a"
        }
      }
    },
    {
      "fullUrl": "urn:uuid:6f6466f2-e568-4621-b741-9012a2ad3388",
      "resource": {
        "resourceType": "Device",
        "id": "6f6466f2-e568-4621-b741-9012a2ad3388",
        "deviceName": [
          {
            "name": "SYNDERAI Synthetic Generator",
            "type": "manufacturer-name"
          }
        ],
        "version": [
          {
            "value": "5.0"
          }
        ],
        "text": {
          "status": "generated",
          "div": "<div xmlns=\"http://www.w3.org/1999/xhtml\">SYNDERAI Synthetic Generator v5.0</div>"
        },
        "status": "active\"",
        "distinctIdentifier": "synderai-generator-50",
        "manufacturer": "SYNDERAI Project"
      }
    },
    {
      "fullUrl": "urn:uuid:6c80352f-e15f-4b20-bea3-7f1a9f5bd208",
      "resource": {
        "resourceType": "Provenance",
        "id": "6c80352f-e15f-4b20-bea3-7f1a9f5bd208",
        "target": [
          {
            "reference": "Patient/2341008d-35df-4f49-bc76-7af648b00ebf"
          },
          {
            "reference": "Bundle/702a693e-812e-4769-a1c0-06dc36e064d2"
          },
          {
            "reference": "Composition/31e175de-bfb0-4dff-93fe-e8f14e7fbf43"
          },
          {
            "reference": "PractitionerRole/4e42eaae-4f0e-444b-a87e-de74d9182f25"
          },
          {
            "reference": "Practitioner/794ebf18-c194-4841-bc3d-06188e83f333"
          },
          {
            "reference": "PractitionerRole/3d61001d-4497-448b-ad7f-618b2e6069c7"
          },
          {
            "reference": "Organization/adf5fa70-8ac3-4d58-ab3f-4fc3a9182b10"
          }
        ],
        "activity": {
          "text": "Synthetic Example Data Generation"
        },
        "policy": [
          "https://synderai.net/synderai-synthetic-data-policy"
        ],
        "agent": [
          {
            "type": {
              "text": "author"
            },
            "who": {
              "reference": "Device/6f6466f2-e568-4621-b741-9012a2ad3388"
            }
          }
        ],
        "reason": [
          {
            "text": "Interoperability Testing and Training (non-clinical use)"
          }
        ],
        "text": {
          "status": "generated",
          "div": "<div xmlns=\"http://www.w3.org/1999/xhtml\">Provenance for SYNDERAI Synthetic Example Data Resource</div>"
        },
        "recorded": "2019-03-17T08:22:02Z"
      }
    },
    {
      "fullUrl": "urn:uuid:4e42eaae-4f0e-444b-a87e-de74d9182f25",
      "resource": {
        "resourceType": "PractitionerRole",
        "id": "4e42eaae-4f0e-444b-a87e-de74d9182f25",
        "meta": {
          "profile": [
            "http://hl7.eu/fhir/base/StructureDefinition/practitionerRole-eu"
          ]
        },
        "text": {
          "status": "generated",
          "div": "<div xmlns=\"http://www.w3.org/1999/xhtml\">Laboratory Role Id: 4e42eaae-4f0e-444b-a87e-de74d9182f25</div>"
        },
        "practitioner": {
          "reference": "urn:uuid:794ebf18-c194-4841-bc3d-06188e83f333"
        }
      }
    },
    {
      "fullUrl": "urn:uuid:794ebf18-c194-4841-bc3d-06188e83f333",
      "resource": {
        "resourceType": "Practitioner",
        "id": "794ebf18-c194-4841-bc3d-06188e83f333",
        "meta": {
          "profile": [
            "http://hl7.eu/fhir/base/StructureDefinition/practitioner-eu"
          ]
        },
        "identifier": [
          {
            "assigner": {
              "display": "HL7 Europe"
            },
            "system": "urn:oid:2.16.840.1.113883.2.51.999",
            "value": "05298411-c40e-477f-be5e-a900e262ee9f"
          }
        ],
        "name": [
          {
            "prefix": [
              "dr"
            ],
            "given": [
              "Ex"
            ],
            "family": "Ample"
          }
        ],
        "address": [
          {
            "line": [
              "Laboratoire Central Europenne",
              "Boulevard du Jardin Botanique 32"
            ],
            "postalCode": "1000",
            "city": "Brussels",
            "country": "Belgium"
          }
        ],
        "text": {
          "status": "generated",
          "div": "<div xmlns=\"http://www.w3.org/1999/xhtml\">Laboratory: Laboratoire Central Europenne, 1000 Brussels, Belgium</div>"
        }
      }
    }
  ],
  "type": "document",
  "timestamp": "2019-03-17T08:22:02Z"
}
