{
  "resourceType": "Bundle",
  "id": "b46f10db-1b8e-46fb-ba5d-786e38fef837",
  "meta": {
    "profile": [
      "http://hl7.eu/fhir/laboratory/StructureDefinition/Bundle-eu-lab"
    ]
  },
  "identifier": {
    "assigner": {
      "display": "HL7 Europe"
    },
    "system": "urn:oid:2.16.840.1.113883.2.51.999",
    "value": "ab9badef-8a43-49aa-ad19-a7036d6cdd43"
  },
  "entry": [
    {
      "fullUrl": "urn:uuid:3cc4e625-cf20-4fb1-80f6-b870378e9bcd",
      "resource": {
        "resourceType": "Composition",
        "id": "3cc4e625-cf20-4fb1-80f6-b870378e9bcd",
        "meta": {
          "profile": [
            "http://hl7.eu/fhir/laboratory/StructureDefinition/Composition-eu-lab"
          ]
        },
        "identifier": {
          "assigner": {
            "display": "HL7 Europe"
          },
          "system": "urn:oid:2.16.840.1.113883.2.51.999",
          "value": "00e181a4-b5b0-4f1a-b6b1-44d61150e3cb"
        },
        "author": [
          {
            "reference": "urn:uuid:8cd7e127-307d-43ce-bd85-f2ced6d0c3e9"
          }
        ],
        "category": [
          {
            "coding": [
              {
                "code": "26436-6",
                "system": "http://loinc.org",
                "display": "Laboratory studies (set)"
              }
            ]
          }
        ],
        "type": {
          "coding": [
            {
              "code": "11502-2",
              "system": "http://loinc.org",
              "display": "Laboratory report"
            }
          ],
          "text": "Laboratory Report"
        },
        "section": [
          {
            "code": {
              "coding": [
                {
                  "code": "26436-6",
                  "system": "http://loinc.org",
                  "display": "Laboratory studies (set)"
                }
              ],
              "text": "Laboratory studies"
            },
            "section": [
              {
                "code": {
                  "coding": [
                    {
                      "code": "$18719-5",
                      "system": "http://loinc.org",
                      "display": "Chemistry studies (set)"
                    }
                  ],
                  "text": "Chemistry"
                },
                "entry": [
                  {
                    "reference": "urn:uuid:87ced2bd-028c-4dce-aee1-eea2cee2828e"
                  },
                  {
                    "reference": "urn:uuid:e2f2aa30-e5f1-4432-8355-3f6bbea80671"
                  },
                  {
                    "reference": "urn:uuid:f1ea1934-bb51-4cfe-a75c-8416a7700051"
                  },
                  {
                    "reference": "urn:uuid:c38f0186-3500-4bca-ba5d-d9c19080bb8c"
                  },
                  {
                    "reference": "urn:uuid:4784eee7-23b8-4acf-b435-63e4f3107ad1"
                  },
                  {
                    "reference": "urn:uuid:fb537e12-1326-4ccc-9e45-29fe63e3f902"
                  },
                  {
                    "reference": "urn:uuid:557d43d7-0eb4-4a0d-a794-d62a58038aa4"
                  },
                  {
                    "reference": "urn:uuid:0c7bba6c-b9bc-4f9f-b864-af57b453c509"
                  },
                  {
                    "reference": "urn:uuid:bb1f3c34-8ce9-4014-adb3-15ca144ccad0"
                  },
                  {
                    "reference": "urn:uuid:514a2c91-ca9a-4e50-9341-4925bd9f9a99"
                  },
                  {
                    "reference": "urn:uuid:feeb872d-6709-4413-b20f-54571c5678e8"
                  },
                  {
                    "reference": "urn:uuid:815fbdc8-d720-435f-8507-3af74747e895"
                  },
                  {
                    "reference": "urn:uuid:06face8e-cf43-4018-8dc1-e268708f3bf1"
                  },
                  {
                    "reference": "urn:uuid:31c404af-235e-47b9-8a36-5b16b508cbdc"
                  },
                  {
                    "reference": "urn:uuid:a647fbe1-249f-4a3e-95d5-432682bbabf1"
                  },
                  {
                    "reference": "urn:uuid:0288f88f-17f6-4a6c-a490-e5bd774e8d7e"
                  }
                ],
                "text": {
                  "status": "generated",
                  "div": "<div xmlns=\"http://www.w3.org/1999/xhtml\"><h3>Chemistry</h3><table class=\"hl7__eu__lab__report\"><thead><tr><th>Test</th><th>11-OCT-2015</th><th>Reference&#xA0;Range</th><th>Unit</th></tr></thead><tbody><tr><td>Glucose [Mass/volume] in Blood</td><td>83.5</td><td>70 - 140</td><td>mg/dL</td></tr><tr><td>Urea nitrogen [Mass/volume] in Blood</td><td>18.9</td><td>7 - 30</td><td>mg/dL</td></tr><tr><td>Creatinine [Mass/volume] in Blood</td><td><strong>3.0 H</strong></td><td>0.5 - 1.3</td><td>mg/dL</td></tr><tr><td>Calcium [Mass/volume] in Blood</td><td>9.5</td><td>8.6 - 10.2</td><td>mg/dL</td></tr><tr><td>Sodium [Moles/volume] in Blood</td><td>138.8</td><td>135 - 145</td><td>mmol/L</td></tr><tr><td>Potassium [Moles/volume] in Blood</td><td>4.2</td><td>3.5 - 5.1</td><td>mmol/L</td></tr><tr><td>Chloride [Moles/volume] in Blood</td><td>101.1</td><td>98 - 114</td><td>mmol/L</td></tr><tr><td>Carbon dioxide, total [Moles/volume] in Blood</td><td>23.5</td><td>22 - 32</td><td>mmol/L</td></tr><tr><td>Protein [Mass/volume] in Serum or Plasma</td><td>7.5</td><td>6 - 8.3</td><td>g/dL</td></tr><tr><td>Albumin [Mass/volume] in Serum or Plasma</td><td>3.9</td><td>3.5 - 5.5</td><td>g/dL</td></tr><tr><td>Globulin [Mass/volume] in Serum by calculation</td><td>3.0</td><td>2 - 3.5</td><td>g/L</td></tr><tr><td>Bilirubin.total [Mass/volume] in Serum or Plasma</td><td>0.5</td><td>0.3 - 1.2</td><td>mg/dL</td></tr><tr><td>Alkaline phosphatase [Enzymatic activity/volume] in Serum or Plasma</td><td>62.4</td><td>44 - 142</td><td>U/L</td></tr><tr><td>Alanine aminotransferase [Enzymatic activity/volume] in Serum or Plasma</td><td>21.3</td><td>7 - 40</td><td>U/L</td></tr><tr><td>Aspartate aminotransferase [Enzymatic activity/volume] in Serum or Plasma</td><td><strong>6.3 L</strong></td><td>10 - 40</td><td>U/L</td></tr><tr><td>Ketones [Presence] in Urine by Test strip</td><td>Urine ketone test = +++</td><td></td><td></td></tr></tbody></table></div>"
                },
                "title": "Chemistry"
              },
              {
                "code": {
                  "coding": [
                    {
                      "code": "$18729-4",
                      "system": "http://loinc.org",
                      "display": "Urinalysis studies (set)"
                    }
                  ],
                  "text": "Urinalysis"
                },
                "entry": [
                  {
                    "reference": "urn:uuid:1e24fb7a-84e7-4f38-8284-f6d647c6bda4"
                  },
                  {
                    "reference": "urn:uuid:47ae0adf-9139-4175-a82a-1e8d828ad79e"
                  },
                  {
                    "reference": "urn:uuid:58846ac9-adea-4697-8cac-5e6cdfeef09f"
                  },
                  {
                    "reference": "urn:uuid:55a82240-1570-41fa-8acb-06964ddcb139"
                  },
                  {
                    "reference": "urn:uuid:1fc1e79a-83ae-413d-8df3-4efcfed98985"
                  },
                  {
                    "reference": "urn:uuid:d2ce69bd-2cae-4e4c-84fd-ff0131382f4d"
                  },
                  {
                    "reference": "urn:uuid:b40861ad-de01-4ee7-8865-f7fabf03b014"
                  },
                  {
                    "reference": "urn:uuid:0fc404e8-84fa-4516-b995-30af50f04e41"
                  },
                  {
                    "reference": "urn:uuid:e508905f-e8ff-42ea-970f-122f99f300c9"
                  },
                  {
                    "reference": "urn:uuid:58bdae1f-6982-4208-bfa8-2c6a13badd50"
                  },
                  {
                    "reference": "urn:uuid:32f1cc6e-8b3f-4cbf-81c9-910b5e9709e7"
                  },
                  {
                    "reference": "urn:uuid:7d3c51eb-085c-4136-9b2c-a4a3c4be63b2"
                  }
                ],
                "text": {
                  "status": "generated",
                  "div": "<div xmlns=\"http://www.w3.org/1999/xhtml\"><h3>Urinalysis</h3><table class=\"hl7__eu__lab__report\"><thead><tr><th>Test</th><th>11-OCT-2015</th><th>Reference&#xA0;Range</th><th>Unit</th></tr></thead><tbody><tr><td>Glucose [Mass/volume] in Urine by Test strip</td><td><strong>0.9 H</strong></td><td>0.8 - 0</td><td>mg/dL</td></tr><tr><td>Glucose [Presence] in Urine by Test strip</td><td>++</td><td></td><td></td></tr><tr><td>Bilirubin.total [Mass/volume] in Urine by Test strip</td><td>0.8</td><td>0 - 1.5</td><td>mg/dL</td></tr><tr><td>Bilirubin.total [Presence] in Urine by Test strip</td><td>Finding of bilirubin in urine</td><td></td><td></td></tr><tr><td>Ketones [Mass/volume] in Urine by Test strip</td><td><strong>10.2 H</strong></td><td>0 - 8</td><td>mg/dL</td></tr><tr><td>Specific gravity of Urine by Test strip</td><td><strong>1.0 L</strong></td><td>1.01 - 1.03</td><td>{nominal}</td></tr><tr><td>pH of Urine by Test strip</td><td>5.4</td><td>4.6 - 7.5</td><td>pH</td></tr><tr><td>Protein [Mass/volume] in Urine by Test strip</td><td><strong>389.8 H</strong></td><td>0 - 14</td><td>mg/dL</td></tr><tr><td>Protein [Presence] in Urine by Test strip</td><td>Urine protein test = +++</td><td></td><td></td></tr><tr><td>Nitrite [Presence] in Urine by Test strip</td><td>Urine nitrite negative</td><td></td><td></td></tr><tr><td>Hemoglobin [Presence] in Urine by Test strip</td><td>Urine blood test = negative</td><td></td><td></td></tr><tr><td>Leukocyte esterase [Presence] in Urine by Test strip</td><td>Urine leukocyte test negative</td><td></td><td></td></tr></tbody></table></div>"
                },
                "title": "Urinalysis"
              },
              {
                "code": {
                  "coding": [
                    {
                      "code": "$LP7846-1",
                      "system": "http://loinc.org",
                      "display": "Specimen information"
                    }
                  ],
                  "text": "Specimen information"
                },
                "entry": [
                  {
                    "reference": "urn:uuid:c638aa03-f514-403c-a9ae-9e83c7977ff5"
                  },
                  {
                    "reference": "urn:uuid:77c3c1f7-2301-4beb-bcd7-1be4c65cfd51"
                  },
                  {
                    "reference": "urn:uuid:47e8dcce-fc0b-4fe7-8014-25054bb75108"
                  },
                  {
                    "reference": "urn:uuid:ecdd033f-8ad6-4009-96ef-f830f8a91614"
                  }
                ],
                "text": {
                  "status": "generated",
                  "div": "<div xmlns=\"http://www.w3.org/1999/xhtml\"><h3>Specimen information</h3><table class=\"hl7__eu__lab__report\"><thead><tr><th>Test</th><th>11-OCT-2015</th><th>Specimen</th><th></th></tr></thead><tbody><tr><td>Appearance of Urine</td><td>Cloudy urine</td><td>Urine</td><td></td></tr><tr><td>Odor of Urine</td><td>Urine smell ammoniacal</td><td>Urine</td><td></td></tr><tr><td>Clarity of Urine</td><td>Translucent</td><td>Urine</td><td></td></tr><tr><td>Color of Urine</td><td>Brown color</td><td>Urine</td><td></td></tr></tbody></table></div>"
                },
                "title": "Specimen information"
              }
            ],
            "title": "Laboratory Report"
          },
          {
            "text": {
              "status": "generated",
              "div": "<div xmlns=\"http://www.w3.org/1999/xhtml\"><h3>Annotation</h3><table class=\"hl7__eu__lab__report\"><tr><th>Conclusion and Recommendations based on this report and previous findings known to us</th></tr><tr><td>The patient shows significant renal impairment (elevated creatinine, marked proteinuria, low urine specific gravity), with glucosuria and ketonuria suggesting possible diabetic nephropathy or another cause of renal dysfunction. Liver function and electrolytes are within normal limits. Urinalysis shows no evidence of infection. Recommend urgent nephrology evaluation and assessment for underlying metabolic or systemic disease.</td></tr></table></div>"
            },
            "code": {
              "coding": [
                {
                  "system": "http://loinc.org",
                  "code": "48767-8",
                  "display": "Annotation comment"
                }
              ]
            },
            "title": "Annotation comment"
          }
        ],
        "status": "final",
        "subject": {
          "reference": "urn:uuid:2779b674-e6ca-4e1c-a7d5-ee13103d6f06",
          "display": "Maria Nohlmans"
        },
        "date": "2015-10-11T06:55:39Z",
        "title": "Laboratory Report",
        "confidentiality": "N"
      }
    },
    {
      "fullUrl": "urn:uuid:72aa337a-402e-48ef-a374-374f23ac57f0",
      "resource": {
        "resourceType": "DiagnosticReport",
        "id": "72aa337a-402e-48ef-a374-374f23ac57f0",
        "meta": {
          "profile": [
            "http://hl7.eu/fhir/laboratory/StructureDefinition/DiagnosticReport-eu-lab"
          ]
        },
        "identifier": [
          {
            "assigner": {
              "display": "HL7 Europe"
            },
            "system": "urn:oid:2.16.840.1.113883.2.51.999",
            "value": "773b923f-048c-4dc0-8c59-6ffb69fe9b72"
          }
        ],
        "extension": [
          {
            "url": "http://hl7.org/fhir/5.0/StructureDefinition/extension-DiagnosticReport.composition",
            "valueReference": {
              "reference": "urn:uuid:00e181a4-b5b0-4f1a-b6b1-44d61150e3cb"
            }
          }
        ],
        "category": [
          {
            "coding": [
              {
                "code": "26436-6",
                "system": "http://loinc.org",
                "display": "Laboratory studies (set)"
              }
            ]
          }
        ],
        "specimen": [
          {
            "reference": "urn:uuid:fceeeaa0-6e44-4527-8def-bdc8c622ba5d"
          },
          {
            "reference": "urn:uuid:8e360708-f655-43f1-b093-a1039dd02867"
          },
          {
            "reference": "urn:uuid:0fb418bc-ec09-41cf-935e-327e3a4f5fd0"
          },
          {
            "reference": "urn:uuid:fe0aec12-6e40-4924-a1d0-1fe0efd12867"
          }
        ],
        "result": [
          {
            "reference": "urn:uuid:87ced2bd-028c-4dce-aee1-eea2cee2828e"
          },
          {
            "reference": "urn:uuid:e2f2aa30-e5f1-4432-8355-3f6bbea80671"
          },
          {
            "reference": "urn:uuid:f1ea1934-bb51-4cfe-a75c-8416a7700051"
          },
          {
            "reference": "urn:uuid:c38f0186-3500-4bca-ba5d-d9c19080bb8c"
          },
          {
            "reference": "urn:uuid:4784eee7-23b8-4acf-b435-63e4f3107ad1"
          },
          {
            "reference": "urn:uuid:fb537e12-1326-4ccc-9e45-29fe63e3f902"
          },
          {
            "reference": "urn:uuid:557d43d7-0eb4-4a0d-a794-d62a58038aa4"
          },
          {
            "reference": "urn:uuid:0c7bba6c-b9bc-4f9f-b864-af57b453c509"
          },
          {
            "reference": "urn:uuid:bb1f3c34-8ce9-4014-adb3-15ca144ccad0"
          },
          {
            "reference": "urn:uuid:514a2c91-ca9a-4e50-9341-4925bd9f9a99"
          },
          {
            "reference": "urn:uuid:feeb872d-6709-4413-b20f-54571c5678e8"
          },
          {
            "reference": "urn:uuid:815fbdc8-d720-435f-8507-3af74747e895"
          },
          {
            "reference": "urn:uuid:06face8e-cf43-4018-8dc1-e268708f3bf1"
          },
          {
            "reference": "urn:uuid:31c404af-235e-47b9-8a36-5b16b508cbdc"
          },
          {
            "reference": "urn:uuid:a647fbe1-249f-4a3e-95d5-432682bbabf1"
          },
          {
            "reference": "urn:uuid:c638aa03-f514-403c-a9ae-9e83c7977ff5"
          },
          {
            "reference": "urn:uuid:77c3c1f7-2301-4beb-bcd7-1be4c65cfd51"
          },
          {
            "reference": "urn:uuid:47e8dcce-fc0b-4fe7-8014-25054bb75108"
          },
          {
            "reference": "urn:uuid:ecdd033f-8ad6-4009-96ef-f830f8a91614"
          },
          {
            "reference": "urn:uuid:1e24fb7a-84e7-4f38-8284-f6d647c6bda4"
          },
          {
            "reference": "urn:uuid:47ae0adf-9139-4175-a82a-1e8d828ad79e"
          },
          {
            "reference": "urn:uuid:58846ac9-adea-4697-8cac-5e6cdfeef09f"
          },
          {
            "reference": "urn:uuid:55a82240-1570-41fa-8acb-06964ddcb139"
          },
          {
            "reference": "urn:uuid:1fc1e79a-83ae-413d-8df3-4efcfed98985"
          },
          {
            "reference": "urn:uuid:0288f88f-17f6-4a6c-a490-e5bd774e8d7e"
          },
          {
            "reference": "urn:uuid:d2ce69bd-2cae-4e4c-84fd-ff0131382f4d"
          },
          {
            "reference": "urn:uuid:b40861ad-de01-4ee7-8865-f7fabf03b014"
          },
          {
            "reference": "urn:uuid:0fc404e8-84fa-4516-b995-30af50f04e41"
          },
          {
            "reference": "urn:uuid:e508905f-e8ff-42ea-970f-122f99f300c9"
          },
          {
            "reference": "urn:uuid:58bdae1f-6982-4208-bfa8-2c6a13badd50"
          },
          {
            "reference": "urn:uuid:32f1cc6e-8b3f-4cbf-81c9-910b5e9709e7"
          },
          {
            "reference": "urn:uuid:7d3c51eb-085c-4136-9b2c-a4a3c4be63b2"
          }
        ],
        "status": "registered",
        "code": {
          "coding": [
            {
              "code": "11502-2",
              "system": "http://loinc.org",
              "display": "Laboratory report"
            }
          ]
        },
        "subject": {
          "reference": "urn:uuid:2779b674-e6ca-4e1c-a7d5-ee13103d6f06",
          "display": "Maria Nohlmans"
        }
      }
    },
    {
      "fullUrl": "urn:uuid:2779b674-e6ca-4e1c-a7d5-ee13103d6f06",
      "resource": {
        "resourceType": "Patient",
        "id": "2779b674-e6ca-4e1c-a7d5-ee13103d6f06",
        "meta": {
          "security": [
            {
              "system": "http://terminology.hl7.org/CodeSystem/v3-ActReason",
              "code": "HTEST"
            },
            {
              "system": "http://terminology.hl7.org/CodeSystem/v3-ActReason",
              "code": "TRAIN"
            }
          ],
          "tag": [
            {
              "system": "https://synderai.net/fhir/CodeSystem/tags",
              "code": "synthetic",
              "display": "SYNDERAI Synthetic data"
            }
          ],
          "profile": [
            "http://hl7.eu/fhir/base/StructureDefinition/patient-eu-core"
          ]
        },
        "identifier": [
          {
            "type": {
              "coding": [
                {
                  "code": "PT",
                  "system": "http://terminology.hl7.org/CodeSystem/v2-0203"
                }
              ]
            },
            "system": "http://ec.europa.eu/identifier/eci",
            "value": "6886-506417-1"
          },
          {
            "type": {
              "coding": [
                {
                  "code": "MR",
                  "system": "http://terminology.hl7.org/CodeSystem/v2-0203"
                }
              ]
            },
            "system": "http://local.setting.eu/identifier",
            "value": "2cb21ed6-b617-b1f3-2290-589a710de5ee"
          }
        ],
        "name": [
          {
            "family": "Nohlmans"
          },
          {
            "given": [
              "Maria"
            ]
          },
          {
            "text": "Maria Nohlmans"
          }
        ],
        "address": [
          {
            "line": [
              "Alfons-Wulff-Weg 1"
            ],
            "use": "home",
            "type": "physical",
            "postalCode": "25813",
            "city": "Husum",
            "country": "Germany"
          }
        ],
        "telecom": [
          {
            "system": "phone",
            "value": "+49(0)1911 105501"
          }
        ],
        "extension": [
          {
            "url": "http://hl7.org/fhir/StructureDefinition/patient-nationality",
            "valueCodeableConcept": {
              "coding": [
                {
                  "code": "DE",
                  "system": "http://hl7.org/fhir/ValueSet/country"
                }
              ]
            }
          }
        ],
        "text": {
          "status": "generated",
          "div": "<div xmlns=\"http://www.w3.org/1999/xhtml\"><table class=\"hl7__ips\"><tr><td>Maria Nohlmans</td><td>female</td><td>11-Jun-1947</td></tr></table></div>"
        },
        "gender": "female",
        "birthDate": "1947-06-11"
      }
    },
    {
      "fullUrl": "urn:uuid:150e39f1-c8d5-425d-8231-672b93a54fdd",
      "resource": {
        "resourceType": "ServiceRequest",
        "id": "150e39f1-c8d5-425d-8231-672b93a54fdd",
        "meta": {
          "profile": [
            "http://hl7.eu/fhir/laboratory/StructureDefinition/ServiceRequest-eu-lab"
          ]
        },
        "identifier": [
          {
            "system": "http://example.org",
            "value": "64dadbcd-910d-45a0-a21d-daf2c502af10"
          }
        ],
        "specimen": [
          {
            "reference": "urn:uuid:fceeeaa0-6e44-4527-8def-bdc8c622ba5d"
          },
          {
            "reference": "urn:uuid:8e360708-f655-43f1-b093-a1039dd02867"
          },
          {
            "reference": "urn:uuid:0fb418bc-ec09-41cf-935e-327e3a4f5fd0"
          },
          {
            "reference": "urn:uuid:fe0aec12-6e40-4924-a1d0-1fe0efd12867"
          }
        ],
        "reasonCode": [
          {
            "coding": [
              {
                "code": "401314000",
                "system": "http://snomed.info/sct",
                "display": "Acute non-ST segment elevation myocardial infarction"
              }
            ]
          },
          {
            "coding": [
              {
                "code": "157141000119108",
                "system": "http://snomed.info/sct",
                "display": "Proteinuria due to type 2 diabetes mellitus"
              }
            ]
          },
          {
            "coding": [
              {
                "code": "237602007",
                "system": "http://snomed.info/sct",
                "display": "Metabolic syndrome X"
              }
            ]
          },
          {
            "coding": [
              {
                "code": "90781000119102",
                "system": "http://snomed.info/sct",
                "display": "Microalbuminuria due to type 2 diabetes mellitus"
              }
            ]
          },
          {
            "coding": [
              {
                "code": "127013003",
                "system": "http://snomed.info/sct",
                "display": "Disorder of kidney due to diabetes mellitus"
              }
            ]
          },
          {
            "coding": [
              {
                "code": "59621000",
                "system": "http://snomed.info/sct",
                "display": "Essential hypertension"
              }
            ]
          },
          {
            "coding": [
              {
                "code": "271737000",
                "system": "http://snomed.info/sct",
                "display": "Anemia"
              }
            ]
          },
          {
            "coding": [
              {
                "code": "15777000",
                "system": "http://snomed.info/sct",
                "display": "Prediabetes"
              }
            ]
          }
        ],
        "status": "active",
        "intent": "order",
        "code": {
          "coding": [
            {
              "code": "108252007",
              "system": "http://snomed.info/sct",
              "display": "Laboratory procedure"
            }
          ]
        },
        "subject": {
          "reference": "urn:uuid:2779b674-e6ca-4e1c-a7d5-ee13103d6f06",
          "display": "Maria Nohlmans"
        },
        "requester": {
          "reference": "urn:uuid:4b456c11-d4d8-4cc7-b630-9fd130766afe"
        }
      }
    },
    {
      "fullUrl": "urn:uuid:4b456c11-d4d8-4cc7-b630-9fd130766afe",
      "resource": {
        "resourceType": "PractitionerRole",
        "id": "4b456c11-d4d8-4cc7-b630-9fd130766afe",
        "meta": {
          "profile": [
            "http://hl7.eu/fhir/base/StructureDefinition/practitionerRole-eu"
          ]
        },
        "text": {
          "status": "generated",
          "div": "<div xmlns=\"http://www.w3.org/1999/xhtml\">Provider Role Id: 4b456c11-d4d8-4cc7-b630-9fd130766afe</div>"
        },
        "organization": {
          "reference": "urn:uuid:b6307b1a-e6a7-4321-bc8d-9959b47310bb"
        }
      }
    },
    {
      "fullUrl": "urn:uuid:b6307b1a-e6a7-4321-bc8d-9959b47310bb",
      "resource": {
        "resourceType": "Organization",
        "id": "b6307b1a-e6a7-4321-bc8d-9959b47310bb",
        "meta": {
          "profile": [
            "http://hl7.eu/fhir/base/StructureDefinition/organization-eu"
          ]
        },
        "identifier": [
          {
            "assigner": {
              "display": "HL7 Europe"
            },
            "system": "urn:oid:2.16.840.1.113883.2.51.999",
            "value": "70f3b895-67cc-406d-a446-ebace124f5cc"
          }
        ],
        "address": [
          {
            "line": [
              "Brinckmannstraße 35"
            ],
            "city": "Husum",
            "postalCode": "25813",
            "country": "Germany"
          }
        ],
        "text": {
          "status": "generated",
          "div": "<div xmlns=\"http://www.w3.org/1999/xhtml\">Provider Organization: Dr. Wolfram Hussels Kieferorthopäde</div>"
        },
        "name": "Dr. Wolfram Hussels Kieferorthopäde"
      }
    },
    {
      "fullUrl": "urn:uuid:fceeeaa0-6e44-4527-8def-bdc8c622ba5d",
      "resource": {
        "resourceType": "Specimen",
        "id": "fceeeaa0-6e44-4527-8def-bdc8c622ba5d",
        "meta": {
          "profile": [
            "http://hl7.eu/fhir/laboratory/StructureDefinition/Specimen-eu-lab"
          ]
        },
        "collection": {
          "collectedDateTime": "2015-10-11"
        },
        "text": {
          "status": "generated",
          "div": "<div xmlns=\"http://www.w3.org/1999/xhtml\"><table class=\"hl7__eu__lab__report\"><tr><th>Specimen</th><th>Collection Date</th></tr><tr><td>Whole blood specimen (specimen)</td><td><span class=\"nb\">11-Oct-2015</span></td></tr></table></div>"
        },
        "type": {
          "coding": [
            {
              "code": "258580003",
              "system": "http://snomed.info/sct",
              "display": "Whole blood specimen (specimen)"
            }
          ]
        }
      }
    },
    {
      "fullUrl": "urn:uuid:8e360708-f655-43f1-b093-a1039dd02867",
      "resource": {
        "resourceType": "Specimen",
        "id": "8e360708-f655-43f1-b093-a1039dd02867",
        "meta": {
          "profile": [
            "http://hl7.eu/fhir/laboratory/StructureDefinition/Specimen-eu-lab"
          ]
        },
        "collection": {
          "collectedDateTime": "2015-10-11"
        },
        "text": {
          "status": "generated",
          "div": "<div xmlns=\"http://www.w3.org/1999/xhtml\"><table class=\"hl7__eu__lab__report\"><tr><th>Specimen</th><th>Collection Date</th></tr><tr><td>Acellular blood (serum or plasma) specimen</td><td><span class=\"nb\">11-Oct-2015</span></td></tr></table></div>"
        },
        "type": {
          "coding": [
            {
              "code": "122592007",
              "system": "http://snomed.info/sct",
              "display": "Acellular blood (serum or plasma) specimen"
            }
          ]
        }
      }
    },
    {
      "fullUrl": "urn:uuid:0fb418bc-ec09-41cf-935e-327e3a4f5fd0",
      "resource": {
        "resourceType": "Specimen",
        "id": "0fb418bc-ec09-41cf-935e-327e3a4f5fd0",
        "meta": {
          "profile": [
            "http://hl7.eu/fhir/laboratory/StructureDefinition/Specimen-eu-lab"
          ]
        },
        "collection": {
          "collectedDateTime": "2015-10-11"
        },
        "text": {
          "status": "generated",
          "div": "<div xmlns=\"http://www.w3.org/1999/xhtml\"><table class=\"hl7__eu__lab__report\"><tr><th>Specimen</th><th>Collection Date</th></tr><tr><td>Serum specimen</td><td><span class=\"nb\">11-Oct-2015</span></td></tr></table></div>"
        },
        "type": {
          "coding": [
            {
              "code": "119364003",
              "system": "http://snomed.info/sct",
              "display": "Serum specimen"
            }
          ]
        }
      }
    },
    {
      "fullUrl": "urn:uuid:fe0aec12-6e40-4924-a1d0-1fe0efd12867",
      "resource": {
        "resourceType": "Specimen",
        "id": "fe0aec12-6e40-4924-a1d0-1fe0efd12867",
        "meta": {
          "profile": [
            "http://hl7.eu/fhir/laboratory/StructureDefinition/Specimen-eu-lab"
          ]
        },
        "collection": {
          "collectedDateTime": "2015-10-11"
        },
        "text": {
          "status": "generated",
          "div": "<div xmlns=\"http://www.w3.org/1999/xhtml\"><table class=\"hl7__eu__lab__report\"><tr><th>Specimen</th><th>Collection Date</th></tr><tr><td>Urine specimen</td><td><span class=\"nb\">11-Oct-2015</span></td></tr></table></div>"
        },
        "type": {
          "coding": [
            {
              "code": "122575003",
              "system": "http://snomed.info/sct",
              "display": "Urine specimen"
            }
          ]
        }
      }
    },
    {
      "fullUrl": "urn:uuid:87ced2bd-028c-4dce-aee1-eea2cee2828e",
      "resource": {
        "resourceType": "Observation",
        "id": "87ced2bd-028c-4dce-aee1-eea2cee2828e",
        "meta": {
          "profile": [
            "http://hl7.eu/fhir/laboratory/StructureDefinition/Observation-resultslab-eu-lab"
          ]
        },
        "performer": [
          {
            "display": "The Central European Lab"
          }
        ],
        "category": [
          {
            "coding": [
              {
                "system": "http://terminology.hl7.org/CodeSystem/observation-category",
                "code": "laboratory"
              }
            ]
          }
        ],
        "code": {
          "coding": [
            {
              "code": "2339-0",
              "system": "http://loinc.org",
              "display": "Glucose [Mass/volume] in Blood"
            }
          ],
          "text": "Glucose [Mass/volume] in Blood"
        },
        "valueQuantity": {
          "system": "http://unitsofmeasure.org",
          "value": 83.5,
          "unit": "mg/dL",
          "code": "mg/dL"
        },
        "referenceRange": [
          {
            "low": {
              "value": 70,
              "code": "mg/dL",
              "system": "http://unitsofmeasure.org"
            }
          },
          {
            "high": {
              "value": 140,
              "code": "mg/dL",
              "system": "http://unitsofmeasure.org"
            }
          }
        ],
        "text": {
          "status": "generated",
          "div": "<div xmlns=\"http://www.w3.org/1999/xhtml\"><table class=\"hl7__eu__lab__report\"><tr><th>Test</th><th>11-Oct-2015</th><th>Reference&#xA0;Range</th><th>Unit</th></tr><tr><td>Glucose [Mass/volume] in Blood</td><td>83.5</td><td>70 - 140</td><td></td><td>mg/dL</td></tr></table></div>"
        },
        "status": "final",
        "subject": {
          "reference": "urn:uuid:2779b674-e6ca-4e1c-a7d5-ee13103d6f06",
          "display": "Maria Nohlmans"
        },
        "effectiveDateTime": "2015-10-11T04:55:39Z",
        "specimen": {
          "reference": "urn:uuid:fceeeaa0-6e44-4527-8def-bdc8c622ba5d"
        }
      }
    },
    {
      "fullUrl": "urn:uuid:e2f2aa30-e5f1-4432-8355-3f6bbea80671",
      "resource": {
        "resourceType": "Observation",
        "id": "e2f2aa30-e5f1-4432-8355-3f6bbea80671",
        "meta": {
          "profile": [
            "http://hl7.eu/fhir/laboratory/StructureDefinition/Observation-resultslab-eu-lab"
          ]
        },
        "performer": [
          {
            "display": "The Central European Lab"
          }
        ],
        "category": [
          {
            "coding": [
              {
                "system": "http://terminology.hl7.org/CodeSystem/observation-category",
                "code": "laboratory"
              }
            ]
          }
        ],
        "code": {
          "coding": [
            {
              "code": "6299-2",
              "system": "http://loinc.org",
              "display": "Urea nitrogen [Mass/volume] in Blood"
            }
          ],
          "text": "Urea nitrogen [Mass/volume] in Blood"
        },
        "valueQuantity": {
          "system": "http://unitsofmeasure.org",
          "value": 18.9,
          "unit": "mg/dL",
          "code": "mg/dL"
        },
        "referenceRange": [
          {
            "low": {
              "value": 7,
              "code": "mg/dL",
              "system": "http://unitsofmeasure.org"
            }
          },
          {
            "high": {
              "value": 30,
              "code": "mg/dL",
              "system": "http://unitsofmeasure.org"
            }
          }
        ],
        "text": {
          "status": "generated",
          "div": "<div xmlns=\"http://www.w3.org/1999/xhtml\"><table class=\"hl7__eu__lab__report\"><tr><th>Test</th><th>11-Oct-2015</th><th>Reference&#xA0;Range</th><th>Unit</th></tr><tr><td>Urea nitrogen [Mass/volume] in Blood</td><td>18.9</td><td>7 - 30</td><td></td><td>mg/dL</td></tr></table></div>"
        },
        "status": "final",
        "subject": {
          "reference": "urn:uuid:2779b674-e6ca-4e1c-a7d5-ee13103d6f06",
          "display": "Maria Nohlmans"
        },
        "effectiveDateTime": "2015-10-11T04:55:39Z",
        "specimen": {
          "reference": "urn:uuid:fceeeaa0-6e44-4527-8def-bdc8c622ba5d"
        }
      }
    },
    {
      "fullUrl": "urn:uuid:f1ea1934-bb51-4cfe-a75c-8416a7700051",
      "resource": {
        "resourceType": "Observation",
        "id": "f1ea1934-bb51-4cfe-a75c-8416a7700051",
        "meta": {
          "profile": [
            "http://hl7.eu/fhir/laboratory/StructureDefinition/Observation-resultslab-eu-lab"
          ]
        },
        "performer": [
          {
            "display": "The Central European Lab"
          }
        ],
        "category": [
          {
            "coding": [
              {
                "system": "http://terminology.hl7.org/CodeSystem/observation-category",
                "code": "laboratory"
              }
            ]
          }
        ],
        "code": {
          "coding": [
            {
              "code": "38483-4",
              "system": "http://loinc.org",
              "display": "Creatinine [Mass/volume] in Blood"
            }
          ],
          "text": "Creatinine [Mass/volume] in Blood"
        },
        "valueQuantity": {
          "system": "http://unitsofmeasure.org",
          "value": 3,
          "unit": "mg/dL",
          "code": "mg/dL"
        },
        "referenceRange": [
          {
            "low": {
              "value": 0.5,
              "code": "mg/dL",
              "system": "http://unitsofmeasure.org"
            }
          },
          {
            "high": {
              "value": 1.3,
              "code": "mg/dL",
              "system": "http://unitsofmeasure.org"
            }
          }
        ],
        "interpretation": [
          {
            "coding": [
              {
                "code": "H",
                "system": "http://terminology.hl7.org/CodeSystem/v3-ObservationInterpretation",
                "display": "High"
              }
            ]
          }
        ],
        "text": {
          "status": "generated",
          "div": "<div xmlns=\"http://www.w3.org/1999/xhtml\"><table class=\"hl7__eu__lab__report\"><tr><th>Test</th><th>11-Oct-2015</th><th>Reference&#xA0;Range</th><th>Unit</th></tr><tr><td>Creatinine [Mass/volume] in Blood</td><td>3.0</td><td>0.5 - 1.3</td><td>H</td><td>mg/dL</td></tr></table></div>"
        },
        "status": "final",
        "subject": {
          "reference": "urn:uuid:2779b674-e6ca-4e1c-a7d5-ee13103d6f06",
          "display": "Maria Nohlmans"
        },
        "effectiveDateTime": "2015-10-11T04:55:39Z",
        "specimen": {
          "reference": "urn:uuid:fceeeaa0-6e44-4527-8def-bdc8c622ba5d"
        }
      }
    },
    {
      "fullUrl": "urn:uuid:c38f0186-3500-4bca-ba5d-d9c19080bb8c",
      "resource": {
        "resourceType": "Observation",
        "id": "c38f0186-3500-4bca-ba5d-d9c19080bb8c",
        "meta": {
          "profile": [
            "http://hl7.eu/fhir/laboratory/StructureDefinition/Observation-resultslab-eu-lab"
          ]
        },
        "performer": [
          {
            "display": "The Central European Lab"
          }
        ],
        "category": [
          {
            "coding": [
              {
                "system": "http://terminology.hl7.org/CodeSystem/observation-category",
                "code": "laboratory"
              }
            ]
          }
        ],
        "code": {
          "coding": [
            {
              "code": "49765-1",
              "system": "http://loinc.org",
              "display": "Calcium [Mass/volume] in Blood"
            }
          ],
          "text": "Calcium [Mass/volume] in Blood"
        },
        "valueQuantity": {
          "system": "http://unitsofmeasure.org",
          "value": 9.5,
          "unit": "mg/dL",
          "code": "mg/dL"
        },
        "referenceRange": [
          {
            "low": {
              "value": 8.6,
              "code": "mg/dL",
              "system": "http://unitsofmeasure.org"
            }
          },
          {
            "high": {
              "value": 10.2,
              "code": "mg/dL",
              "system": "http://unitsofmeasure.org"
            }
          }
        ],
        "text": {
          "status": "generated",
          "div": "<div xmlns=\"http://www.w3.org/1999/xhtml\"><table class=\"hl7__eu__lab__report\"><tr><th>Test</th><th>11-Oct-2015</th><th>Reference&#xA0;Range</th><th>Unit</th></tr><tr><td>Calcium [Mass/volume] in Blood</td><td>9.5</td><td>8.6 - 10.2</td><td></td><td>mg/dL</td></tr></table></div>"
        },
        "status": "final",
        "subject": {
          "reference": "urn:uuid:2779b674-e6ca-4e1c-a7d5-ee13103d6f06",
          "display": "Maria Nohlmans"
        },
        "effectiveDateTime": "2015-10-11T04:55:39Z",
        "specimen": {
          "reference": "urn:uuid:fceeeaa0-6e44-4527-8def-bdc8c622ba5d"
        }
      }
    },
    {
      "fullUrl": "urn:uuid:4784eee7-23b8-4acf-b435-63e4f3107ad1",
      "resource": {
        "resourceType": "Observation",
        "id": "4784eee7-23b8-4acf-b435-63e4f3107ad1",
        "meta": {
          "profile": [
            "http://hl7.eu/fhir/laboratory/StructureDefinition/Observation-resultslab-eu-lab"
          ]
        },
        "performer": [
          {
            "display": "The Central European Lab"
          }
        ],
        "category": [
          {
            "coding": [
              {
                "system": "http://terminology.hl7.org/CodeSystem/observation-category",
                "code": "laboratory"
              }
            ]
          }
        ],
        "code": {
          "coding": [
            {
              "code": "2947-0",
              "system": "http://loinc.org",
              "display": "Sodium [Moles/volume] in Blood"
            }
          ],
          "text": "Sodium [Moles/volume] in Blood"
        },
        "valueQuantity": {
          "system": "http://unitsofmeasure.org",
          "value": 138.8,
          "unit": "mmol/L",
          "code": "mmol/L"
        },
        "referenceRange": [
          {
            "low": {
              "value": 135,
              "code": "mmol/L",
              "system": "http://unitsofmeasure.org"
            }
          },
          {
            "high": {
              "value": 145,
              "code": "mmol/L",
              "system": "http://unitsofmeasure.org"
            }
          }
        ],
        "text": {
          "status": "generated",
          "div": "<div xmlns=\"http://www.w3.org/1999/xhtml\"><table class=\"hl7__eu__lab__report\"><tr><th>Test</th><th>11-Oct-2015</th><th>Reference&#xA0;Range</th><th>Unit</th></tr><tr><td>Sodium [Moles/volume] in Blood</td><td>138.8</td><td>135 - 145</td><td></td><td>mmol/L</td></tr></table></div>"
        },
        "status": "final",
        "subject": {
          "reference": "urn:uuid:2779b674-e6ca-4e1c-a7d5-ee13103d6f06",
          "display": "Maria Nohlmans"
        },
        "effectiveDateTime": "2015-10-11T04:55:39Z",
        "specimen": {
          "reference": "urn:uuid:fceeeaa0-6e44-4527-8def-bdc8c622ba5d"
        }
      }
    },
    {
      "fullUrl": "urn:uuid:fb537e12-1326-4ccc-9e45-29fe63e3f902",
      "resource": {
        "resourceType": "Observation",
        "id": "fb537e12-1326-4ccc-9e45-29fe63e3f902",
        "meta": {
          "profile": [
            "http://hl7.eu/fhir/laboratory/StructureDefinition/Observation-resultslab-eu-lab"
          ]
        },
        "performer": [
          {
            "display": "The Central European Lab"
          }
        ],
        "category": [
          {
            "coding": [
              {
                "system": "http://terminology.hl7.org/CodeSystem/observation-category",
                "code": "laboratory"
              }
            ]
          }
        ],
        "code": {
          "coding": [
            {
              "code": "6298-4",
              "system": "http://loinc.org",
              "display": "Potassium [Moles/volume] in Blood"
            }
          ],
          "text": "Potassium [Moles/volume] in Blood"
        },
        "valueQuantity": {
          "system": "http://unitsofmeasure.org",
          "value": 4.2,
          "unit": "mmol/L",
          "code": "mmol/L"
        },
        "referenceRange": [
          {
            "low": {
              "value": 3.5,
              "code": "mmol/L",
              "system": "http://unitsofmeasure.org"
            }
          },
          {
            "high": {
              "value": 5.1,
              "code": "mmol/L",
              "system": "http://unitsofmeasure.org"
            }
          }
        ],
        "text": {
          "status": "generated",
          "div": "<div xmlns=\"http://www.w3.org/1999/xhtml\"><table class=\"hl7__eu__lab__report\"><tr><th>Test</th><th>11-Oct-2015</th><th>Reference&#xA0;Range</th><th>Unit</th></tr><tr><td>Potassium [Moles/volume] in Blood</td><td>4.2</td><td>3.5 - 5.1</td><td></td><td>mmol/L</td></tr></table></div>"
        },
        "status": "final",
        "subject": {
          "reference": "urn:uuid:2779b674-e6ca-4e1c-a7d5-ee13103d6f06",
          "display": "Maria Nohlmans"
        },
        "effectiveDateTime": "2015-10-11T04:55:39Z",
        "specimen": {
          "reference": "urn:uuid:fceeeaa0-6e44-4527-8def-bdc8c622ba5d"
        }
      }
    },
    {
      "fullUrl": "urn:uuid:557d43d7-0eb4-4a0d-a794-d62a58038aa4",
      "resource": {
        "resourceType": "Observation",
        "id": "557d43d7-0eb4-4a0d-a794-d62a58038aa4",
        "meta": {
          "profile": [
            "http://hl7.eu/fhir/laboratory/StructureDefinition/Observation-resultslab-eu-lab"
          ]
        },
        "performer": [
          {
            "display": "The Central European Lab"
          }
        ],
        "category": [
          {
            "coding": [
              {
                "system": "http://terminology.hl7.org/CodeSystem/observation-category",
                "code": "laboratory"
              }
            ]
          }
        ],
        "code": {
          "coding": [
            {
              "code": "2069-3",
              "system": "http://loinc.org",
              "display": "Chloride [Moles/volume] in Blood"
            }
          ],
          "text": "Chloride [Moles/volume] in Blood"
        },
        "valueQuantity": {
          "system": "http://unitsofmeasure.org",
          "value": 101.1,
          "unit": "mmol/L",
          "code": "mmol/L"
        },
        "referenceRange": [
          {
            "low": {
              "value": 98,
              "code": "mmol/L",
              "system": "http://unitsofmeasure.org"
            }
          },
          {
            "high": {
              "value": 114,
              "code": "mmol/L",
              "system": "http://unitsofmeasure.org"
            }
          }
        ],
        "text": {
          "status": "generated",
          "div": "<div xmlns=\"http://www.w3.org/1999/xhtml\"><table class=\"hl7__eu__lab__report\"><tr><th>Test</th><th>11-Oct-2015</th><th>Reference&#xA0;Range</th><th>Unit</th></tr><tr><td>Chloride [Moles/volume] in Blood</td><td>101.1</td><td>98 - 114</td><td></td><td>mmol/L</td></tr></table></div>"
        },
        "status": "final",
        "subject": {
          "reference": "urn:uuid:2779b674-e6ca-4e1c-a7d5-ee13103d6f06",
          "display": "Maria Nohlmans"
        },
        "effectiveDateTime": "2015-10-11T04:55:39Z",
        "specimen": {
          "reference": "urn:uuid:fceeeaa0-6e44-4527-8def-bdc8c622ba5d"
        }
      }
    },
    {
      "fullUrl": "urn:uuid:0c7bba6c-b9bc-4f9f-b864-af57b453c509",
      "resource": {
        "resourceType": "Observation",
        "id": "0c7bba6c-b9bc-4f9f-b864-af57b453c509",
        "meta": {
          "profile": [
            "http://hl7.eu/fhir/laboratory/StructureDefinition/Observation-resultslab-eu-lab"
          ]
        },
        "performer": [
          {
            "display": "The Central European Lab"
          }
        ],
        "category": [
          {
            "coding": [
              {
                "system": "http://terminology.hl7.org/CodeSystem/observation-category",
                "code": "laboratory"
              }
            ]
          }
        ],
        "code": {
          "coding": [
            {
              "code": "20565-8",
              "system": "http://loinc.org",
              "display": "Carbon dioxide, total [Moles/volume] in Blood"
            }
          ],
          "text": "Carbon dioxide, total [Moles/volume] in Blood"
        },
        "valueQuantity": {
          "system": "http://unitsofmeasure.org",
          "value": 23.5,
          "unit": "mmol/L",
          "code": "mmol/L"
        },
        "referenceRange": [
          {
            "low": {
              "value": 22,
              "code": "mmol/L",
              "system": "http://unitsofmeasure.org"
            }
          },
          {
            "high": {
              "value": 32,
              "code": "mmol/L",
              "system": "http://unitsofmeasure.org"
            }
          }
        ],
        "text": {
          "status": "generated",
          "div": "<div xmlns=\"http://www.w3.org/1999/xhtml\"><table class=\"hl7__eu__lab__report\"><tr><th>Test</th><th>11-Oct-2015</th><th>Reference&#xA0;Range</th><th>Unit</th></tr><tr><td>Carbon dioxide, total [Moles/volume] in Blood</td><td>23.5</td><td>22 - 32</td><td></td><td>mmol/L</td></tr></table></div>"
        },
        "status": "final",
        "subject": {
          "reference": "urn:uuid:2779b674-e6ca-4e1c-a7d5-ee13103d6f06",
          "display": "Maria Nohlmans"
        },
        "effectiveDateTime": "2015-10-11T04:55:39Z",
        "specimen": {
          "reference": "urn:uuid:fceeeaa0-6e44-4527-8def-bdc8c622ba5d"
        }
      }
    },
    {
      "fullUrl": "urn:uuid:bb1f3c34-8ce9-4014-adb3-15ca144ccad0",
      "resource": {
        "resourceType": "Observation",
        "id": "bb1f3c34-8ce9-4014-adb3-15ca144ccad0",
        "meta": {
          "profile": [
            "http://hl7.eu/fhir/laboratory/StructureDefinition/Observation-resultslab-eu-lab"
          ]
        },
        "performer": [
          {
            "display": "The Central European Lab"
          }
        ],
        "category": [
          {
            "coding": [
              {
                "system": "http://terminology.hl7.org/CodeSystem/observation-category",
                "code": "laboratory"
              }
            ]
          }
        ],
        "code": {
          "coding": [
            {
              "code": "2885-2",
              "system": "http://loinc.org",
              "display": "Protein [Mass/volume] in Serum or Plasma"
            }
          ],
          "text": "Protein [Mass/volume] in Serum or Plasma"
        },
        "valueQuantity": {
          "system": "http://unitsofmeasure.org",
          "value": 7.5,
          "unit": "g/dL",
          "code": "g/dL"
        },
        "referenceRange": [
          {
            "low": {
              "value": 6,
              "code": "g/dL",
              "system": "http://unitsofmeasure.org"
            }
          },
          {
            "high": {
              "value": 8.3,
              "code": "g/dL",
              "system": "http://unitsofmeasure.org"
            }
          }
        ],
        "text": {
          "status": "generated",
          "div": "<div xmlns=\"http://www.w3.org/1999/xhtml\"><table class=\"hl7__eu__lab__report\"><tr><th>Test</th><th>11-Oct-2015</th><th>Reference&#xA0;Range</th><th>Unit</th></tr><tr><td>Protein [Mass/volume] in Serum or Plasma</td><td>7.5</td><td>6 - 8.3</td><td></td><td>g/dL</td></tr></table></div>"
        },
        "status": "final",
        "subject": {
          "reference": "urn:uuid:2779b674-e6ca-4e1c-a7d5-ee13103d6f06",
          "display": "Maria Nohlmans"
        },
        "effectiveDateTime": "2015-10-11T04:55:39Z",
        "specimen": {
          "reference": "urn:uuid:8e360708-f655-43f1-b093-a1039dd02867"
        }
      }
    },
    {
      "fullUrl": "urn:uuid:514a2c91-ca9a-4e50-9341-4925bd9f9a99",
      "resource": {
        "resourceType": "Observation",
        "id": "514a2c91-ca9a-4e50-9341-4925bd9f9a99",
        "meta": {
          "profile": [
            "http://hl7.eu/fhir/laboratory/StructureDefinition/Observation-resultslab-eu-lab"
          ]
        },
        "performer": [
          {
            "display": "The Central European Lab"
          }
        ],
        "category": [
          {
            "coding": [
              {
                "system": "http://terminology.hl7.org/CodeSystem/observation-category",
                "code": "laboratory"
              }
            ]
          }
        ],
        "code": {
          "coding": [
            {
              "code": "1751-7",
              "system": "http://loinc.org",
              "display": "Albumin [Mass/volume] in Serum or Plasma"
            }
          ],
          "text": "Albumin [Mass/volume] in Serum or Plasma"
        },
        "valueQuantity": {
          "system": "http://unitsofmeasure.org",
          "value": 3.9,
          "unit": "g/dL",
          "code": "g/dL"
        },
        "referenceRange": [
          {
            "low": {
              "value": 3.5,
              "code": "g/dL",
              "system": "http://unitsofmeasure.org"
            }
          },
          {
            "high": {
              "value": 5.5,
              "code": "g/dL",
              "system": "http://unitsofmeasure.org"
            }
          }
        ],
        "text": {
          "status": "generated",
          "div": "<div xmlns=\"http://www.w3.org/1999/xhtml\"><table class=\"hl7__eu__lab__report\"><tr><th>Test</th><th>11-Oct-2015</th><th>Reference&#xA0;Range</th><th>Unit</th></tr><tr><td>Albumin [Mass/volume] in Serum or Plasma</td><td>3.9</td><td>3.5 - 5.5</td><td></td><td>g/dL</td></tr></table></div>"
        },
        "status": "final",
        "subject": {
          "reference": "urn:uuid:2779b674-e6ca-4e1c-a7d5-ee13103d6f06",
          "display": "Maria Nohlmans"
        },
        "effectiveDateTime": "2015-10-11T04:55:39Z",
        "specimen": {
          "reference": "urn:uuid:8e360708-f655-43f1-b093-a1039dd02867"
        }
      }
    },
    {
      "fullUrl": "urn:uuid:feeb872d-6709-4413-b20f-54571c5678e8",
      "resource": {
        "resourceType": "Observation",
        "id": "feeb872d-6709-4413-b20f-54571c5678e8",
        "meta": {
          "profile": [
            "http://hl7.eu/fhir/laboratory/StructureDefinition/Observation-resultslab-eu-lab"
          ]
        },
        "performer": [
          {
            "display": "The Central European Lab"
          }
        ],
        "category": [
          {
            "coding": [
              {
                "system": "http://terminology.hl7.org/CodeSystem/observation-category",
                "code": "laboratory"
              }
            ]
          }
        ],
        "code": {
          "coding": [
            {
              "code": "10834-0",
              "system": "http://loinc.org",
              "display": "Globulin [Mass/volume] in Serum by calculation"
            }
          ],
          "text": "Globulin [Mass/volume] in Serum by calculation"
        },
        "valueQuantity": {
          "system": "http://unitsofmeasure.org",
          "value": 3,
          "unit": "g/L",
          "code": "g/L"
        },
        "referenceRange": [
          {
            "low": {
              "value": 2,
              "code": "g/L",
              "system": "http://unitsofmeasure.org"
            }
          },
          {
            "high": {
              "value": 3.5,
              "code": "g/L",
              "system": "http://unitsofmeasure.org"
            }
          }
        ],
        "text": {
          "status": "generated",
          "div": "<div xmlns=\"http://www.w3.org/1999/xhtml\"><table class=\"hl7__eu__lab__report\"><tr><th>Test</th><th>11-Oct-2015</th><th>Reference&#xA0;Range</th><th>Unit</th></tr><tr><td>Globulin [Mass/volume] in Serum by calculation</td><td>3.0</td><td>2 - 3.5</td><td></td><td>g/L</td></tr></table></div>"
        },
        "status": "final",
        "subject": {
          "reference": "urn:uuid:2779b674-e6ca-4e1c-a7d5-ee13103d6f06",
          "display": "Maria Nohlmans"
        },
        "effectiveDateTime": "2015-10-11T04:55:39Z",
        "specimen": {
          "reference": "urn:uuid:0fb418bc-ec09-41cf-935e-327e3a4f5fd0"
        }
      }
    },
    {
      "fullUrl": "urn:uuid:815fbdc8-d720-435f-8507-3af74747e895",
      "resource": {
        "resourceType": "Observation",
        "id": "815fbdc8-d720-435f-8507-3af74747e895",
        "meta": {
          "profile": [
            "http://hl7.eu/fhir/laboratory/StructureDefinition/Observation-resultslab-eu-lab"
          ]
        },
        "performer": [
          {
            "display": "The Central European Lab"
          }
        ],
        "category": [
          {
            "coding": [
              {
                "system": "http://terminology.hl7.org/CodeSystem/observation-category",
                "code": "laboratory"
              }
            ]
          }
        ],
        "code": {
          "coding": [
            {
              "code": "1975-2",
              "system": "http://loinc.org",
              "display": "Bilirubin.total [Mass/volume] in Serum or Plasma"
            }
          ],
          "text": "Bilirubin.total [Mass/volume] in Serum or Plasma"
        },
        "valueQuantity": {
          "system": "http://unitsofmeasure.org",
          "value": 0.5,
          "unit": "mg/dL",
          "code": "mg/dL"
        },
        "referenceRange": [
          {
            "low": {
              "value": 0.3,
              "code": "mg/dL",
              "system": "http://unitsofmeasure.org"
            }
          },
          {
            "high": {
              "value": 1.2,
              "code": "mg/dL",
              "system": "http://unitsofmeasure.org"
            }
          }
        ],
        "text": {
          "status": "generated",
          "div": "<div xmlns=\"http://www.w3.org/1999/xhtml\"><table class=\"hl7__eu__lab__report\"><tr><th>Test</th><th>11-Oct-2015</th><th>Reference&#xA0;Range</th><th>Unit</th></tr><tr><td>Bilirubin.total [Mass/volume] in Serum or Plasma</td><td>0.5</td><td>0.3 - 1.2</td><td></td><td>mg/dL</td></tr></table></div>"
        },
        "status": "final",
        "subject": {
          "reference": "urn:uuid:2779b674-e6ca-4e1c-a7d5-ee13103d6f06",
          "display": "Maria Nohlmans"
        },
        "effectiveDateTime": "2015-10-11T04:55:39Z",
        "specimen": {
          "reference": "urn:uuid:8e360708-f655-43f1-b093-a1039dd02867"
        }
      }
    },
    {
      "fullUrl": "urn:uuid:06face8e-cf43-4018-8dc1-e268708f3bf1",
      "resource": {
        "resourceType": "Observation",
        "id": "06face8e-cf43-4018-8dc1-e268708f3bf1",
        "meta": {
          "profile": [
            "http://hl7.eu/fhir/laboratory/StructureDefinition/Observation-resultslab-eu-lab"
          ]
        },
        "performer": [
          {
            "display": "The Central European Lab"
          }
        ],
        "category": [
          {
            "coding": [
              {
                "system": "http://terminology.hl7.org/CodeSystem/observation-category",
                "code": "laboratory"
              }
            ]
          }
        ],
        "code": {
          "coding": [
            {
              "code": "6768-6",
              "system": "http://loinc.org",
              "display": "Alkaline phosphatase [Enzymatic activity/volume] in Serum or Plasma"
            }
          ],
          "text": "Alkaline phosphatase [Enzymatic activity/volume] in Serum or Plasma"
        },
        "valueQuantity": {
          "system": "http://unitsofmeasure.org",
          "value": 62.4,
          "unit": "U/L",
          "code": "U/L"
        },
        "referenceRange": [
          {
            "low": {
              "value": 44,
              "code": "U/L",
              "system": "http://unitsofmeasure.org"
            }
          },
          {
            "high": {
              "value": 142,
              "code": "U/L",
              "system": "http://unitsofmeasure.org"
            }
          }
        ],
        "text": {
          "status": "generated",
          "div": "<div xmlns=\"http://www.w3.org/1999/xhtml\"><table class=\"hl7__eu__lab__report\"><tr><th>Test</th><th>11-Oct-2015</th><th>Reference&#xA0;Range</th><th>Unit</th></tr><tr><td>Alkaline phosphatase [Enzymatic activity/volume] in Serum or Plasma</td><td>62.4</td><td>44 - 142</td><td></td><td>U/L</td></tr></table></div>"
        },
        "status": "final",
        "subject": {
          "reference": "urn:uuid:2779b674-e6ca-4e1c-a7d5-ee13103d6f06",
          "display": "Maria Nohlmans"
        },
        "effectiveDateTime": "2015-10-11T04:55:39Z",
        "specimen": {
          "reference": "urn:uuid:8e360708-f655-43f1-b093-a1039dd02867"
        }
      }
    },
    {
      "fullUrl": "urn:uuid:31c404af-235e-47b9-8a36-5b16b508cbdc",
      "resource": {
        "resourceType": "Observation",
        "id": "31c404af-235e-47b9-8a36-5b16b508cbdc",
        "meta": {
          "profile": [
            "http://hl7.eu/fhir/laboratory/StructureDefinition/Observation-resultslab-eu-lab"
          ]
        },
        "performer": [
          {
            "display": "The Central European Lab"
          }
        ],
        "category": [
          {
            "coding": [
              {
                "system": "http://terminology.hl7.org/CodeSystem/observation-category",
                "code": "laboratory"
              }
            ]
          }
        ],
        "code": {
          "coding": [
            {
              "code": "1742-6",
              "system": "http://loinc.org",
              "display": "Alanine aminotransferase [Enzymatic activity/volume] in Serum or Plasma"
            }
          ],
          "text": "Alanine aminotransferase [Enzymatic activity/volume] in Serum or Plasma"
        },
        "valueQuantity": {
          "system": "http://unitsofmeasure.org",
          "value": 21.3,
          "unit": "U/L",
          "code": "U/L"
        },
        "referenceRange": [
          {
            "low": {
              "value": 7,
              "code": "U/L",
              "system": "http://unitsofmeasure.org"
            }
          },
          {
            "high": {
              "value": 40,
              "code": "U/L",
              "system": "http://unitsofmeasure.org"
            }
          }
        ],
        "text": {
          "status": "generated",
          "div": "<div xmlns=\"http://www.w3.org/1999/xhtml\"><table class=\"hl7__eu__lab__report\"><tr><th>Test</th><th>11-Oct-2015</th><th>Reference&#xA0;Range</th><th>Unit</th></tr><tr><td>Alanine aminotransferase [Enzymatic activity/volume] in Serum or Plasma</td><td>21.3</td><td>7 - 40</td><td></td><td>U/L</td></tr></table></div>"
        },
        "status": "final",
        "subject": {
          "reference": "urn:uuid:2779b674-e6ca-4e1c-a7d5-ee13103d6f06",
          "display": "Maria Nohlmans"
        },
        "effectiveDateTime": "2015-10-11T04:55:39Z",
        "specimen": {
          "reference": "urn:uuid:8e360708-f655-43f1-b093-a1039dd02867"
        }
      }
    },
    {
      "fullUrl": "urn:uuid:a647fbe1-249f-4a3e-95d5-432682bbabf1",
      "resource": {
        "resourceType": "Observation",
        "id": "a647fbe1-249f-4a3e-95d5-432682bbabf1",
        "meta": {
          "profile": [
            "http://hl7.eu/fhir/laboratory/StructureDefinition/Observation-resultslab-eu-lab"
          ]
        },
        "performer": [
          {
            "display": "The Central European Lab"
          }
        ],
        "category": [
          {
            "coding": [
              {
                "system": "http://terminology.hl7.org/CodeSystem/observation-category",
                "code": "laboratory"
              }
            ]
          }
        ],
        "code": {
          "coding": [
            {
              "code": "1920-8",
              "system": "http://loinc.org",
              "display": "Aspartate aminotransferase [Enzymatic activity/volume] in Serum or Plasma"
            }
          ],
          "text": "Aspartate aminotransferase [Enzymatic activity/volume] in Serum or Plasma"
        },
        "valueQuantity": {
          "system": "http://unitsofmeasure.org",
          "value": 6.3,
          "unit": "U/L",
          "code": "U/L"
        },
        "referenceRange": [
          {
            "low": {
              "value": 10,
              "code": "U/L",
              "system": "http://unitsofmeasure.org"
            }
          },
          {
            "high": {
              "value": 40,
              "code": "U/L",
              "system": "http://unitsofmeasure.org"
            }
          }
        ],
        "interpretation": [
          {
            "coding": [
              {
                "code": "L",
                "system": "http://terminology.hl7.org/CodeSystem/v3-ObservationInterpretation",
                "display": "Low"
              }
            ]
          }
        ],
        "text": {
          "status": "generated",
          "div": "<div xmlns=\"http://www.w3.org/1999/xhtml\"><table class=\"hl7__eu__lab__report\"><tr><th>Test</th><th>11-Oct-2015</th><th>Reference&#xA0;Range</th><th>Unit</th></tr><tr><td>Aspartate aminotransferase [Enzymatic activity/volume] in Serum or Plasma</td><td>6.3</td><td>10 - 40</td><td>L</td><td>U/L</td></tr></table></div>"
        },
        "status": "final",
        "subject": {
          "reference": "urn:uuid:2779b674-e6ca-4e1c-a7d5-ee13103d6f06",
          "display": "Maria Nohlmans"
        },
        "effectiveDateTime": "2015-10-11T04:55:39Z",
        "specimen": {
          "reference": "urn:uuid:8e360708-f655-43f1-b093-a1039dd02867"
        }
      }
    },
    {
      "fullUrl": "urn:uuid:c638aa03-f514-403c-a9ae-9e83c7977ff5",
      "resource": {
        "resourceType": "Observation",
        "id": "c638aa03-f514-403c-a9ae-9e83c7977ff5",
        "meta": {
          "profile": [
            "http://hl7.eu/fhir/laboratory/StructureDefinition/Observation-resultslab-eu-lab"
          ]
        },
        "performer": [
          {
            "display": "The Central European Lab"
          }
        ],
        "category": [
          {
            "coding": [
              {
                "system": "http://terminology.hl7.org/CodeSystem/observation-category",
                "code": "laboratory"
              }
            ]
          }
        ],
        "code": {
          "coding": [
            {
              "code": "5767-9",
              "system": "http://loinc.org",
              "display": "Appearance of Urine"
            }
          ],
          "text": "Appearance of Urine"
        },
        "text": {
          "status": "generated",
          "div": "<div xmlns=\"http://www.w3.org/1999/xhtml\"><table class=\"hl7__eu__lab__report\"><tr><th>Test</th><th>11-Oct-2015</th><th>Reference&#xA0;Range</th><th>Unit</th></tr><tr><td>Appearance of Urine</td></tr></table></div>"
        },
        "status": "final",
        "subject": {
          "reference": "urn:uuid:2779b674-e6ca-4e1c-a7d5-ee13103d6f06",
          "display": "Maria Nohlmans"
        },
        "effectiveDateTime": "2015-10-11T04:55:39Z",
        "specimen": {
          "reference": "urn:uuid:fe0aec12-6e40-4924-a1d0-1fe0efd12867"
        }
      }
    },
    {
      "fullUrl": "urn:uuid:77c3c1f7-2301-4beb-bcd7-1be4c65cfd51",
      "resource": {
        "resourceType": "Observation",
        "id": "77c3c1f7-2301-4beb-bcd7-1be4c65cfd51",
        "meta": {
          "profile": [
            "http://hl7.eu/fhir/laboratory/StructureDefinition/Observation-resultslab-eu-lab"
          ]
        },
        "performer": [
          {
            "display": "The Central European Lab"
          }
        ],
        "category": [
          {
            "coding": [
              {
                "system": "http://terminology.hl7.org/CodeSystem/observation-category",
                "code": "laboratory"
              }
            ]
          }
        ],
        "code": {
          "coding": [
            {
              "code": "34533-0",
              "system": "http://loinc.org",
              "display": "Odor of Urine"
            }
          ],
          "text": "Odor of Urine"
        },
        "text": {
          "status": "generated",
          "div": "<div xmlns=\"http://www.w3.org/1999/xhtml\"><table class=\"hl7__eu__lab__report\"><tr><th>Test</th><th>11-Oct-2015</th><th>Reference&#xA0;Range</th><th>Unit</th></tr><tr><td>Odor of Urine</td></tr></table></div>"
        },
        "status": "final",
        "subject": {
          "reference": "urn:uuid:2779b674-e6ca-4e1c-a7d5-ee13103d6f06",
          "display": "Maria Nohlmans"
        },
        "effectiveDateTime": "2015-10-11T04:55:39Z",
        "specimen": {
          "reference": "urn:uuid:fe0aec12-6e40-4924-a1d0-1fe0efd12867"
        }
      }
    },
    {
      "fullUrl": "urn:uuid:47e8dcce-fc0b-4fe7-8014-25054bb75108",
      "resource": {
        "resourceType": "Observation",
        "id": "47e8dcce-fc0b-4fe7-8014-25054bb75108",
        "meta": {
          "profile": [
            "http://hl7.eu/fhir/laboratory/StructureDefinition/Observation-resultslab-eu-lab"
          ]
        },
        "performer": [
          {
            "display": "The Central European Lab"
          }
        ],
        "category": [
          {
            "coding": [
              {
                "system": "http://terminology.hl7.org/CodeSystem/observation-category",
                "code": "laboratory"
              }
            ]
          }
        ],
        "code": {
          "coding": [
            {
              "code": "32167-9",
              "system": "http://loinc.org",
              "display": "Clarity of Urine"
            }
          ],
          "text": "Clarity of Urine"
        },
        "text": {
          "status": "generated",
          "div": "<div xmlns=\"http://www.w3.org/1999/xhtml\"><table class=\"hl7__eu__lab__report\"><tr><th>Test</th><th>11-Oct-2015</th><th>Reference&#xA0;Range</th><th>Unit</th></tr><tr><td>Clarity of Urine</td></tr></table></div>"
        },
        "status": "final",
        "subject": {
          "reference": "urn:uuid:2779b674-e6ca-4e1c-a7d5-ee13103d6f06",
          "display": "Maria Nohlmans"
        },
        "effectiveDateTime": "2015-10-11T04:55:39Z",
        "specimen": {
          "reference": "urn:uuid:fe0aec12-6e40-4924-a1d0-1fe0efd12867"
        }
      }
    },
    {
      "fullUrl": "urn:uuid:ecdd033f-8ad6-4009-96ef-f830f8a91614",
      "resource": {
        "resourceType": "Observation",
        "id": "ecdd033f-8ad6-4009-96ef-f830f8a91614",
        "meta": {
          "profile": [
            "http://hl7.eu/fhir/laboratory/StructureDefinition/Observation-resultslab-eu-lab"
          ]
        },
        "performer": [
          {
            "display": "The Central European Lab"
          }
        ],
        "category": [
          {
            "coding": [
              {
                "system": "http://terminology.hl7.org/CodeSystem/observation-category",
                "code": "laboratory"
              }
            ]
          }
        ],
        "code": {
          "coding": [
            {
              "code": "5778-6",
              "system": "http://loinc.org",
              "display": "Color of Urine"
            }
          ],
          "text": "Color of Urine"
        },
        "text": {
          "status": "generated",
          "div": "<div xmlns=\"http://www.w3.org/1999/xhtml\"><table class=\"hl7__eu__lab__report\"><tr><th>Test</th><th>11-Oct-2015</th><th>Reference&#xA0;Range</th><th>Unit</th></tr><tr><td>Color of Urine</td></tr></table></div>"
        },
        "status": "final",
        "subject": {
          "reference": "urn:uuid:2779b674-e6ca-4e1c-a7d5-ee13103d6f06",
          "display": "Maria Nohlmans"
        },
        "effectiveDateTime": "2015-10-11T04:55:39Z",
        "specimen": {
          "reference": "urn:uuid:fe0aec12-6e40-4924-a1d0-1fe0efd12867"
        }
      }
    },
    {
      "fullUrl": "urn:uuid:1e24fb7a-84e7-4f38-8284-f6d647c6bda4",
      "resource": {
        "resourceType": "Observation",
        "id": "1e24fb7a-84e7-4f38-8284-f6d647c6bda4",
        "meta": {
          "profile": [
            "http://hl7.eu/fhir/laboratory/StructureDefinition/Observation-resultslab-eu-lab"
          ]
        },
        "performer": [
          {
            "display": "The Central European Lab"
          }
        ],
        "category": [
          {
            "coding": [
              {
                "system": "http://terminology.hl7.org/CodeSystem/observation-category",
                "code": "laboratory"
              }
            ]
          }
        ],
        "code": {
          "coding": [
            {
              "code": "5792-7",
              "system": "http://loinc.org",
              "display": "Glucose [Mass/volume] in Urine by Test strip"
            }
          ],
          "text": "Glucose [Mass/volume] in Urine by Test strip"
        },
        "valueQuantity": {
          "system": "http://unitsofmeasure.org",
          "value": 0.9,
          "unit": "mg/dL",
          "code": "mg/dL"
        },
        "referenceRange": [
          {
            "low": {
              "value": 0.8,
              "code": "mg/dL",
              "system": "http://unitsofmeasure.org"
            }
          },
          {
            "high": {
              "value": 0,
              "code": "mg/dL",
              "system": "http://unitsofmeasure.org"
            }
          }
        ],
        "interpretation": [
          {
            "coding": [
              {
                "code": "H",
                "system": "http://terminology.hl7.org/CodeSystem/v3-ObservationInterpretation",
                "display": "High"
              }
            ]
          }
        ],
        "text": {
          "status": "generated",
          "div": "<div xmlns=\"http://www.w3.org/1999/xhtml\"><table class=\"hl7__eu__lab__report\"><tr><th>Test</th><th>11-Oct-2015</th><th>Reference&#xA0;Range</th><th>Unit</th></tr><tr><td>Glucose [Mass/volume] in Urine by Test strip</td><td>0.9</td><td>0.8 - 0</td><td>H</td><td>mg/dL</td></tr></table></div>"
        },
        "status": "final",
        "subject": {
          "reference": "urn:uuid:2779b674-e6ca-4e1c-a7d5-ee13103d6f06",
          "display": "Maria Nohlmans"
        },
        "effectiveDateTime": "2015-10-11T04:55:39Z",
        "specimen": {
          "reference": "urn:uuid:fe0aec12-6e40-4924-a1d0-1fe0efd12867"
        }
      }
    },
    {
      "fullUrl": "urn:uuid:47ae0adf-9139-4175-a82a-1e8d828ad79e",
      "resource": {
        "resourceType": "Observation",
        "id": "47ae0adf-9139-4175-a82a-1e8d828ad79e",
        "meta": {
          "profile": [
            "http://hl7.eu/fhir/laboratory/StructureDefinition/Observation-resultslab-eu-lab"
          ]
        },
        "performer": [
          {
            "display": "The Central European Lab"
          }
        ],
        "category": [
          {
            "coding": [
              {
                "system": "http://terminology.hl7.org/CodeSystem/observation-category",
                "code": "laboratory"
              }
            ]
          }
        ],
        "code": {
          "coding": [
            {
              "code": "25428-4",
              "system": "http://loinc.org",
              "display": "Glucose [Presence] in Urine by Test strip"
            }
          ],
          "text": "Glucose [Presence] in Urine by Test strip"
        },
        "text": {
          "status": "generated",
          "div": "<div xmlns=\"http://www.w3.org/1999/xhtml\"><table class=\"hl7__eu__lab__report\"><tr><th>Test</th><th>11-Oct-2015</th><th>Reference&#xA0;Range</th><th>Unit</th></tr><tr><td>Glucose [Presence] in Urine by Test strip</td></tr></table></div>"
        },
        "status": "final",
        "subject": {
          "reference": "urn:uuid:2779b674-e6ca-4e1c-a7d5-ee13103d6f06",
          "display": "Maria Nohlmans"
        },
        "effectiveDateTime": "2015-10-11T04:55:39Z",
        "specimen": {
          "reference": "urn:uuid:fe0aec12-6e40-4924-a1d0-1fe0efd12867"
        }
      }
    },
    {
      "fullUrl": "urn:uuid:58846ac9-adea-4697-8cac-5e6cdfeef09f",
      "resource": {
        "resourceType": "Observation",
        "id": "58846ac9-adea-4697-8cac-5e6cdfeef09f",
        "meta": {
          "profile": [
            "http://hl7.eu/fhir/laboratory/StructureDefinition/Observation-resultslab-eu-lab"
          ]
        },
        "performer": [
          {
            "display": "The Central European Lab"
          }
        ],
        "category": [
          {
            "coding": [
              {
                "system": "http://terminology.hl7.org/CodeSystem/observation-category",
                "code": "laboratory"
              }
            ]
          }
        ],
        "code": {
          "coding": [
            {
              "code": "20505-4",
              "system": "http://loinc.org",
              "display": "Bilirubin.total [Mass/volume] in Urine by Test strip"
            }
          ],
          "text": "Bilirubin.total [Mass/volume] in Urine by Test strip"
        },
        "valueQuantity": {
          "system": "http://unitsofmeasure.org",
          "value": 0.8,
          "unit": "mg/dL",
          "code": "mg/dL"
        },
        "referenceRange": [
          {
            "low": {
              "value": 0,
              "code": "mg/dL",
              "system": "http://unitsofmeasure.org"
            }
          },
          {
            "high": {
              "value": 1.5,
              "code": "mg/dL",
              "system": "http://unitsofmeasure.org"
            }
          }
        ],
        "text": {
          "status": "generated",
          "div": "<div xmlns=\"http://www.w3.org/1999/xhtml\"><table class=\"hl7__eu__lab__report\"><tr><th>Test</th><th>11-Oct-2015</th><th>Reference&#xA0;Range</th><th>Unit</th></tr><tr><td>Bilirubin.total [Mass/volume] in Urine by Test strip</td><td>0.8</td><td>0 - 1.5</td><td></td><td>mg/dL</td></tr></table></div>"
        },
        "status": "final",
        "subject": {
          "reference": "urn:uuid:2779b674-e6ca-4e1c-a7d5-ee13103d6f06",
          "display": "Maria Nohlmans"
        },
        "effectiveDateTime": "2015-10-11T04:55:39Z",
        "specimen": {
          "reference": "urn:uuid:fe0aec12-6e40-4924-a1d0-1fe0efd12867"
        }
      }
    },
    {
      "fullUrl": "urn:uuid:55a82240-1570-41fa-8acb-06964ddcb139",
      "resource": {
        "resourceType": "Observation",
        "id": "55a82240-1570-41fa-8acb-06964ddcb139",
        "meta": {
          "profile": [
            "http://hl7.eu/fhir/laboratory/StructureDefinition/Observation-resultslab-eu-lab"
          ]
        },
        "performer": [
          {
            "display": "The Central European Lab"
          }
        ],
        "category": [
          {
            "coding": [
              {
                "system": "http://terminology.hl7.org/CodeSystem/observation-category",
                "code": "laboratory"
              }
            ]
          }
        ],
        "code": {
          "coding": [
            {
              "code": "5770-3",
              "system": "http://loinc.org",
              "display": "Bilirubin.total [Presence] in Urine by Test strip"
            }
          ],
          "text": "Bilirubin.total [Presence] in Urine by Test strip"
        },
        "text": {
          "status": "generated",
          "div": "<div xmlns=\"http://www.w3.org/1999/xhtml\"><table class=\"hl7__eu__lab__report\"><tr><th>Test</th><th>11-Oct-2015</th><th>Reference&#xA0;Range</th><th>Unit</th></tr><tr><td>Bilirubin.total [Presence] in Urine by Test strip</td></tr></table></div>"
        },
        "status": "final",
        "subject": {
          "reference": "urn:uuid:2779b674-e6ca-4e1c-a7d5-ee13103d6f06",
          "display": "Maria Nohlmans"
        },
        "effectiveDateTime": "2015-10-11T04:55:39Z",
        "specimen": {
          "reference": "urn:uuid:fe0aec12-6e40-4924-a1d0-1fe0efd12867"
        }
      }
    },
    {
      "fullUrl": "urn:uuid:1fc1e79a-83ae-413d-8df3-4efcfed98985",
      "resource": {
        "resourceType": "Observation",
        "id": "1fc1e79a-83ae-413d-8df3-4efcfed98985",
        "meta": {
          "profile": [
            "http://hl7.eu/fhir/laboratory/StructureDefinition/Observation-resultslab-eu-lab"
          ]
        },
        "performer": [
          {
            "display": "The Central European Lab"
          }
        ],
        "category": [
          {
            "coding": [
              {
                "system": "http://terminology.hl7.org/CodeSystem/observation-category",
                "code": "laboratory"
              }
            ]
          }
        ],
        "code": {
          "coding": [
            {
              "code": "5797-6",
              "system": "http://loinc.org",
              "display": "Ketones [Mass/volume] in Urine by Test strip"
            }
          ],
          "text": "Ketones [Mass/volume] in Urine by Test strip"
        },
        "valueQuantity": {
          "system": "http://unitsofmeasure.org",
          "value": 10.2,
          "unit": "mg/dL",
          "code": "mg/dL"
        },
        "referenceRange": [
          {
            "low": {
              "value": 0,
              "code": "mg/dL",
              "system": "http://unitsofmeasure.org"
            }
          },
          {
            "high": {
              "value": 8,
              "code": "mg/dL",
              "system": "http://unitsofmeasure.org"
            }
          }
        ],
        "interpretation": [
          {
            "coding": [
              {
                "code": "H",
                "system": "http://terminology.hl7.org/CodeSystem/v3-ObservationInterpretation",
                "display": "High"
              }
            ]
          }
        ],
        "text": {
          "status": "generated",
          "div": "<div xmlns=\"http://www.w3.org/1999/xhtml\"><table class=\"hl7__eu__lab__report\"><tr><th>Test</th><th>11-Oct-2015</th><th>Reference&#xA0;Range</th><th>Unit</th></tr><tr><td>Ketones [Mass/volume] in Urine by Test strip</td><td>10.2</td><td>0 - 8</td><td>H</td><td>mg/dL</td></tr></table></div>"
        },
        "status": "final",
        "subject": {
          "reference": "urn:uuid:2779b674-e6ca-4e1c-a7d5-ee13103d6f06",
          "display": "Maria Nohlmans"
        },
        "effectiveDateTime": "2015-10-11T04:55:39Z",
        "specimen": {
          "reference": "urn:uuid:fe0aec12-6e40-4924-a1d0-1fe0efd12867"
        }
      }
    },
    {
      "fullUrl": "urn:uuid:0288f88f-17f6-4a6c-a490-e5bd774e8d7e",
      "resource": {
        "resourceType": "Observation",
        "id": "0288f88f-17f6-4a6c-a490-e5bd774e8d7e",
        "meta": {
          "profile": [
            "http://hl7.eu/fhir/laboratory/StructureDefinition/Observation-resultslab-eu-lab"
          ]
        },
        "performer": [
          {
            "display": "The Central European Lab"
          }
        ],
        "category": [
          {
            "coding": [
              {
                "system": "http://terminology.hl7.org/CodeSystem/observation-category",
                "code": "laboratory"
              }
            ]
          }
        ],
        "code": {
          "coding": [
            {
              "code": "2514-8",
              "system": "http://loinc.org",
              "display": "Ketones [Presence] in Urine by Test strip"
            }
          ],
          "text": "Ketones [Presence] in Urine by Test strip"
        },
        "text": {
          "status": "generated",
          "div": "<div xmlns=\"http://www.w3.org/1999/xhtml\"><table class=\"hl7__eu__lab__report\"><tr><th>Test</th><th>11-Oct-2015</th><th>Reference&#xA0;Range</th><th>Unit</th></tr><tr><td>Ketones [Presence] in Urine by Test strip</td></tr></table></div>"
        },
        "status": "final",
        "subject": {
          "reference": "urn:uuid:2779b674-e6ca-4e1c-a7d5-ee13103d6f06",
          "display": "Maria Nohlmans"
        },
        "effectiveDateTime": "2015-10-11T04:55:39Z",
        "specimen": {
          "reference": "urn:uuid:fe0aec12-6e40-4924-a1d0-1fe0efd12867"
        }
      }
    },
    {
      "fullUrl": "urn:uuid:d2ce69bd-2cae-4e4c-84fd-ff0131382f4d",
      "resource": {
        "resourceType": "Observation",
        "id": "d2ce69bd-2cae-4e4c-84fd-ff0131382f4d",
        "meta": {
          "profile": [
            "http://hl7.eu/fhir/laboratory/StructureDefinition/Observation-resultslab-eu-lab"
          ]
        },
        "performer": [
          {
            "display": "The Central European Lab"
          }
        ],
        "category": [
          {
            "coding": [
              {
                "system": "http://terminology.hl7.org/CodeSystem/observation-category",
                "code": "laboratory"
              }
            ]
          }
        ],
        "code": {
          "coding": [
            {
              "code": "5811-5",
              "system": "http://loinc.org",
              "display": "Specific gravity of Urine by Test strip"
            }
          ],
          "text": "Specific gravity of Urine by Test strip"
        },
        "valueQuantity": {
          "system": "http://unitsofmeasure.org",
          "value": 1,
          "unit": "{nominal}",
          "code": "{nominal}"
        },
        "referenceRange": [
          {
            "low": {
              "value": 1.01,
              "code": "g/mL",
              "system": "http://unitsofmeasure.org"
            }
          },
          {
            "high": {
              "value": 1.03,
              "code": "g/mL",
              "system": "http://unitsofmeasure.org"
            }
          }
        ],
        "interpretation": [
          {
            "coding": [
              {
                "code": "L",
                "system": "http://terminology.hl7.org/CodeSystem/v3-ObservationInterpretation",
                "display": "Low"
              }
            ]
          }
        ],
        "text": {
          "status": "generated",
          "div": "<div xmlns=\"http://www.w3.org/1999/xhtml\"><table class=\"hl7__eu__lab__report\"><tr><th>Test</th><th>11-Oct-2015</th><th>Reference&#xA0;Range</th><th>Unit</th></tr><tr><td>Specific gravity of Urine by Test strip</td><td>1.0</td><td>1.01 - 1.03</td><td>L</td><td>{nominal}</td></tr></table></div>"
        },
        "status": "final",
        "subject": {
          "reference": "urn:uuid:2779b674-e6ca-4e1c-a7d5-ee13103d6f06",
          "display": "Maria Nohlmans"
        },
        "effectiveDateTime": "2015-10-11T04:55:39Z",
        "specimen": {
          "reference": "urn:uuid:fe0aec12-6e40-4924-a1d0-1fe0efd12867"
        }
      }
    },
    {
      "fullUrl": "urn:uuid:b40861ad-de01-4ee7-8865-f7fabf03b014",
      "resource": {
        "resourceType": "Observation",
        "id": "b40861ad-de01-4ee7-8865-f7fabf03b014",
        "meta": {
          "profile": [
            "http://hl7.eu/fhir/laboratory/StructureDefinition/Observation-resultslab-eu-lab"
          ]
        },
        "performer": [
          {
            "display": "The Central European Lab"
          }
        ],
        "category": [
          {
            "coding": [
              {
                "system": "http://terminology.hl7.org/CodeSystem/observation-category",
                "code": "laboratory"
              }
            ]
          }
        ],
        "code": {
          "coding": [
            {
              "code": "5803-2",
              "system": "http://loinc.org",
              "display": "pH of Urine by Test strip"
            }
          ],
          "text": "pH of Urine by Test strip"
        },
        "valueQuantity": {
          "system": "http://unitsofmeasure.org",
          "value": 5.4,
          "unit": "pH",
          "code": "pH"
        },
        "referenceRange": [
          {
            "low": {
              "value": 4.6,
              "code": "pH",
              "system": "http://unitsofmeasure.org"
            }
          },
          {
            "high": {
              "value": 7.5,
              "code": "pH",
              "system": "http://unitsofmeasure.org"
            }
          }
        ],
        "text": {
          "status": "generated",
          "div": "<div xmlns=\"http://www.w3.org/1999/xhtml\"><table class=\"hl7__eu__lab__report\"><tr><th>Test</th><th>11-Oct-2015</th><th>Reference&#xA0;Range</th><th>Unit</th></tr><tr><td>pH of Urine by Test strip</td><td>5.4</td><td>4.6 - 7.5</td><td></td><td>pH</td></tr></table></div>"
        },
        "status": "final",
        "subject": {
          "reference": "urn:uuid:2779b674-e6ca-4e1c-a7d5-ee13103d6f06",
          "display": "Maria Nohlmans"
        },
        "effectiveDateTime": "2015-10-11T04:55:39Z",
        "specimen": {
          "reference": "urn:uuid:fe0aec12-6e40-4924-a1d0-1fe0efd12867"
        }
      }
    },
    {
      "fullUrl": "urn:uuid:0fc404e8-84fa-4516-b995-30af50f04e41",
      "resource": {
        "resourceType": "Observation",
        "id": "0fc404e8-84fa-4516-b995-30af50f04e41",
        "meta": {
          "profile": [
            "http://hl7.eu/fhir/laboratory/StructureDefinition/Observation-resultslab-eu-lab"
          ]
        },
        "performer": [
          {
            "display": "The Central European Lab"
          }
        ],
        "category": [
          {
            "coding": [
              {
                "system": "http://terminology.hl7.org/CodeSystem/observation-category",
                "code": "laboratory"
              }
            ]
          }
        ],
        "code": {
          "coding": [
            {
              "code": "5804-0",
              "system": "http://loinc.org",
              "display": "Protein [Mass/volume] in Urine by Test strip"
            }
          ],
          "text": "Protein [Mass/volume] in Urine by Test strip"
        },
        "valueQuantity": {
          "system": "http://unitsofmeasure.org",
          "value": 389.8,
          "unit": "mg/dL",
          "code": "mg/dL"
        },
        "referenceRange": [
          {
            "low": {
              "value": 0,
              "code": "mg/dL",
              "system": "http://unitsofmeasure.org"
            }
          },
          {
            "high": {
              "value": 14,
              "code": "mg/dL",
              "system": "http://unitsofmeasure.org"
            }
          }
        ],
        "interpretation": [
          {
            "coding": [
              {
                "code": "H",
                "system": "http://terminology.hl7.org/CodeSystem/v3-ObservationInterpretation",
                "display": "High"
              }
            ]
          }
        ],
        "text": {
          "status": "generated",
          "div": "<div xmlns=\"http://www.w3.org/1999/xhtml\"><table class=\"hl7__eu__lab__report\"><tr><th>Test</th><th>11-Oct-2015</th><th>Reference&#xA0;Range</th><th>Unit</th></tr><tr><td>Protein [Mass/volume] in Urine by Test strip</td><td>389.8</td><td>0 - 14</td><td>H</td><td>mg/dL</td></tr></table></div>"
        },
        "status": "final",
        "subject": {
          "reference": "urn:uuid:2779b674-e6ca-4e1c-a7d5-ee13103d6f06",
          "display": "Maria Nohlmans"
        },
        "effectiveDateTime": "2015-10-11T04:55:39Z",
        "specimen": {
          "reference": "urn:uuid:fe0aec12-6e40-4924-a1d0-1fe0efd12867"
        }
      }
    },
    {
      "fullUrl": "urn:uuid:e508905f-e8ff-42ea-970f-122f99f300c9",
      "resource": {
        "resourceType": "Observation",
        "id": "e508905f-e8ff-42ea-970f-122f99f300c9",
        "meta": {
          "profile": [
            "http://hl7.eu/fhir/laboratory/StructureDefinition/Observation-resultslab-eu-lab"
          ]
        },
        "performer": [
          {
            "display": "The Central European Lab"
          }
        ],
        "category": [
          {
            "coding": [
              {
                "system": "http://terminology.hl7.org/CodeSystem/observation-category",
                "code": "laboratory"
              }
            ]
          }
        ],
        "code": {
          "coding": [
            {
              "code": "20454-5",
              "system": "http://loinc.org",
              "display": "Protein [Presence] in Urine by Test strip"
            }
          ],
          "text": "Protein [Presence] in Urine by Test strip"
        },
        "text": {
          "status": "generated",
          "div": "<div xmlns=\"http://www.w3.org/1999/xhtml\"><table class=\"hl7__eu__lab__report\"><tr><th>Test</th><th>11-Oct-2015</th><th>Reference&#xA0;Range</th><th>Unit</th></tr><tr><td>Protein [Presence] in Urine by Test strip</td></tr></table></div>"
        },
        "status": "final",
        "subject": {
          "reference": "urn:uuid:2779b674-e6ca-4e1c-a7d5-ee13103d6f06",
          "display": "Maria Nohlmans"
        },
        "effectiveDateTime": "2015-10-11T04:55:39Z",
        "specimen": {
          "reference": "urn:uuid:fe0aec12-6e40-4924-a1d0-1fe0efd12867"
        }
      }
    },
    {
      "fullUrl": "urn:uuid:58bdae1f-6982-4208-bfa8-2c6a13badd50",
      "resource": {
        "resourceType": "Observation",
        "id": "58bdae1f-6982-4208-bfa8-2c6a13badd50",
        "meta": {
          "profile": [
            "http://hl7.eu/fhir/laboratory/StructureDefinition/Observation-resultslab-eu-lab"
          ]
        },
        "performer": [
          {
            "display": "The Central European Lab"
          }
        ],
        "category": [
          {
            "coding": [
              {
                "system": "http://terminology.hl7.org/CodeSystem/observation-category",
                "code": "laboratory"
              }
            ]
          }
        ],
        "code": {
          "coding": [
            {
              "code": "5802-4",
              "system": "http://loinc.org",
              "display": "Nitrite [Presence] in Urine by Test strip"
            }
          ],
          "text": "Nitrite [Presence] in Urine by Test strip"
        },
        "text": {
          "status": "generated",
          "div": "<div xmlns=\"http://www.w3.org/1999/xhtml\"><table class=\"hl7__eu__lab__report\"><tr><th>Test</th><th>11-Oct-2015</th><th>Reference&#xA0;Range</th><th>Unit</th></tr><tr><td>Nitrite [Presence] in Urine by Test strip</td></tr></table></div>"
        },
        "status": "final",
        "subject": {
          "reference": "urn:uuid:2779b674-e6ca-4e1c-a7d5-ee13103d6f06",
          "display": "Maria Nohlmans"
        },
        "effectiveDateTime": "2015-10-11T04:55:39Z",
        "specimen": {
          "reference": "urn:uuid:fe0aec12-6e40-4924-a1d0-1fe0efd12867"
        }
      }
    },
    {
      "fullUrl": "urn:uuid:32f1cc6e-8b3f-4cbf-81c9-910b5e9709e7",
      "resource": {
        "resourceType": "Observation",
        "id": "32f1cc6e-8b3f-4cbf-81c9-910b5e9709e7",
        "meta": {
          "profile": [
            "http://hl7.eu/fhir/laboratory/StructureDefinition/Observation-resultslab-eu-lab"
          ]
        },
        "performer": [
          {
            "display": "The Central European Lab"
          }
        ],
        "category": [
          {
            "coding": [
              {
                "system": "http://terminology.hl7.org/CodeSystem/observation-category",
                "code": "laboratory"
              }
            ]
          }
        ],
        "code": {
          "coding": [
            {
              "code": "5794-3",
              "system": "http://loinc.org",
              "display": "Hemoglobin [Presence] in Urine by Test strip"
            }
          ],
          "text": "Hemoglobin [Presence] in Urine by Test strip"
        },
        "text": {
          "status": "generated",
          "div": "<div xmlns=\"http://www.w3.org/1999/xhtml\"><table class=\"hl7__eu__lab__report\"><tr><th>Test</th><th>11-Oct-2015</th><th>Reference&#xA0;Range</th><th>Unit</th></tr><tr><td>Hemoglobin [Presence] in Urine by Test strip</td></tr></table></div>"
        },
        "status": "final",
        "subject": {
          "reference": "urn:uuid:2779b674-e6ca-4e1c-a7d5-ee13103d6f06",
          "display": "Maria Nohlmans"
        },
        "effectiveDateTime": "2015-10-11T04:55:39Z",
        "specimen": {
          "reference": "urn:uuid:fe0aec12-6e40-4924-a1d0-1fe0efd12867"
        }
      }
    },
    {
      "fullUrl": "urn:uuid:7d3c51eb-085c-4136-9b2c-a4a3c4be63b2",
      "resource": {
        "resourceType": "Observation",
        "id": "7d3c51eb-085c-4136-9b2c-a4a3c4be63b2",
        "meta": {
          "profile": [
            "http://hl7.eu/fhir/laboratory/StructureDefinition/Observation-resultslab-eu-lab"
          ]
        },
        "performer": [
          {
            "display": "The Central European Lab"
          }
        ],
        "category": [
          {
            "coding": [
              {
                "system": "http://terminology.hl7.org/CodeSystem/observation-category",
                "code": "laboratory"
              }
            ]
          }
        ],
        "code": {
          "coding": [
            {
              "code": "5799-2",
              "system": "http://loinc.org",
              "display": "Leukocyte esterase [Presence] in Urine by Test strip"
            }
          ],
          "text": "Leukocyte esterase [Presence] in Urine by Test strip"
        },
        "text": {
          "status": "generated",
          "div": "<div xmlns=\"http://www.w3.org/1999/xhtml\"><table class=\"hl7__eu__lab__report\"><tr><th>Test</th><th>11-Oct-2015</th><th>Reference&#xA0;Range</th><th>Unit</th></tr><tr><td>Leukocyte esterase [Presence] in Urine by Test strip</td></tr></table></div>"
        },
        "status": "final",
        "subject": {
          "reference": "urn:uuid:2779b674-e6ca-4e1c-a7d5-ee13103d6f06",
          "display": "Maria Nohlmans"
        },
        "effectiveDateTime": "2015-10-11T04:55:39Z",
        "specimen": {
          "reference": "urn:uuid:fe0aec12-6e40-4924-a1d0-1fe0efd12867"
        }
      }
    },
    {
      "fullUrl": "urn:uuid:7007cddc-a405-4282-87c4-073ab653e8bb",
      "resource": {
        "resourceType": "Device",
        "id": "7007cddc-a405-4282-87c4-073ab653e8bb",
        "deviceName": [
          {
            "name": "SYNDERAI Synthetic Generator",
            "type": "manufacturer-name"
          }
        ],
        "version": [
          {
            "value": "5.0"
          }
        ],
        "text": {
          "status": "generated",
          "div": "<div xmlns=\"http://www.w3.org/1999/xhtml\">SYNDERAI Synthetic Generator v5.0</div>"
        },
        "status": "active\"",
        "distinctIdentifier": "synderai-generator-50",
        "manufacturer": "SYNDERAI Project"
      }
    },
    {
      "fullUrl": "urn:uuid:5afc2dd4-6608-446b-913e-d10cb1257798",
      "resource": {
        "resourceType": "Provenance",
        "id": "5afc2dd4-6608-446b-913e-d10cb1257798",
        "target": [
          {
            "reference": "Patient/2779b674-e6ca-4e1c-a7d5-ee13103d6f06"
          },
          {
            "reference": "Bundle/b46f10db-1b8e-46fb-ba5d-786e38fef837"
          },
          {
            "reference": "Composition/3cc4e625-cf20-4fb1-80f6-b870378e9bcd"
          },
          {
            "reference": "PractitionerRole/8cd7e127-307d-43ce-bd85-f2ced6d0c3e9"
          },
          {
            "reference": "Practitioner/9edddc60-e5a1-4097-adae-52777d1e75ef"
          },
          {
            "reference": "PractitionerRole/4b456c11-d4d8-4cc7-b630-9fd130766afe"
          },
          {
            "reference": "Organization/b6307b1a-e6a7-4321-bc8d-9959b47310bb"
          }
        ],
        "activity": {
          "text": "Synthetic Example Data Generation"
        },
        "policy": [
          "https://synderai.net/synderai-synthetic-data-policy"
        ],
        "agent": [
          {
            "type": {
              "text": "author"
            },
            "who": {
              "reference": "Device/7007cddc-a405-4282-87c4-073ab653e8bb"
            }
          }
        ],
        "reason": [
          {
            "text": "Interoperability Testing and Training (non-clinical use)"
          }
        ],
        "text": {
          "status": "generated",
          "div": "<div xmlns=\"http://www.w3.org/1999/xhtml\">Provenance for SYNDERAI Synthetic Example Data Resource</div>"
        },
        "recorded": "2015-10-11T06:55:39Z"
      }
    },
    {
      "fullUrl": "urn:uuid:8cd7e127-307d-43ce-bd85-f2ced6d0c3e9",
      "resource": {
        "resourceType": "PractitionerRole",
        "id": "8cd7e127-307d-43ce-bd85-f2ced6d0c3e9",
        "meta": {
          "profile": [
            "http://hl7.eu/fhir/base/StructureDefinition/practitionerRole-eu"
          ]
        },
        "text": {
          "status": "generated",
          "div": "<div xmlns=\"http://www.w3.org/1999/xhtml\">Laboratory Role Id: 8cd7e127-307d-43ce-bd85-f2ced6d0c3e9</div>"
        },
        "practitioner": {
          "reference": "urn:uuid:9edddc60-e5a1-4097-adae-52777d1e75ef"
        }
      }
    },
    {
      "fullUrl": "urn:uuid:9edddc60-e5a1-4097-adae-52777d1e75ef",
      "resource": {
        "resourceType": "Practitioner",
        "id": "9edddc60-e5a1-4097-adae-52777d1e75ef",
        "meta": {
          "profile": [
            "http://hl7.eu/fhir/base/StructureDefinition/practitioner-eu"
          ]
        },
        "identifier": [
          {
            "assigner": {
              "display": "HL7 Europe"
            },
            "system": "urn:oid:2.16.840.1.113883.2.51.999",
            "value": "42f067d1-ff2b-423d-a70d-5298785b4e36"
          }
        ],
        "name": [
          {
            "prefix": [
              "dr"
            ],
            "given": [
              "Ex"
            ],
            "family": "Ample"
          }
        ],
        "address": [
          {
            "line": [
              "Laboratoire Central Européenne",
              "Boulevard du Jardin Botanique 32"
            ],
            "postalCode": "1000",
            "city": "Brussels",
            "country": "Belgium"
          }
        ],
        "text": {
          "status": "generated",
          "div": "<div xmlns=\"http://www.w3.org/1999/xhtml\">Laboratory: Laboratoire Central Européenne, 1000 Brussels, Belgium</div>"
        }
      }
    }
  ],
  "type": "document",
  "timestamp": "2015-10-11T06:55:39Z"
}
