{
  "resourceType": "Bundle",
  "id": "826dd30c-3807-458a-a728-5d27795ce4a8",
  "meta": {
    "profile": [
      "http://hl7.eu/fhir/laboratory/StructureDefinition/Bundle-eu-lab"
    ]
  },
  "identifier": {
    "assigner": {
      "display": "HL7 Europe"
    },
    "system": "urn:oid:2.16.840.1.113883.2.51.999",
    "value": "a18abc16-eced-493a-b6af-7d45a642264b"
  },
  "entry": [
    {
      "fullUrl": "urn:uuid:1d04dde0-aee3-40ef-8c59-c874c57b82a9",
      "resource": {
        "resourceType": "Composition",
        "id": "1d04dde0-aee3-40ef-8c59-c874c57b82a9",
        "meta": {
          "profile": [
            "http://hl7.eu/fhir/laboratory/StructureDefinition/Composition-eu-lab"
          ]
        },
        "identifier": {
          "assigner": {
            "display": "HL7 Europe"
          },
          "system": "urn:oid:2.16.840.1.113883.2.51.999",
          "value": "e27004f1-6bef-411e-81de-d9b1853cc161"
        },
        "author": [
          {
            "reference": "urn:uuid:c7c65648-c75a-4479-b184-efafb0f42c2d"
          }
        ],
        "category": [
          {
            "coding": [
              {
                "code": "26436-6",
                "system": "http://loinc.org",
                "display": "Laboratory studies (set)"
              }
            ]
          }
        ],
        "type": {
          "coding": [
            {
              "code": "11502-2",
              "system": "http://loinc.org",
              "display": "Laboratory report"
            }
          ],
          "text": "Laboratory Report"
        },
        "section": [
          {
            "code": {
              "coding": [
                {
                  "code": "26436-6",
                  "system": "http://loinc.org",
                  "display": "Laboratory studies (set)"
                }
              ],
              "text": "Laboratory studies"
            },
            "section": [
              {
                "code": {
                  "coding": [
                    {
                      "code": "$18719-5",
                      "system": "http://loinc.org",
                      "display": "Chemistry studies (set)"
                    }
                  ],
                  "text": "Chemistry"
                },
                "entry": [
                  {
                    "reference": "urn:uuid:4c2e6b6c-69c8-4cd7-8b9d-b052ed69c68d"
                  },
                  {
                    "reference": "urn:uuid:92dbcf99-110e-440d-9391-0cfb39ab03ee"
                  },
                  {
                    "reference": "urn:uuid:ec881513-93e0-4442-92f9-c634ada6243c"
                  },
                  {
                    "reference": "urn:uuid:769b460a-10e3-4fb7-904b-d3875ab1dcfd"
                  },
                  {
                    "reference": "urn:uuid:44b6532c-037c-4dae-98ea-92e393f89140"
                  },
                  {
                    "reference": "urn:uuid:813d6a91-7278-425a-894b-f376953f70b2"
                  },
                  {
                    "reference": "urn:uuid:e3f1e949-0723-40a8-bbbb-7caed8b3d0be"
                  },
                  {
                    "reference": "urn:uuid:97ce7e3d-d640-4f92-b5fd-ba7bda0227df"
                  },
                  {
                    "reference": "urn:uuid:5a0d7c7f-7b7b-4408-a309-8e1f785f3273"
                  }
                ],
                "text": {
                  "status": "generated",
                  "div": "<div xmlns=\"http://www.w3.org/1999/xhtml\"><h3>Chemistry</h3><table class=\"hl7__eu__lab__report\"><thead><tr><th>Test</th><th>20-DEC-2022</th><th>Reference&#xA0;Range</th><th>Unit</th></tr></thead><tbody><tr><td>Glucose [Mass/volume] in Serum or Plasma</td><td><strong>65.4 L</strong></td><td>70 - 139</td><td>mg/dL</td></tr><tr><td>Urea nitrogen [Mass/volume] in Serum or Plasma</td><td>11.5</td><td>7 - 20</td><td>mg/dL</td></tr><tr><td>Creatinine [Mass/volume] in Serum or Plasma</td><td><strong>1.4 H</strong></td><td>0.6 - 1.1</td><td>mg/dL</td></tr><tr><td>Calcium [Mass/volume] in Serum or Plasma</td><td>10.1</td><td>8.5 - 10.4</td><td>mg/dL</td></tr><tr><td>Sodium [Moles/volume] in Serum or Plasma</td><td>137.3</td><td>135 - 145</td><td>mmol/L</td></tr><tr><td>Potassium [Moles/volume] in Serum or Plasma</td><td>4.7</td><td>3.5 - 5.1</td><td>mmol/L</td></tr><tr><td>Chloride [Moles/volume] in Serum or Plasma</td><td>106.8</td><td>98 - 110</td><td>mmol/L</td></tr><tr><td>Carbon dioxide, total [Moles/volume] in Serum or Plasma</td><td>23.5</td><td>22 - 32</td><td>mmol/L</td></tr><tr><td>Ketones [Presence] in Urine by Test strip</td><td>Urine ketone test = trace</td><td></td><td></td></tr></tbody></table></div>"
                },
                "title": "Chemistry"
              },
              {
                "code": {
                  "coding": [
                    {
                      "code": "$18729-4",
                      "system": "http://loinc.org",
                      "display": "Urinalysis studies (set)"
                    }
                  ],
                  "text": "Urinalysis"
                },
                "entry": [
                  {
                    "reference": "urn:uuid:81ba3133-ff01-4f03-996c-c9bcc1a95917"
                  },
                  {
                    "reference": "urn:uuid:f2ac74db-a5c7-4228-bc87-f0776570a109"
                  },
                  {
                    "reference": "urn:uuid:4a18d380-15b8-40a7-bb86-0f0a457a66c2"
                  },
                  {
                    "reference": "urn:uuid:f4dc05c0-41ed-4331-b0a7-13e64cc0a028"
                  },
                  {
                    "reference": "urn:uuid:e9f28d08-f7a4-495a-9933-9e6f1e01c1af"
                  },
                  {
                    "reference": "urn:uuid:5e48a67e-bc7e-4798-ae44-262a13414134"
                  },
                  {
                    "reference": "urn:uuid:c6601595-f401-4807-9008-ae908529168e"
                  },
                  {
                    "reference": "urn:uuid:efa57a53-451f-4608-8b0f-23e5ba039d0a"
                  },
                  {
                    "reference": "urn:uuid:42172c8e-2cbf-4e27-b142-ffb97a489476"
                  },
                  {
                    "reference": "urn:uuid:1fea8538-f33e-47ce-b31a-6c0f59f97a05"
                  },
                  {
                    "reference": "urn:uuid:fc3264ed-ab0a-4096-8aa0-2e97fc3b0a2e"
                  },
                  {
                    "reference": "urn:uuid:f7e1506d-d261-40c3-882a-0df68415bdcc"
                  }
                ],
                "text": {
                  "status": "generated",
                  "div": "<div xmlns=\"http://www.w3.org/1999/xhtml\"><h3>Urinalysis</h3><table class=\"hl7__eu__lab__report\"><thead><tr><th>Test</th><th>20-DEC-2022</th><th>Reference&#xA0;Range</th><th>Unit</th></tr></thead><tbody><tr><td>Glucose [Mass/volume] in Urine by Test strip</td><td><strong>1.4 H</strong></td><td>0 - 0</td><td>mg/dL</td></tr><tr><td>Glucose [Presence] in Urine by Test strip</td><td>++</td><td></td><td></td></tr><tr><td>Bilirubin.total [Mass/volume] in Urine by Test strip</td><td>1.1</td><td>0 - 1.6</td><td>mg/dL</td></tr><tr><td>Bilirubin.total [Presence] in Urine by Test strip</td><td>Finding of bilirubin in urine</td><td></td><td></td></tr><tr><td>Ketones [Mass/volume] in Urine by Test strip</td><td><strong>3.8 H</strong></td><td>0 - 0.5</td><td>mg/dL</td></tr><tr><td>Specific gravity of Urine by Test strip</td><td><strong>1.0 L</strong></td><td>1.005 - 1.03</td><td>{nominal}</td></tr><tr><td>pH of Urine by Test strip</td><td>5.2</td><td>4.5 - 7.5</td><td>pH</td></tr><tr><td>Protein [Mass/volume] in Urine by Test strip</td><td><strong>80.2 H</strong></td><td>0 - 15</td><td>mg/dL</td></tr><tr><td>Protein [Presence] in Urine by Test strip</td><td>Urine protein test = +</td><td></td><td></td></tr><tr><td>Nitrite [Presence] in Urine by Test strip</td><td>Urine nitrite negative</td><td></td><td></td></tr><tr><td>Hemoglobin [Presence] in Urine by Test strip</td><td>Urine blood test = negative</td><td></td><td></td></tr><tr><td>Leukocyte esterase [Presence] in Urine by Test strip</td><td>Urine leukocyte test negative</td><td></td><td></td></tr></tbody></table></div>"
                },
                "title": "Urinalysis"
              },
              {
                "code": {
                  "coding": [
                    {
                      "code": "$LP7846-1",
                      "system": "http://loinc.org",
                      "display": "Specimen information"
                    }
                  ],
                  "text": "Specimen information"
                },
                "entry": [
                  {
                    "reference": "urn:uuid:1eb36197-2785-4d50-bab2-4513fe397944"
                  },
                  {
                    "reference": "urn:uuid:10729079-aeab-41b6-9541-76c95b35a33a"
                  },
                  {
                    "reference": "urn:uuid:0763e6c7-909e-477e-ae69-4f5853afd301"
                  },
                  {
                    "reference": "urn:uuid:d4c42a7d-e49e-4acc-8710-27c9fb175c78"
                  }
                ],
                "text": {
                  "status": "generated",
                  "div": "<div xmlns=\"http://www.w3.org/1999/xhtml\"><h3>Specimen information</h3><table class=\"hl7__eu__lab__report\"><thead><tr><th>Test</th><th>20-DEC-2022</th><th>Specimen</th><th></th></tr></thead><tbody><tr><td>Appearance of Urine</td><td>Cloudy urine</td><td>Urine</td><td></td></tr><tr><td>Odor of Urine</td><td>Urine smell ammoniacal</td><td>Urine</td><td></td></tr><tr><td>Clarity of Urine</td><td>Translucent</td><td>Urine</td><td></td></tr><tr><td>Color of Urine</td><td>Brown color</td><td>Urine</td><td></td></tr></tbody></table></div>"
                },
                "title": "Specimen information"
              }
            ],
            "title": "Laboratory Report"
          },
          {
            "text": {
              "status": "generated",
              "div": "<div xmlns=\"http://www.w3.org/1999/xhtml\"><h3>Annotation</h3><table class=\"hl7__eu__lab__report\"><tr><th>Conclusion and Recommendations based on this report and previous findings known to us</th></tr><tr><td>The patient shows mild hypoglycemia, elevated serum creatinine suggesting possible renal impairment, and significant proteinuria, glycosuria, and ketonuria. Urine is brown, cloudy, and has low specific gravity, but no hematuria or leukocyturia. These findings may indicate impaired renal function, possible diabetic ketoacidosis, or other metabolic disturbances. Clinical correlation and further evaluation are recommended.</td></tr></table></div>"
            },
            "code": {
              "coding": [
                {
                  "system": "http://loinc.org",
                  "code": "48767-8",
                  "display": "Annotation comment"
                }
              ]
            },
            "title": "Annotation comment"
          }
        ],
        "status": "final",
        "subject": {
          "reference": "urn:uuid:b0a8bb74-228a-4c62-bdb4-e1da9bd562e3",
          "display": "Hortense Gallet"
        },
        "date": "2022-12-20T21:16:45Z",
        "title": "Laboratory Report",
        "confidentiality": "N"
      }
    },
    {
      "fullUrl": "urn:uuid:85cb1e1f-6759-40e4-98f0-ba742a93f464",
      "resource": {
        "resourceType": "DiagnosticReport",
        "id": "85cb1e1f-6759-40e4-98f0-ba742a93f464",
        "meta": {
          "profile": [
            "http://hl7.eu/fhir/laboratory/StructureDefinition/DiagnosticReport-eu-lab"
          ]
        },
        "identifier": [
          {
            "assigner": {
              "display": "HL7 Europe"
            },
            "system": "urn:oid:2.16.840.1.113883.2.51.999",
            "value": "efa0ae9e-9be8-4f3c-90fa-214d9903d181"
          }
        ],
        "extension": [
          {
            "url": "http://hl7.org/fhir/5.0/StructureDefinition/extension-DiagnosticReport.composition",
            "valueReference": {
              "reference": "urn:uuid:e27004f1-6bef-411e-81de-d9b1853cc161"
            }
          }
        ],
        "category": [
          {
            "coding": [
              {
                "code": "26436-6",
                "system": "http://loinc.org",
                "display": "Laboratory studies (set)"
              }
            ]
          }
        ],
        "specimen": [
          {
            "reference": "urn:uuid:735968cd-78ce-4b89-b5e9-68aaabb1668a"
          },
          {
            "reference": "urn:uuid:30598f8a-585b-4704-ab77-7ee402c97618"
          }
        ],
        "result": [
          {
            "reference": "urn:uuid:4c2e6b6c-69c8-4cd7-8b9d-b052ed69c68d"
          },
          {
            "reference": "urn:uuid:92dbcf99-110e-440d-9391-0cfb39ab03ee"
          },
          {
            "reference": "urn:uuid:ec881513-93e0-4442-92f9-c634ada6243c"
          },
          {
            "reference": "urn:uuid:769b460a-10e3-4fb7-904b-d3875ab1dcfd"
          },
          {
            "reference": "urn:uuid:44b6532c-037c-4dae-98ea-92e393f89140"
          },
          {
            "reference": "urn:uuid:813d6a91-7278-425a-894b-f376953f70b2"
          },
          {
            "reference": "urn:uuid:e3f1e949-0723-40a8-bbbb-7caed8b3d0be"
          },
          {
            "reference": "urn:uuid:97ce7e3d-d640-4f92-b5fd-ba7bda0227df"
          },
          {
            "reference": "urn:uuid:1eb36197-2785-4d50-bab2-4513fe397944"
          },
          {
            "reference": "urn:uuid:10729079-aeab-41b6-9541-76c95b35a33a"
          },
          {
            "reference": "urn:uuid:0763e6c7-909e-477e-ae69-4f5853afd301"
          },
          {
            "reference": "urn:uuid:d4c42a7d-e49e-4acc-8710-27c9fb175c78"
          },
          {
            "reference": "urn:uuid:81ba3133-ff01-4f03-996c-c9bcc1a95917"
          },
          {
            "reference": "urn:uuid:f2ac74db-a5c7-4228-bc87-f0776570a109"
          },
          {
            "reference": "urn:uuid:4a18d380-15b8-40a7-bb86-0f0a457a66c2"
          },
          {
            "reference": "urn:uuid:f4dc05c0-41ed-4331-b0a7-13e64cc0a028"
          },
          {
            "reference": "urn:uuid:e9f28d08-f7a4-495a-9933-9e6f1e01c1af"
          },
          {
            "reference": "urn:uuid:5a0d7c7f-7b7b-4408-a309-8e1f785f3273"
          },
          {
            "reference": "urn:uuid:5e48a67e-bc7e-4798-ae44-262a13414134"
          },
          {
            "reference": "urn:uuid:c6601595-f401-4807-9008-ae908529168e"
          },
          {
            "reference": "urn:uuid:efa57a53-451f-4608-8b0f-23e5ba039d0a"
          },
          {
            "reference": "urn:uuid:42172c8e-2cbf-4e27-b142-ffb97a489476"
          },
          {
            "reference": "urn:uuid:1fea8538-f33e-47ce-b31a-6c0f59f97a05"
          },
          {
            "reference": "urn:uuid:fc3264ed-ab0a-4096-8aa0-2e97fc3b0a2e"
          },
          {
            "reference": "urn:uuid:f7e1506d-d261-40c3-882a-0df68415bdcc"
          }
        ],
        "status": "registered",
        "code": {
          "coding": [
            {
              "code": "11502-2",
              "system": "http://loinc.org",
              "display": "Laboratory report"
            }
          ]
        },
        "subject": {
          "reference": "urn:uuid:b0a8bb74-228a-4c62-bdb4-e1da9bd562e3",
          "display": "Hortense Gallet"
        }
      }
    },
    {
      "fullUrl": "urn:uuid:b0a8bb74-228a-4c62-bdb4-e1da9bd562e3",
      "resource": {
        "resourceType": "Patient",
        "id": "b0a8bb74-228a-4c62-bdb4-e1da9bd562e3",
        "meta": {
          "security": [
            {
              "system": "http://terminology.hl7.org/CodeSystem/v3-ActReason",
              "code": "HTEST"
            },
            {
              "system": "http://terminology.hl7.org/CodeSystem/v3-ActReason",
              "code": "TRAIN"
            }
          ],
          "tag": [
            {
              "system": "https://synderai.net/fhir/CodeSystem/tags",
              "code": "synthetic",
              "display": "SYNDERAI Synthetic data"
            }
          ],
          "profile": [
            "http://hl7.eu/fhir/base/StructureDefinition/patient-eu-core"
          ]
        },
        "identifier": [
          {
            "type": {
              "coding": [
                {
                  "code": "PT",
                  "system": "http://terminology.hl7.org/CodeSystem/v2-0203"
                }
              ]
            },
            "system": "http://ec.europa.eu/identifier/eci",
            "value": "7727-126450-7"
          },
          {
            "type": {
              "coding": [
                {
                  "code": "MR",
                  "system": "http://terminology.hl7.org/CodeSystem/v2-0203"
                }
              ]
            },
            "system": "http://local.setting.eu/identifier",
            "value": "7f40b956-404d-dd5b-92ca-442ee97c8277"
          }
        ],
        "name": [
          {
            "family": "Gallet"
          },
          {
            "given": [
              "Hortense"
            ]
          },
          {
            "text": "Hortense Gallet"
          }
        ],
        "address": [
          {
            "line": [
              "98, boulevard de Faure"
            ],
            "use": "home",
            "type": "physical",
            "postalCode": "03210",
            "city": "Besson",
            "country": "France"
          }
        ],
        "telecom": [
          {
            "system": "phone",
            "value": "03 26 87 89 04"
          }
        ],
        "extension": [
          {
            "url": "http://hl7.org/fhir/StructureDefinition/patient-nationality",
            "valueCodeableConcept": {
              "coding": [
                {
                  "code": "FR",
                  "system": "http://hl7.org/fhir/ValueSet/country"
                }
              ]
            }
          }
        ],
        "text": {
          "status": "generated",
          "div": "<div xmlns=\"http://www.w3.org/1999/xhtml\"><table class=\"hl7__ips\"><tr><td>Hortense Gallet</td><td>female</td><td>14-Feb-1967</td></tr></table></div>"
        },
        "gender": "female",
        "birthDate": "1967-02-14"
      }
    },
    {
      "fullUrl": "urn:uuid:55f3166d-7405-47c6-b7f1-8cd148933e53",
      "resource": {
        "resourceType": "ServiceRequest",
        "id": "55f3166d-7405-47c6-b7f1-8cd148933e53",
        "meta": {
          "profile": [
            "http://hl7.eu/fhir/laboratory/StructureDefinition/ServiceRequest-eu-lab"
          ]
        },
        "identifier": [
          {
            "system": "http://example.org",
            "value": "cdaf637a-9c50-4e73-a51d-62395793dac1"
          }
        ],
        "specimen": [
          {
            "reference": "urn:uuid:735968cd-78ce-4b89-b5e9-68aaabb1668a"
          },
          {
            "reference": "urn:uuid:30598f8a-585b-4704-ab77-7ee402c97618"
          }
        ],
        "reasonCode": [
          {
            "coding": [
              {
                "code": "431856006",
                "system": "http://snomed.info/sct",
                "display": "Chronic kidney disease stage 2"
              }
            ]
          },
          {
            "coding": [
              {
                "code": "90781000119102",
                "system": "http://snomed.info/sct",
                "display": "Microalbuminuria due to type 2 diabetes mellitus"
              }
            ]
          },
          {
            "coding": [
              {
                "code": "127013003",
                "system": "http://snomed.info/sct",
                "display": "Disorder of kidney due to diabetes mellitus"
              }
            ]
          },
          {
            "coding": [
              {
                "code": "431855005",
                "system": "http://snomed.info/sct",
                "display": "Chronic kidney disease stage 1"
              }
            ]
          },
          {
            "coding": [
              {
                "code": "59621000",
                "system": "http://snomed.info/sct",
                "display": "Essential hypertension"
              }
            ]
          }
        ],
        "status": "active",
        "intent": "order",
        "code": {
          "coding": [
            {
              "code": "108252007",
              "system": "http://snomed.info/sct",
              "display": "Laboratory procedure"
            }
          ]
        },
        "subject": {
          "reference": "urn:uuid:b0a8bb74-228a-4c62-bdb4-e1da9bd562e3",
          "display": "Hortense Gallet"
        },
        "requester": {
          "reference": "urn:uuid:d923827e-3f55-4562-85f2-f410e3b5efc7"
        }
      }
    },
    {
      "fullUrl": "urn:uuid:d923827e-3f55-4562-85f2-f410e3b5efc7",
      "resource": {
        "resourceType": "PractitionerRole",
        "id": "d923827e-3f55-4562-85f2-f410e3b5efc7",
        "meta": {
          "profile": [
            "http://hl7.eu/fhir/base/StructureDefinition/practitionerRole-eu"
          ]
        },
        "text": {
          "status": "generated",
          "div": "<div xmlns=\"http://www.w3.org/1999/xhtml\">Provider Role Id: d923827e-3f55-4562-85f2-f410e3b5efc7</div>"
        },
        "organization": {
          "reference": "urn:uuid:904446d6-6dc4-446e-a253-85fafe035fe9"
        }
      }
    },
    {
      "fullUrl": "urn:uuid:904446d6-6dc4-446e-a253-85fafe035fe9",
      "resource": {
        "resourceType": "Organization",
        "id": "904446d6-6dc4-446e-a253-85fafe035fe9",
        "meta": {
          "profile": [
            "http://hl7.eu/fhir/base/StructureDefinition/organization-eu"
          ]
        },
        "identifier": [
          {
            "assigner": {
              "display": "HL7 Europe"
            },
            "system": "urn:oid:2.16.840.1.113883.2.51.999",
            "value": "4f358c0b-dc21-4982-8b9c-063d0ff1bed0"
          }
        ],
        "address": [
          {
            "line": [
              "Rue Jean Jaurès 140"
            ],
            "city": "Vichy",
            "postalCode": "03200",
            "country": "France"
          }
        ],
        "text": {
          "status": "generated",
          "div": "<div xmlns=\"http://www.w3.org/1999/xhtml\">Provider Organization: Centre La Chrysalide</div>"
        },
        "name": "Centre La Chrysalide"
      }
    },
    {
      "fullUrl": "urn:uuid:735968cd-78ce-4b89-b5e9-68aaabb1668a",
      "resource": {
        "resourceType": "Specimen",
        "id": "735968cd-78ce-4b89-b5e9-68aaabb1668a",
        "meta": {
          "profile": [
            "http://hl7.eu/fhir/laboratory/StructureDefinition/Specimen-eu-lab"
          ]
        },
        "collection": {
          "collectedDateTime": "2022-12-20"
        },
        "text": {
          "status": "generated",
          "div": "<div xmlns=\"http://www.w3.org/1999/xhtml\"><table class=\"hl7__eu__lab__report\"><tr><th>Specimen</th><th>Collection Date</th></tr><tr><td>Acellular blood (serum or plasma) specimen</td><td><span class=\"nb\">20-Dec-2022</span></td></tr></table></div>"
        },
        "type": {
          "coding": [
            {
              "code": "122592007",
              "system": "http://snomed.info/sct",
              "display": "Acellular blood (serum or plasma) specimen"
            }
          ]
        }
      }
    },
    {
      "fullUrl": "urn:uuid:30598f8a-585b-4704-ab77-7ee402c97618",
      "resource": {
        "resourceType": "Specimen",
        "id": "30598f8a-585b-4704-ab77-7ee402c97618",
        "meta": {
          "profile": [
            "http://hl7.eu/fhir/laboratory/StructureDefinition/Specimen-eu-lab"
          ]
        },
        "collection": {
          "collectedDateTime": "2022-12-20"
        },
        "text": {
          "status": "generated",
          "div": "<div xmlns=\"http://www.w3.org/1999/xhtml\"><table class=\"hl7__eu__lab__report\"><tr><th>Specimen</th><th>Collection Date</th></tr><tr><td>Urine specimen</td><td><span class=\"nb\">20-Dec-2022</span></td></tr></table></div>"
        },
        "type": {
          "coding": [
            {
              "code": "122575003",
              "system": "http://snomed.info/sct",
              "display": "Urine specimen"
            }
          ]
        }
      }
    },
    {
      "fullUrl": "urn:uuid:4c2e6b6c-69c8-4cd7-8b9d-b052ed69c68d",
      "resource": {
        "resourceType": "Observation",
        "id": "4c2e6b6c-69c8-4cd7-8b9d-b052ed69c68d",
        "meta": {
          "profile": [
            "http://hl7.eu/fhir/laboratory/StructureDefinition/Observation-resultslab-eu-lab"
          ]
        },
        "performer": [
          {
            "display": "The Central European Lab"
          }
        ],
        "category": [
          {
            "coding": [
              {
                "system": "http://terminology.hl7.org/CodeSystem/observation-category",
                "code": "laboratory"
              }
            ]
          }
        ],
        "code": {
          "coding": [
            {
              "code": "2345-7",
              "system": "http://loinc.org",
              "display": "Glucose [Mass/volume] in Serum or Plasma"
            }
          ],
          "text": "Glucose [Mass/volume] in Serum or Plasma"
        },
        "valueQuantity": {
          "system": "http://unitsofmeasure.org",
          "value": 65.4,
          "unit": "mg/dL",
          "code": "mg/dL"
        },
        "referenceRange": [
          {
            "low": {
              "value": 70,
              "code": "mg/dL",
              "system": "http://unitsofmeasure.org"
            }
          },
          {
            "high": {
              "value": 139,
              "code": "mg/dL",
              "system": "http://unitsofmeasure.org"
            }
          }
        ],
        "interpretation": [
          {
            "coding": [
              {
                "code": "L",
                "system": "http://terminology.hl7.org/CodeSystem/v3-ObservationInterpretation",
                "display": "Low"
              }
            ]
          }
        ],
        "text": {
          "status": "generated",
          "div": "<div xmlns=\"http://www.w3.org/1999/xhtml\"><table class=\"hl7__eu__lab__report\"><tr><th>Test</th><th>20-Dec-2022</th><th>Reference&#xA0;Range</th><th>Unit</th></tr><tr><td>Glucose [Mass/volume] in Serum or Plasma</td><td>65.4</td><td>70 - 139</td><td>L</td><td>mg/dL</td></tr></table></div>"
        },
        "status": "final",
        "subject": {
          "reference": "urn:uuid:b0a8bb74-228a-4c62-bdb4-e1da9bd562e3",
          "display": "Hortense Gallet"
        },
        "effectiveDateTime": "2022-12-20T20:16:45Z",
        "specimen": {
          "reference": "urn:uuid:735968cd-78ce-4b89-b5e9-68aaabb1668a"
        }
      }
    },
    {
      "fullUrl": "urn:uuid:92dbcf99-110e-440d-9391-0cfb39ab03ee",
      "resource": {
        "resourceType": "Observation",
        "id": "92dbcf99-110e-440d-9391-0cfb39ab03ee",
        "meta": {
          "profile": [
            "http://hl7.eu/fhir/laboratory/StructureDefinition/Observation-resultslab-eu-lab"
          ]
        },
        "performer": [
          {
            "display": "The Central European Lab"
          }
        ],
        "category": [
          {
            "coding": [
              {
                "system": "http://terminology.hl7.org/CodeSystem/observation-category",
                "code": "laboratory"
              }
            ]
          }
        ],
        "code": {
          "coding": [
            {
              "code": "3094-0",
              "system": "http://loinc.org",
              "display": "Urea nitrogen [Mass/volume] in Serum or Plasma"
            }
          ],
          "text": "Urea nitrogen [Mass/volume] in Serum or Plasma"
        },
        "valueQuantity": {
          "system": "http://unitsofmeasure.org",
          "value": 11.5,
          "unit": "mg/dL",
          "code": "mg/dL"
        },
        "referenceRange": [
          {
            "low": {
              "value": 7,
              "code": "mg/dL",
              "system": "http://unitsofmeasure.org"
            }
          },
          {
            "high": {
              "value": 20,
              "code": "mg/dL",
              "system": "http://unitsofmeasure.org"
            }
          }
        ],
        "text": {
          "status": "generated",
          "div": "<div xmlns=\"http://www.w3.org/1999/xhtml\"><table class=\"hl7__eu__lab__report\"><tr><th>Test</th><th>20-Dec-2022</th><th>Reference&#xA0;Range</th><th>Unit</th></tr><tr><td>Urea nitrogen [Mass/volume] in Serum or Plasma</td><td>11.5</td><td>7 - 20</td><td></td><td>mg/dL</td></tr></table></div>"
        },
        "status": "final",
        "subject": {
          "reference": "urn:uuid:b0a8bb74-228a-4c62-bdb4-e1da9bd562e3",
          "display": "Hortense Gallet"
        },
        "effectiveDateTime": "2022-12-20T20:16:45Z",
        "specimen": {
          "reference": "urn:uuid:735968cd-78ce-4b89-b5e9-68aaabb1668a"
        }
      }
    },
    {
      "fullUrl": "urn:uuid:ec881513-93e0-4442-92f9-c634ada6243c",
      "resource": {
        "resourceType": "Observation",
        "id": "ec881513-93e0-4442-92f9-c634ada6243c",
        "meta": {
          "profile": [
            "http://hl7.eu/fhir/laboratory/StructureDefinition/Observation-resultslab-eu-lab"
          ]
        },
        "performer": [
          {
            "display": "The Central European Lab"
          }
        ],
        "category": [
          {
            "coding": [
              {
                "system": "http://terminology.hl7.org/CodeSystem/observation-category",
                "code": "laboratory"
              }
            ]
          }
        ],
        "code": {
          "coding": [
            {
              "code": "2160-0",
              "system": "http://loinc.org",
              "display": "Creatinine [Mass/volume] in Serum or Plasma"
            }
          ],
          "text": "Creatinine [Mass/volume] in Serum or Plasma"
        },
        "valueQuantity": {
          "system": "http://unitsofmeasure.org",
          "value": 1.4,
          "unit": "mg/dL",
          "code": "mg/dL"
        },
        "referenceRange": [
          {
            "low": {
              "value": 0.6,
              "code": "mg/dL",
              "system": "http://unitsofmeasure.org"
            }
          },
          {
            "high": {
              "value": 1.1,
              "code": "mg/dL",
              "system": "http://unitsofmeasure.org"
            }
          }
        ],
        "interpretation": [
          {
            "coding": [
              {
                "code": "H",
                "system": "http://terminology.hl7.org/CodeSystem/v3-ObservationInterpretation",
                "display": "High"
              }
            ]
          }
        ],
        "text": {
          "status": "generated",
          "div": "<div xmlns=\"http://www.w3.org/1999/xhtml\"><table class=\"hl7__eu__lab__report\"><tr><th>Test</th><th>20-Dec-2022</th><th>Reference&#xA0;Range</th><th>Unit</th></tr><tr><td>Creatinine [Mass/volume] in Serum or Plasma</td><td>1.4</td><td>0.6 - 1.1</td><td>H</td><td>mg/dL</td></tr></table></div>"
        },
        "status": "final",
        "subject": {
          "reference": "urn:uuid:b0a8bb74-228a-4c62-bdb4-e1da9bd562e3",
          "display": "Hortense Gallet"
        },
        "effectiveDateTime": "2022-12-20T20:16:45Z",
        "specimen": {
          "reference": "urn:uuid:735968cd-78ce-4b89-b5e9-68aaabb1668a"
        }
      }
    },
    {
      "fullUrl": "urn:uuid:769b460a-10e3-4fb7-904b-d3875ab1dcfd",
      "resource": {
        "resourceType": "Observation",
        "id": "769b460a-10e3-4fb7-904b-d3875ab1dcfd",
        "meta": {
          "profile": [
            "http://hl7.eu/fhir/laboratory/StructureDefinition/Observation-resultslab-eu-lab"
          ]
        },
        "performer": [
          {
            "display": "The Central European Lab"
          }
        ],
        "category": [
          {
            "coding": [
              {
                "system": "http://terminology.hl7.org/CodeSystem/observation-category",
                "code": "laboratory"
              }
            ]
          }
        ],
        "code": {
          "coding": [
            {
              "code": "17861-6",
              "system": "http://loinc.org",
              "display": "Calcium [Mass/volume] in Serum or Plasma"
            }
          ],
          "text": "Calcium [Mass/volume] in Serum or Plasma"
        },
        "valueQuantity": {
          "system": "http://unitsofmeasure.org",
          "value": 10.1,
          "unit": "mg/dL",
          "code": "mg/dL"
        },
        "referenceRange": [
          {
            "low": {
              "value": 8.5,
              "code": "mg/dL",
              "system": "http://unitsofmeasure.org"
            }
          },
          {
            "high": {
              "value": 10.4,
              "code": "mg/dL",
              "system": "http://unitsofmeasure.org"
            }
          }
        ],
        "text": {
          "status": "generated",
          "div": "<div xmlns=\"http://www.w3.org/1999/xhtml\"><table class=\"hl7__eu__lab__report\"><tr><th>Test</th><th>20-Dec-2022</th><th>Reference&#xA0;Range</th><th>Unit</th></tr><tr><td>Calcium [Mass/volume] in Serum or Plasma</td><td>10.1</td><td>8.5 - 10.4</td><td></td><td>mg/dL</td></tr></table></div>"
        },
        "status": "final",
        "subject": {
          "reference": "urn:uuid:b0a8bb74-228a-4c62-bdb4-e1da9bd562e3",
          "display": "Hortense Gallet"
        },
        "effectiveDateTime": "2022-12-20T20:16:45Z",
        "specimen": {
          "reference": "urn:uuid:735968cd-78ce-4b89-b5e9-68aaabb1668a"
        }
      }
    },
    {
      "fullUrl": "urn:uuid:44b6532c-037c-4dae-98ea-92e393f89140",
      "resource": {
        "resourceType": "Observation",
        "id": "44b6532c-037c-4dae-98ea-92e393f89140",
        "meta": {
          "profile": [
            "http://hl7.eu/fhir/laboratory/StructureDefinition/Observation-resultslab-eu-lab"
          ]
        },
        "performer": [
          {
            "display": "The Central European Lab"
          }
        ],
        "category": [
          {
            "coding": [
              {
                "system": "http://terminology.hl7.org/CodeSystem/observation-category",
                "code": "laboratory"
              }
            ]
          }
        ],
        "code": {
          "coding": [
            {
              "code": "2951-2",
              "system": "http://loinc.org",
              "display": "Sodium [Moles/volume] in Serum or Plasma"
            }
          ],
          "text": "Sodium [Moles/volume] in Serum or Plasma"
        },
        "valueQuantity": {
          "system": "http://unitsofmeasure.org",
          "value": 137.3,
          "unit": "mmol/L",
          "code": "mmol/L"
        },
        "referenceRange": [
          {
            "low": {
              "value": 135,
              "code": "mmol/L",
              "system": "http://unitsofmeasure.org"
            }
          },
          {
            "high": {
              "value": 145,
              "code": "mmol/L",
              "system": "http://unitsofmeasure.org"
            }
          }
        ],
        "text": {
          "status": "generated",
          "div": "<div xmlns=\"http://www.w3.org/1999/xhtml\"><table class=\"hl7__eu__lab__report\"><tr><th>Test</th><th>20-Dec-2022</th><th>Reference&#xA0;Range</th><th>Unit</th></tr><tr><td>Sodium [Moles/volume] in Serum or Plasma</td><td>137.3</td><td>135 - 145</td><td></td><td>mmol/L</td></tr></table></div>"
        },
        "status": "final",
        "subject": {
          "reference": "urn:uuid:b0a8bb74-228a-4c62-bdb4-e1da9bd562e3",
          "display": "Hortense Gallet"
        },
        "effectiveDateTime": "2022-12-20T20:16:45Z",
        "specimen": {
          "reference": "urn:uuid:735968cd-78ce-4b89-b5e9-68aaabb1668a"
        }
      }
    },
    {
      "fullUrl": "urn:uuid:813d6a91-7278-425a-894b-f376953f70b2",
      "resource": {
        "resourceType": "Observation",
        "id": "813d6a91-7278-425a-894b-f376953f70b2",
        "meta": {
          "profile": [
            "http://hl7.eu/fhir/laboratory/StructureDefinition/Observation-resultslab-eu-lab"
          ]
        },
        "performer": [
          {
            "display": "The Central European Lab"
          }
        ],
        "category": [
          {
            "coding": [
              {
                "system": "http://terminology.hl7.org/CodeSystem/observation-category",
                "code": "laboratory"
              }
            ]
          }
        ],
        "code": {
          "coding": [
            {
              "code": "2823-3",
              "system": "http://loinc.org",
              "display": "Potassium [Moles/volume] in Serum or Plasma"
            }
          ],
          "text": "Potassium [Moles/volume] in Serum or Plasma"
        },
        "valueQuantity": {
          "system": "http://unitsofmeasure.org",
          "value": 4.7,
          "unit": "mmol/L",
          "code": "mmol/L"
        },
        "referenceRange": [
          {
            "low": {
              "value": 3.5,
              "code": "mmol/L",
              "system": "http://unitsofmeasure.org"
            }
          },
          {
            "high": {
              "value": 5.1,
              "code": "mmol/L",
              "system": "http://unitsofmeasure.org"
            }
          }
        ],
        "text": {
          "status": "generated",
          "div": "<div xmlns=\"http://www.w3.org/1999/xhtml\"><table class=\"hl7__eu__lab__report\"><tr><th>Test</th><th>20-Dec-2022</th><th>Reference&#xA0;Range</th><th>Unit</th></tr><tr><td>Potassium [Moles/volume] in Serum or Plasma</td><td>4.7</td><td>3.5 - 5.1</td><td></td><td>mmol/L</td></tr></table></div>"
        },
        "status": "final",
        "subject": {
          "reference": "urn:uuid:b0a8bb74-228a-4c62-bdb4-e1da9bd562e3",
          "display": "Hortense Gallet"
        },
        "effectiveDateTime": "2022-12-20T20:16:45Z",
        "specimen": {
          "reference": "urn:uuid:735968cd-78ce-4b89-b5e9-68aaabb1668a"
        }
      }
    },
    {
      "fullUrl": "urn:uuid:e3f1e949-0723-40a8-bbbb-7caed8b3d0be",
      "resource": {
        "resourceType": "Observation",
        "id": "e3f1e949-0723-40a8-bbbb-7caed8b3d0be",
        "meta": {
          "profile": [
            "http://hl7.eu/fhir/laboratory/StructureDefinition/Observation-resultslab-eu-lab"
          ]
        },
        "performer": [
          {
            "display": "The Central European Lab"
          }
        ],
        "category": [
          {
            "coding": [
              {
                "system": "http://terminology.hl7.org/CodeSystem/observation-category",
                "code": "laboratory"
              }
            ]
          }
        ],
        "code": {
          "coding": [
            {
              "code": "2075-0",
              "system": "http://loinc.org",
              "display": "Chloride [Moles/volume] in Serum or Plasma"
            }
          ],
          "text": "Chloride [Moles/volume] in Serum or Plasma"
        },
        "valueQuantity": {
          "system": "http://unitsofmeasure.org",
          "value": 106.8,
          "unit": "mmol/L",
          "code": "mmol/L"
        },
        "referenceRange": [
          {
            "low": {
              "value": 98,
              "code": "mmol/L",
              "system": "http://unitsofmeasure.org"
            }
          },
          {
            "high": {
              "value": 110,
              "code": "mmol/L",
              "system": "http://unitsofmeasure.org"
            }
          }
        ],
        "text": {
          "status": "generated",
          "div": "<div xmlns=\"http://www.w3.org/1999/xhtml\"><table class=\"hl7__eu__lab__report\"><tr><th>Test</th><th>20-Dec-2022</th><th>Reference&#xA0;Range</th><th>Unit</th></tr><tr><td>Chloride [Moles/volume] in Serum or Plasma</td><td>106.8</td><td>98 - 110</td><td></td><td>mmol/L</td></tr></table></div>"
        },
        "status": "final",
        "subject": {
          "reference": "urn:uuid:b0a8bb74-228a-4c62-bdb4-e1da9bd562e3",
          "display": "Hortense Gallet"
        },
        "effectiveDateTime": "2022-12-20T20:16:45Z",
        "specimen": {
          "reference": "urn:uuid:735968cd-78ce-4b89-b5e9-68aaabb1668a"
        }
      }
    },
    {
      "fullUrl": "urn:uuid:97ce7e3d-d640-4f92-b5fd-ba7bda0227df",
      "resource": {
        "resourceType": "Observation",
        "id": "97ce7e3d-d640-4f92-b5fd-ba7bda0227df",
        "meta": {
          "profile": [
            "http://hl7.eu/fhir/laboratory/StructureDefinition/Observation-resultslab-eu-lab"
          ]
        },
        "performer": [
          {
            "display": "The Central European Lab"
          }
        ],
        "category": [
          {
            "coding": [
              {
                "system": "http://terminology.hl7.org/CodeSystem/observation-category",
                "code": "laboratory"
              }
            ]
          }
        ],
        "code": {
          "coding": [
            {
              "code": "2028-9",
              "system": "http://loinc.org",
              "display": "Carbon dioxide, total [Moles/volume] in Serum or Plasma"
            }
          ],
          "text": "Carbon dioxide, total [Moles/volume] in Serum or Plasma"
        },
        "valueQuantity": {
          "system": "http://unitsofmeasure.org",
          "value": 23.5,
          "unit": "mmol/L",
          "code": "mmol/L"
        },
        "referenceRange": [
          {
            "low": {
              "value": 22,
              "code": "mmol/L",
              "system": "http://unitsofmeasure.org"
            }
          },
          {
            "high": {
              "value": 32,
              "code": "mmol/L",
              "system": "http://unitsofmeasure.org"
            }
          }
        ],
        "text": {
          "status": "generated",
          "div": "<div xmlns=\"http://www.w3.org/1999/xhtml\"><table class=\"hl7__eu__lab__report\"><tr><th>Test</th><th>20-Dec-2022</th><th>Reference&#xA0;Range</th><th>Unit</th></tr><tr><td>Carbon dioxide, total [Moles/volume] in Serum or Plasma</td><td>23.5</td><td>22 - 32</td><td></td><td>mmol/L</td></tr></table></div>"
        },
        "status": "final",
        "subject": {
          "reference": "urn:uuid:b0a8bb74-228a-4c62-bdb4-e1da9bd562e3",
          "display": "Hortense Gallet"
        },
        "effectiveDateTime": "2022-12-20T20:16:45Z",
        "specimen": {
          "reference": "urn:uuid:735968cd-78ce-4b89-b5e9-68aaabb1668a"
        }
      }
    },
    {
      "fullUrl": "urn:uuid:1eb36197-2785-4d50-bab2-4513fe397944",
      "resource": {
        "resourceType": "Observation",
        "id": "1eb36197-2785-4d50-bab2-4513fe397944",
        "meta": {
          "profile": [
            "http://hl7.eu/fhir/laboratory/StructureDefinition/Observation-resultslab-eu-lab"
          ]
        },
        "performer": [
          {
            "display": "The Central European Lab"
          }
        ],
        "category": [
          {
            "coding": [
              {
                "system": "http://terminology.hl7.org/CodeSystem/observation-category",
                "code": "laboratory"
              }
            ]
          }
        ],
        "code": {
          "coding": [
            {
              "code": "5767-9",
              "system": "http://loinc.org",
              "display": "Appearance of Urine"
            }
          ],
          "text": "Appearance of Urine"
        },
        "text": {
          "status": "generated",
          "div": "<div xmlns=\"http://www.w3.org/1999/xhtml\"><table class=\"hl7__eu__lab__report\"><tr><th>Test</th><th>20-Dec-2022</th><th>Reference&#xA0;Range</th><th>Unit</th></tr><tr><td>Appearance of Urine</td></tr></table></div>"
        },
        "status": "final",
        "subject": {
          "reference": "urn:uuid:b0a8bb74-228a-4c62-bdb4-e1da9bd562e3",
          "display": "Hortense Gallet"
        },
        "effectiveDateTime": "2022-12-20T20:16:45Z",
        "specimen": {
          "reference": "urn:uuid:30598f8a-585b-4704-ab77-7ee402c97618"
        }
      }
    },
    {
      "fullUrl": "urn:uuid:10729079-aeab-41b6-9541-76c95b35a33a",
      "resource": {
        "resourceType": "Observation",
        "id": "10729079-aeab-41b6-9541-76c95b35a33a",
        "meta": {
          "profile": [
            "http://hl7.eu/fhir/laboratory/StructureDefinition/Observation-resultslab-eu-lab"
          ]
        },
        "performer": [
          {
            "display": "The Central European Lab"
          }
        ],
        "category": [
          {
            "coding": [
              {
                "system": "http://terminology.hl7.org/CodeSystem/observation-category",
                "code": "laboratory"
              }
            ]
          }
        ],
        "code": {
          "coding": [
            {
              "code": "34533-0",
              "system": "http://loinc.org",
              "display": "Odor of Urine"
            }
          ],
          "text": "Odor of Urine"
        },
        "text": {
          "status": "generated",
          "div": "<div xmlns=\"http://www.w3.org/1999/xhtml\"><table class=\"hl7__eu__lab__report\"><tr><th>Test</th><th>20-Dec-2022</th><th>Reference&#xA0;Range</th><th>Unit</th></tr><tr><td>Odor of Urine</td></tr></table></div>"
        },
        "status": "final",
        "subject": {
          "reference": "urn:uuid:b0a8bb74-228a-4c62-bdb4-e1da9bd562e3",
          "display": "Hortense Gallet"
        },
        "effectiveDateTime": "2022-12-20T20:16:45Z",
        "specimen": {
          "reference": "urn:uuid:30598f8a-585b-4704-ab77-7ee402c97618"
        }
      }
    },
    {
      "fullUrl": "urn:uuid:0763e6c7-909e-477e-ae69-4f5853afd301",
      "resource": {
        "resourceType": "Observation",
        "id": "0763e6c7-909e-477e-ae69-4f5853afd301",
        "meta": {
          "profile": [
            "http://hl7.eu/fhir/laboratory/StructureDefinition/Observation-resultslab-eu-lab"
          ]
        },
        "performer": [
          {
            "display": "The Central European Lab"
          }
        ],
        "category": [
          {
            "coding": [
              {
                "system": "http://terminology.hl7.org/CodeSystem/observation-category",
                "code": "laboratory"
              }
            ]
          }
        ],
        "code": {
          "coding": [
            {
              "code": "32167-9",
              "system": "http://loinc.org",
              "display": "Clarity of Urine"
            }
          ],
          "text": "Clarity of Urine"
        },
        "text": {
          "status": "generated",
          "div": "<div xmlns=\"http://www.w3.org/1999/xhtml\"><table class=\"hl7__eu__lab__report\"><tr><th>Test</th><th>20-Dec-2022</th><th>Reference&#xA0;Range</th><th>Unit</th></tr><tr><td>Clarity of Urine</td></tr></table></div>"
        },
        "status": "final",
        "subject": {
          "reference": "urn:uuid:b0a8bb74-228a-4c62-bdb4-e1da9bd562e3",
          "display": "Hortense Gallet"
        },
        "effectiveDateTime": "2022-12-20T20:16:45Z",
        "specimen": {
          "reference": "urn:uuid:30598f8a-585b-4704-ab77-7ee402c97618"
        }
      }
    },
    {
      "fullUrl": "urn:uuid:d4c42a7d-e49e-4acc-8710-27c9fb175c78",
      "resource": {
        "resourceType": "Observation",
        "id": "d4c42a7d-e49e-4acc-8710-27c9fb175c78",
        "meta": {
          "profile": [
            "http://hl7.eu/fhir/laboratory/StructureDefinition/Observation-resultslab-eu-lab"
          ]
        },
        "performer": [
          {
            "display": "The Central European Lab"
          }
        ],
        "category": [
          {
            "coding": [
              {
                "system": "http://terminology.hl7.org/CodeSystem/observation-category",
                "code": "laboratory"
              }
            ]
          }
        ],
        "code": {
          "coding": [
            {
              "code": "5778-6",
              "system": "http://loinc.org",
              "display": "Color of Urine"
            }
          ],
          "text": "Color of Urine"
        },
        "text": {
          "status": "generated",
          "div": "<div xmlns=\"http://www.w3.org/1999/xhtml\"><table class=\"hl7__eu__lab__report\"><tr><th>Test</th><th>20-Dec-2022</th><th>Reference&#xA0;Range</th><th>Unit</th></tr><tr><td>Color of Urine</td></tr></table></div>"
        },
        "status": "final",
        "subject": {
          "reference": "urn:uuid:b0a8bb74-228a-4c62-bdb4-e1da9bd562e3",
          "display": "Hortense Gallet"
        },
        "effectiveDateTime": "2022-12-20T20:16:45Z",
        "specimen": {
          "reference": "urn:uuid:30598f8a-585b-4704-ab77-7ee402c97618"
        }
      }
    },
    {
      "fullUrl": "urn:uuid:81ba3133-ff01-4f03-996c-c9bcc1a95917",
      "resource": {
        "resourceType": "Observation",
        "id": "81ba3133-ff01-4f03-996c-c9bcc1a95917",
        "meta": {
          "profile": [
            "http://hl7.eu/fhir/laboratory/StructureDefinition/Observation-resultslab-eu-lab"
          ]
        },
        "performer": [
          {
            "display": "The Central European Lab"
          }
        ],
        "category": [
          {
            "coding": [
              {
                "system": "http://terminology.hl7.org/CodeSystem/observation-category",
                "code": "laboratory"
              }
            ]
          }
        ],
        "code": {
          "coding": [
            {
              "code": "5792-7",
              "system": "http://loinc.org",
              "display": "Glucose [Mass/volume] in Urine by Test strip"
            }
          ],
          "text": "Glucose [Mass/volume] in Urine by Test strip"
        },
        "valueQuantity": {
          "system": "http://unitsofmeasure.org",
          "value": 1.4,
          "unit": "mg/dL",
          "code": "mg/dL"
        },
        "referenceRange": [
          {
            "low": {
              "value": 0,
              "code": "mg/dL",
              "system": "http://unitsofmeasure.org"
            }
          },
          {
            "high": {
              "value": 0,
              "code": "mg/dL",
              "system": "http://unitsofmeasure.org"
            }
          }
        ],
        "interpretation": [
          {
            "coding": [
              {
                "code": "H",
                "system": "http://terminology.hl7.org/CodeSystem/v3-ObservationInterpretation",
                "display": "High"
              }
            ]
          }
        ],
        "text": {
          "status": "generated",
          "div": "<div xmlns=\"http://www.w3.org/1999/xhtml\"><table class=\"hl7__eu__lab__report\"><tr><th>Test</th><th>20-Dec-2022</th><th>Reference&#xA0;Range</th><th>Unit</th></tr><tr><td>Glucose [Mass/volume] in Urine by Test strip</td><td>1.4</td><td>0 - 0</td><td>H</td><td>mg/dL</td></tr></table></div>"
        },
        "status": "final",
        "subject": {
          "reference": "urn:uuid:b0a8bb74-228a-4c62-bdb4-e1da9bd562e3",
          "display": "Hortense Gallet"
        },
        "effectiveDateTime": "2022-12-20T20:16:45Z",
        "specimen": {
          "reference": "urn:uuid:30598f8a-585b-4704-ab77-7ee402c97618"
        }
      }
    },
    {
      "fullUrl": "urn:uuid:f2ac74db-a5c7-4228-bc87-f0776570a109",
      "resource": {
        "resourceType": "Observation",
        "id": "f2ac74db-a5c7-4228-bc87-f0776570a109",
        "meta": {
          "profile": [
            "http://hl7.eu/fhir/laboratory/StructureDefinition/Observation-resultslab-eu-lab"
          ]
        },
        "performer": [
          {
            "display": "The Central European Lab"
          }
        ],
        "category": [
          {
            "coding": [
              {
                "system": "http://terminology.hl7.org/CodeSystem/observation-category",
                "code": "laboratory"
              }
            ]
          }
        ],
        "code": {
          "coding": [
            {
              "code": "25428-4",
              "system": "http://loinc.org",
              "display": "Glucose [Presence] in Urine by Test strip"
            }
          ],
          "text": "Glucose [Presence] in Urine by Test strip"
        },
        "text": {
          "status": "generated",
          "div": "<div xmlns=\"http://www.w3.org/1999/xhtml\"><table class=\"hl7__eu__lab__report\"><tr><th>Test</th><th>20-Dec-2022</th><th>Reference&#xA0;Range</th><th>Unit</th></tr><tr><td>Glucose [Presence] in Urine by Test strip</td></tr></table></div>"
        },
        "status": "final",
        "subject": {
          "reference": "urn:uuid:b0a8bb74-228a-4c62-bdb4-e1da9bd562e3",
          "display": "Hortense Gallet"
        },
        "effectiveDateTime": "2022-12-20T20:16:45Z",
        "specimen": {
          "reference": "urn:uuid:30598f8a-585b-4704-ab77-7ee402c97618"
        }
      }
    },
    {
      "fullUrl": "urn:uuid:4a18d380-15b8-40a7-bb86-0f0a457a66c2",
      "resource": {
        "resourceType": "Observation",
        "id": "4a18d380-15b8-40a7-bb86-0f0a457a66c2",
        "meta": {
          "profile": [
            "http://hl7.eu/fhir/laboratory/StructureDefinition/Observation-resultslab-eu-lab"
          ]
        },
        "performer": [
          {
            "display": "The Central European Lab"
          }
        ],
        "category": [
          {
            "coding": [
              {
                "system": "http://terminology.hl7.org/CodeSystem/observation-category",
                "code": "laboratory"
              }
            ]
          }
        ],
        "code": {
          "coding": [
            {
              "code": "20505-4",
              "system": "http://loinc.org",
              "display": "Bilirubin.total [Mass/volume] in Urine by Test strip"
            }
          ],
          "text": "Bilirubin.total [Mass/volume] in Urine by Test strip"
        },
        "valueQuantity": {
          "system": "http://unitsofmeasure.org",
          "value": 1.1,
          "unit": "mg/dL",
          "code": "mg/dL"
        },
        "referenceRange": [
          {
            "low": {
              "value": 0,
              "code": "mg/dL",
              "system": "http://unitsofmeasure.org"
            }
          },
          {
            "high": {
              "value": 1.6,
              "code": "mg/dL",
              "system": "http://unitsofmeasure.org"
            }
          }
        ],
        "text": {
          "status": "generated",
          "div": "<div xmlns=\"http://www.w3.org/1999/xhtml\"><table class=\"hl7__eu__lab__report\"><tr><th>Test</th><th>20-Dec-2022</th><th>Reference&#xA0;Range</th><th>Unit</th></tr><tr><td>Bilirubin.total [Mass/volume] in Urine by Test strip</td><td>1.1</td><td>0 - 1.6</td><td></td><td>mg/dL</td></tr></table></div>"
        },
        "status": "final",
        "subject": {
          "reference": "urn:uuid:b0a8bb74-228a-4c62-bdb4-e1da9bd562e3",
          "display": "Hortense Gallet"
        },
        "effectiveDateTime": "2022-12-20T20:16:45Z",
        "specimen": {
          "reference": "urn:uuid:30598f8a-585b-4704-ab77-7ee402c97618"
        }
      }
    },
    {
      "fullUrl": "urn:uuid:f4dc05c0-41ed-4331-b0a7-13e64cc0a028",
      "resource": {
        "resourceType": "Observation",
        "id": "f4dc05c0-41ed-4331-b0a7-13e64cc0a028",
        "meta": {
          "profile": [
            "http://hl7.eu/fhir/laboratory/StructureDefinition/Observation-resultslab-eu-lab"
          ]
        },
        "performer": [
          {
            "display": "The Central European Lab"
          }
        ],
        "category": [
          {
            "coding": [
              {
                "system": "http://terminology.hl7.org/CodeSystem/observation-category",
                "code": "laboratory"
              }
            ]
          }
        ],
        "code": {
          "coding": [
            {
              "code": "5770-3",
              "system": "http://loinc.org",
              "display": "Bilirubin.total [Presence] in Urine by Test strip"
            }
          ],
          "text": "Bilirubin.total [Presence] in Urine by Test strip"
        },
        "text": {
          "status": "generated",
          "div": "<div xmlns=\"http://www.w3.org/1999/xhtml\"><table class=\"hl7__eu__lab__report\"><tr><th>Test</th><th>20-Dec-2022</th><th>Reference&#xA0;Range</th><th>Unit</th></tr><tr><td>Bilirubin.total [Presence] in Urine by Test strip</td></tr></table></div>"
        },
        "status": "final",
        "subject": {
          "reference": "urn:uuid:b0a8bb74-228a-4c62-bdb4-e1da9bd562e3",
          "display": "Hortense Gallet"
        },
        "effectiveDateTime": "2022-12-20T20:16:45Z",
        "specimen": {
          "reference": "urn:uuid:30598f8a-585b-4704-ab77-7ee402c97618"
        }
      }
    },
    {
      "fullUrl": "urn:uuid:e9f28d08-f7a4-495a-9933-9e6f1e01c1af",
      "resource": {
        "resourceType": "Observation",
        "id": "e9f28d08-f7a4-495a-9933-9e6f1e01c1af",
        "meta": {
          "profile": [
            "http://hl7.eu/fhir/laboratory/StructureDefinition/Observation-resultslab-eu-lab"
          ]
        },
        "performer": [
          {
            "display": "The Central European Lab"
          }
        ],
        "category": [
          {
            "coding": [
              {
                "system": "http://terminology.hl7.org/CodeSystem/observation-category",
                "code": "laboratory"
              }
            ]
          }
        ],
        "code": {
          "coding": [
            {
              "code": "5797-6",
              "system": "http://loinc.org",
              "display": "Ketones [Mass/volume] in Urine by Test strip"
            }
          ],
          "text": "Ketones [Mass/volume] in Urine by Test strip"
        },
        "valueQuantity": {
          "system": "http://unitsofmeasure.org",
          "value": 3.8,
          "unit": "mg/dL",
          "code": "mg/dL"
        },
        "referenceRange": [
          {
            "low": {
              "value": 0,
              "code": "mg/dL",
              "system": "http://unitsofmeasure.org"
            }
          },
          {
            "high": {
              "value": 0.5,
              "code": "mg/dL",
              "system": "http://unitsofmeasure.org"
            }
          }
        ],
        "interpretation": [
          {
            "coding": [
              {
                "code": "H",
                "system": "http://terminology.hl7.org/CodeSystem/v3-ObservationInterpretation",
                "display": "High"
              }
            ]
          }
        ],
        "text": {
          "status": "generated",
          "div": "<div xmlns=\"http://www.w3.org/1999/xhtml\"><table class=\"hl7__eu__lab__report\"><tr><th>Test</th><th>20-Dec-2022</th><th>Reference&#xA0;Range</th><th>Unit</th></tr><tr><td>Ketones [Mass/volume] in Urine by Test strip</td><td>3.8</td><td>0 - 0.5</td><td>H</td><td>mg/dL</td></tr></table></div>"
        },
        "status": "final",
        "subject": {
          "reference": "urn:uuid:b0a8bb74-228a-4c62-bdb4-e1da9bd562e3",
          "display": "Hortense Gallet"
        },
        "effectiveDateTime": "2022-12-20T20:16:45Z",
        "specimen": {
          "reference": "urn:uuid:30598f8a-585b-4704-ab77-7ee402c97618"
        }
      }
    },
    {
      "fullUrl": "urn:uuid:5a0d7c7f-7b7b-4408-a309-8e1f785f3273",
      "resource": {
        "resourceType": "Observation",
        "id": "5a0d7c7f-7b7b-4408-a309-8e1f785f3273",
        "meta": {
          "profile": [
            "http://hl7.eu/fhir/laboratory/StructureDefinition/Observation-resultslab-eu-lab"
          ]
        },
        "performer": [
          {
            "display": "The Central European Lab"
          }
        ],
        "category": [
          {
            "coding": [
              {
                "system": "http://terminology.hl7.org/CodeSystem/observation-category",
                "code": "laboratory"
              }
            ]
          }
        ],
        "code": {
          "coding": [
            {
              "code": "2514-8",
              "system": "http://loinc.org",
              "display": "Ketones [Presence] in Urine by Test strip"
            }
          ],
          "text": "Ketones [Presence] in Urine by Test strip"
        },
        "text": {
          "status": "generated",
          "div": "<div xmlns=\"http://www.w3.org/1999/xhtml\"><table class=\"hl7__eu__lab__report\"><tr><th>Test</th><th>20-Dec-2022</th><th>Reference&#xA0;Range</th><th>Unit</th></tr><tr><td>Ketones [Presence] in Urine by Test strip</td></tr></table></div>"
        },
        "status": "final",
        "subject": {
          "reference": "urn:uuid:b0a8bb74-228a-4c62-bdb4-e1da9bd562e3",
          "display": "Hortense Gallet"
        },
        "effectiveDateTime": "2022-12-20T20:16:45Z",
        "specimen": {
          "reference": "urn:uuid:30598f8a-585b-4704-ab77-7ee402c97618"
        }
      }
    },
    {
      "fullUrl": "urn:uuid:5e48a67e-bc7e-4798-ae44-262a13414134",
      "resource": {
        "resourceType": "Observation",
        "id": "5e48a67e-bc7e-4798-ae44-262a13414134",
        "meta": {
          "profile": [
            "http://hl7.eu/fhir/laboratory/StructureDefinition/Observation-resultslab-eu-lab"
          ]
        },
        "performer": [
          {
            "display": "The Central European Lab"
          }
        ],
        "category": [
          {
            "coding": [
              {
                "system": "http://terminology.hl7.org/CodeSystem/observation-category",
                "code": "laboratory"
              }
            ]
          }
        ],
        "code": {
          "coding": [
            {
              "code": "5811-5",
              "system": "http://loinc.org",
              "display": "Specific gravity of Urine by Test strip"
            }
          ],
          "text": "Specific gravity of Urine by Test strip"
        },
        "valueQuantity": {
          "system": "http://unitsofmeasure.org",
          "value": 1,
          "unit": "{nominal}",
          "code": "{nominal}"
        },
        "referenceRange": [
          {
            "low": {
              "value": 1.005,
              "code": "g/mL",
              "system": "http://unitsofmeasure.org"
            }
          },
          {
            "high": {
              "value": 1.03,
              "code": "g/mL",
              "system": "http://unitsofmeasure.org"
            }
          }
        ],
        "interpretation": [
          {
            "coding": [
              {
                "code": "L",
                "system": "http://terminology.hl7.org/CodeSystem/v3-ObservationInterpretation",
                "display": "Low"
              }
            ]
          }
        ],
        "text": {
          "status": "generated",
          "div": "<div xmlns=\"http://www.w3.org/1999/xhtml\"><table class=\"hl7__eu__lab__report\"><tr><th>Test</th><th>20-Dec-2022</th><th>Reference&#xA0;Range</th><th>Unit</th></tr><tr><td>Specific gravity of Urine by Test strip</td><td>1.0</td><td>1.005 - 1.03</td><td>L</td><td>{nominal}</td></tr></table></div>"
        },
        "status": "final",
        "subject": {
          "reference": "urn:uuid:b0a8bb74-228a-4c62-bdb4-e1da9bd562e3",
          "display": "Hortense Gallet"
        },
        "effectiveDateTime": "2022-12-20T20:16:45Z",
        "specimen": {
          "reference": "urn:uuid:30598f8a-585b-4704-ab77-7ee402c97618"
        }
      }
    },
    {
      "fullUrl": "urn:uuid:c6601595-f401-4807-9008-ae908529168e",
      "resource": {
        "resourceType": "Observation",
        "id": "c6601595-f401-4807-9008-ae908529168e",
        "meta": {
          "profile": [
            "http://hl7.eu/fhir/laboratory/StructureDefinition/Observation-resultslab-eu-lab"
          ]
        },
        "performer": [
          {
            "display": "The Central European Lab"
          }
        ],
        "category": [
          {
            "coding": [
              {
                "system": "http://terminology.hl7.org/CodeSystem/observation-category",
                "code": "laboratory"
              }
            ]
          }
        ],
        "code": {
          "coding": [
            {
              "code": "5803-2",
              "system": "http://loinc.org",
              "display": "pH of Urine by Test strip"
            }
          ],
          "text": "pH of Urine by Test strip"
        },
        "valueQuantity": {
          "system": "http://unitsofmeasure.org",
          "value": 5.2,
          "unit": "pH",
          "code": "pH"
        },
        "referenceRange": [
          {
            "low": {
              "value": 4.5,
              "code": "pH",
              "system": "http://unitsofmeasure.org"
            }
          },
          {
            "high": {
              "value": 7.5,
              "code": "pH",
              "system": "http://unitsofmeasure.org"
            }
          }
        ],
        "text": {
          "status": "generated",
          "div": "<div xmlns=\"http://www.w3.org/1999/xhtml\"><table class=\"hl7__eu__lab__report\"><tr><th>Test</th><th>20-Dec-2022</th><th>Reference&#xA0;Range</th><th>Unit</th></tr><tr><td>pH of Urine by Test strip</td><td>5.2</td><td>4.5 - 7.5</td><td></td><td>pH</td></tr></table></div>"
        },
        "status": "final",
        "subject": {
          "reference": "urn:uuid:b0a8bb74-228a-4c62-bdb4-e1da9bd562e3",
          "display": "Hortense Gallet"
        },
        "effectiveDateTime": "2022-12-20T20:16:45Z",
        "specimen": {
          "reference": "urn:uuid:30598f8a-585b-4704-ab77-7ee402c97618"
        }
      }
    },
    {
      "fullUrl": "urn:uuid:efa57a53-451f-4608-8b0f-23e5ba039d0a",
      "resource": {
        "resourceType": "Observation",
        "id": "efa57a53-451f-4608-8b0f-23e5ba039d0a",
        "meta": {
          "profile": [
            "http://hl7.eu/fhir/laboratory/StructureDefinition/Observation-resultslab-eu-lab"
          ]
        },
        "performer": [
          {
            "display": "The Central European Lab"
          }
        ],
        "category": [
          {
            "coding": [
              {
                "system": "http://terminology.hl7.org/CodeSystem/observation-category",
                "code": "laboratory"
              }
            ]
          }
        ],
        "code": {
          "coding": [
            {
              "code": "5804-0",
              "system": "http://loinc.org",
              "display": "Protein [Mass/volume] in Urine by Test strip"
            }
          ],
          "text": "Protein [Mass/volume] in Urine by Test strip"
        },
        "valueQuantity": {
          "system": "http://unitsofmeasure.org",
          "value": 80.2,
          "unit": "mg/dL",
          "code": "mg/dL"
        },
        "referenceRange": [
          {
            "low": {
              "value": 0,
              "code": "mg/dL",
              "system": "http://unitsofmeasure.org"
            }
          },
          {
            "high": {
              "value": 15,
              "code": "mg/dL",
              "system": "http://unitsofmeasure.org"
            }
          }
        ],
        "interpretation": [
          {
            "coding": [
              {
                "code": "H",
                "system": "http://terminology.hl7.org/CodeSystem/v3-ObservationInterpretation",
                "display": "High"
              }
            ]
          }
        ],
        "text": {
          "status": "generated",
          "div": "<div xmlns=\"http://www.w3.org/1999/xhtml\"><table class=\"hl7__eu__lab__report\"><tr><th>Test</th><th>20-Dec-2022</th><th>Reference&#xA0;Range</th><th>Unit</th></tr><tr><td>Protein [Mass/volume] in Urine by Test strip</td><td>80.2</td><td>0 - 15</td><td>H</td><td>mg/dL</td></tr></table></div>"
        },
        "status": "final",
        "subject": {
          "reference": "urn:uuid:b0a8bb74-228a-4c62-bdb4-e1da9bd562e3",
          "display": "Hortense Gallet"
        },
        "effectiveDateTime": "2022-12-20T20:16:45Z",
        "specimen": {
          "reference": "urn:uuid:30598f8a-585b-4704-ab77-7ee402c97618"
        }
      }
    },
    {
      "fullUrl": "urn:uuid:42172c8e-2cbf-4e27-b142-ffb97a489476",
      "resource": {
        "resourceType": "Observation",
        "id": "42172c8e-2cbf-4e27-b142-ffb97a489476",
        "meta": {
          "profile": [
            "http://hl7.eu/fhir/laboratory/StructureDefinition/Observation-resultslab-eu-lab"
          ]
        },
        "performer": [
          {
            "display": "The Central European Lab"
          }
        ],
        "category": [
          {
            "coding": [
              {
                "system": "http://terminology.hl7.org/CodeSystem/observation-category",
                "code": "laboratory"
              }
            ]
          }
        ],
        "code": {
          "coding": [
            {
              "code": "20454-5",
              "system": "http://loinc.org",
              "display": "Protein [Presence] in Urine by Test strip"
            }
          ],
          "text": "Protein [Presence] in Urine by Test strip"
        },
        "text": {
          "status": "generated",
          "div": "<div xmlns=\"http://www.w3.org/1999/xhtml\"><table class=\"hl7__eu__lab__report\"><tr><th>Test</th><th>20-Dec-2022</th><th>Reference&#xA0;Range</th><th>Unit</th></tr><tr><td>Protein [Presence] in Urine by Test strip</td></tr></table></div>"
        },
        "status": "final",
        "subject": {
          "reference": "urn:uuid:b0a8bb74-228a-4c62-bdb4-e1da9bd562e3",
          "display": "Hortense Gallet"
        },
        "effectiveDateTime": "2022-12-20T20:16:45Z",
        "specimen": {
          "reference": "urn:uuid:30598f8a-585b-4704-ab77-7ee402c97618"
        }
      }
    },
    {
      "fullUrl": "urn:uuid:1fea8538-f33e-47ce-b31a-6c0f59f97a05",
      "resource": {
        "resourceType": "Observation",
        "id": "1fea8538-f33e-47ce-b31a-6c0f59f97a05",
        "meta": {
          "profile": [
            "http://hl7.eu/fhir/laboratory/StructureDefinition/Observation-resultslab-eu-lab"
          ]
        },
        "performer": [
          {
            "display": "The Central European Lab"
          }
        ],
        "category": [
          {
            "coding": [
              {
                "system": "http://terminology.hl7.org/CodeSystem/observation-category",
                "code": "laboratory"
              }
            ]
          }
        ],
        "code": {
          "coding": [
            {
              "code": "5802-4",
              "system": "http://loinc.org",
              "display": "Nitrite [Presence] in Urine by Test strip"
            }
          ],
          "text": "Nitrite [Presence] in Urine by Test strip"
        },
        "text": {
          "status": "generated",
          "div": "<div xmlns=\"http://www.w3.org/1999/xhtml\"><table class=\"hl7__eu__lab__report\"><tr><th>Test</th><th>20-Dec-2022</th><th>Reference&#xA0;Range</th><th>Unit</th></tr><tr><td>Nitrite [Presence] in Urine by Test strip</td></tr></table></div>"
        },
        "status": "final",
        "subject": {
          "reference": "urn:uuid:b0a8bb74-228a-4c62-bdb4-e1da9bd562e3",
          "display": "Hortense Gallet"
        },
        "effectiveDateTime": "2022-12-20T20:16:45Z",
        "specimen": {
          "reference": "urn:uuid:30598f8a-585b-4704-ab77-7ee402c97618"
        }
      }
    },
    {
      "fullUrl": "urn:uuid:fc3264ed-ab0a-4096-8aa0-2e97fc3b0a2e",
      "resource": {
        "resourceType": "Observation",
        "id": "fc3264ed-ab0a-4096-8aa0-2e97fc3b0a2e",
        "meta": {
          "profile": [
            "http://hl7.eu/fhir/laboratory/StructureDefinition/Observation-resultslab-eu-lab"
          ]
        },
        "performer": [
          {
            "display": "The Central European Lab"
          }
        ],
        "category": [
          {
            "coding": [
              {
                "system": "http://terminology.hl7.org/CodeSystem/observation-category",
                "code": "laboratory"
              }
            ]
          }
        ],
        "code": {
          "coding": [
            {
              "code": "5794-3",
              "system": "http://loinc.org",
              "display": "Hemoglobin [Presence] in Urine by Test strip"
            }
          ],
          "text": "Hemoglobin [Presence] in Urine by Test strip"
        },
        "text": {
          "status": "generated",
          "div": "<div xmlns=\"http://www.w3.org/1999/xhtml\"><table class=\"hl7__eu__lab__report\"><tr><th>Test</th><th>20-Dec-2022</th><th>Reference&#xA0;Range</th><th>Unit</th></tr><tr><td>Hemoglobin [Presence] in Urine by Test strip</td></tr></table></div>"
        },
        "status": "final",
        "subject": {
          "reference": "urn:uuid:b0a8bb74-228a-4c62-bdb4-e1da9bd562e3",
          "display": "Hortense Gallet"
        },
        "effectiveDateTime": "2022-12-20T20:16:45Z",
        "specimen": {
          "reference": "urn:uuid:30598f8a-585b-4704-ab77-7ee402c97618"
        }
      }
    },
    {
      "fullUrl": "urn:uuid:f7e1506d-d261-40c3-882a-0df68415bdcc",
      "resource": {
        "resourceType": "Observation",
        "id": "f7e1506d-d261-40c3-882a-0df68415bdcc",
        "meta": {
          "profile": [
            "http://hl7.eu/fhir/laboratory/StructureDefinition/Observation-resultslab-eu-lab"
          ]
        },
        "performer": [
          {
            "display": "The Central European Lab"
          }
        ],
        "category": [
          {
            "coding": [
              {
                "system": "http://terminology.hl7.org/CodeSystem/observation-category",
                "code": "laboratory"
              }
            ]
          }
        ],
        "code": {
          "coding": [
            {
              "code": "5799-2",
              "system": "http://loinc.org",
              "display": "Leukocyte esterase [Presence] in Urine by Test strip"
            }
          ],
          "text": "Leukocyte esterase [Presence] in Urine by Test strip"
        },
        "text": {
          "status": "generated",
          "div": "<div xmlns=\"http://www.w3.org/1999/xhtml\"><table class=\"hl7__eu__lab__report\"><tr><th>Test</th><th>20-Dec-2022</th><th>Reference&#xA0;Range</th><th>Unit</th></tr><tr><td>Leukocyte esterase [Presence] in Urine by Test strip</td></tr></table></div>"
        },
        "status": "final",
        "subject": {
          "reference": "urn:uuid:b0a8bb74-228a-4c62-bdb4-e1da9bd562e3",
          "display": "Hortense Gallet"
        },
        "effectiveDateTime": "2022-12-20T20:16:45Z",
        "specimen": {
          "reference": "urn:uuid:30598f8a-585b-4704-ab77-7ee402c97618"
        }
      }
    },
    {
      "fullUrl": "urn:uuid:cbf075c1-88af-4057-8cc9-d9923c966da4",
      "resource": {
        "resourceType": "Device",
        "id": "cbf075c1-88af-4057-8cc9-d9923c966da4",
        "deviceName": [
          {
            "name": "SYNDERAI Synthetic Generator",
            "type": "manufacturer-name"
          }
        ],
        "version": [
          {
            "value": "5.0"
          }
        ],
        "text": {
          "status": "generated",
          "div": "<div xmlns=\"http://www.w3.org/1999/xhtml\">SYNDERAI Synthetic Generator v5.0</div>"
        },
        "status": "active\"",
        "distinctIdentifier": "synderai-generator-50",
        "manufacturer": "SYNDERAI Project"
      }
    },
    {
      "fullUrl": "urn:uuid:ff35741f-7000-403e-921e-f8c193e9fbf8",
      "resource": {
        "resourceType": "Provenance",
        "id": "ff35741f-7000-403e-921e-f8c193e9fbf8",
        "target": [
          {
            "reference": "Patient/b0a8bb74-228a-4c62-bdb4-e1da9bd562e3"
          },
          {
            "reference": "Bundle/826dd30c-3807-458a-a728-5d27795ce4a8"
          },
          {
            "reference": "Composition/1d04dde0-aee3-40ef-8c59-c874c57b82a9"
          },
          {
            "reference": "PractitionerRole/c7c65648-c75a-4479-b184-efafb0f42c2d"
          },
          {
            "reference": "Practitioner/12a8269a-8d1d-4a77-a6da-a6fa8e22a794"
          },
          {
            "reference": "PractitionerRole/d923827e-3f55-4562-85f2-f410e3b5efc7"
          },
          {
            "reference": "Organization/904446d6-6dc4-446e-a253-85fafe035fe9"
          }
        ],
        "activity": {
          "text": "Synthetic Example Data Generation"
        },
        "policy": [
          "https://synderai.net/synderai-synthetic-data-policy"
        ],
        "agent": [
          {
            "type": {
              "text": "author"
            },
            "who": {
              "reference": "Device/cbf075c1-88af-4057-8cc9-d9923c966da4"
            }
          }
        ],
        "reason": [
          {
            "text": "Interoperability Testing and Training (non-clinical use)"
          }
        ],
        "text": {
          "status": "generated",
          "div": "<div xmlns=\"http://www.w3.org/1999/xhtml\">Provenance for SYNDERAI Synthetic Example Data Resource</div>"
        },
        "recorded": "2022-12-20T21:16:45Z"
      }
    },
    {
      "fullUrl": "urn:uuid:c7c65648-c75a-4479-b184-efafb0f42c2d",
      "resource": {
        "resourceType": "PractitionerRole",
        "id": "c7c65648-c75a-4479-b184-efafb0f42c2d",
        "meta": {
          "profile": [
            "http://hl7.eu/fhir/base/StructureDefinition/practitionerRole-eu"
          ]
        },
        "text": {
          "status": "generated",
          "div": "<div xmlns=\"http://www.w3.org/1999/xhtml\">Laboratory Role Id: c7c65648-c75a-4479-b184-efafb0f42c2d</div>"
        },
        "practitioner": {
          "reference": "urn:uuid:12a8269a-8d1d-4a77-a6da-a6fa8e22a794"
        }
      }
    },
    {
      "fullUrl": "urn:uuid:12a8269a-8d1d-4a77-a6da-a6fa8e22a794",
      "resource": {
        "resourceType": "Practitioner",
        "id": "12a8269a-8d1d-4a77-a6da-a6fa8e22a794",
        "meta": {
          "profile": [
            "http://hl7.eu/fhir/base/StructureDefinition/practitioner-eu"
          ]
        },
        "identifier": [
          {
            "assigner": {
              "display": "HL7 Europe"
            },
            "system": "urn:oid:2.16.840.1.113883.2.51.999",
            "value": "fc8ca6e7-85b8-4896-8dd6-aad9e356397e"
          }
        ],
        "name": [
          {
            "prefix": [
              "dr"
            ],
            "given": [
              "Ex"
            ],
            "family": "Ample"
          }
        ],
        "address": [
          {
            "line": [
              "Laboratoire Central Européenne",
              "Boulevard du Jardin Botanique 32"
            ],
            "postalCode": "1000",
            "city": "Brussels",
            "country": "Belgium"
          }
        ],
        "text": {
          "status": "generated",
          "div": "<div xmlns=\"http://www.w3.org/1999/xhtml\">Laboratory: Laboratoire Central Européenne, 1000 Brussels, Belgium</div>"
        }
      }
    }
  ],
  "type": "document",
  "timestamp": "2022-12-20T21:16:45Z"
}
