{
  "resourceType": "Bundle",
  "id": "c23acee6-69bd-4ab3-aef8-9242392edf35",
  "meta": {
    "profile": [
      "http://hl7.eu/fhir/laboratory/StructureDefinition/Bundle-eu-lab"
    ]
  },
  "identifier": {
    "assigner": {
      "display": "HL7 Europe"
    },
    "system": "urn:oid:2.16.840.1.113883.2.51.999",
    "value": "c462b7d6-6eb7-4581-af5a-5be779603340"
  },
  "entry": [
    {
      "fullUrl": "urn:uuid:db1e6a4a-09e8-4a6f-bd91-d6beff0bc908",
      "resource": {
        "resourceType": "Composition",
        "id": "db1e6a4a-09e8-4a6f-bd91-d6beff0bc908",
        "meta": {
          "profile": [
            "http://hl7.eu/fhir/laboratory/StructureDefinition/Composition-eu-lab"
          ]
        },
        "identifier": {
          "assigner": {
            "display": "HL7 Europe"
          },
          "system": "urn:oid:2.16.840.1.113883.2.51.999",
          "value": "d303c97d-3eab-4fdf-a683-2d2db74d990c"
        },
        "author": [
          {
            "reference": "urn:uuid:6081f1f2-7e95-40ce-8e10-fc51bedf87cd"
          }
        ],
        "category": [
          {
            "coding": [
              {
                "code": "26436-6",
                "system": "http://loinc.org",
                "display": "Laboratory studies (set)"
              }
            ]
          }
        ],
        "type": {
          "coding": [
            {
              "code": "11502-2",
              "system": "http://loinc.org",
              "display": "Laboratory report"
            }
          ],
          "text": "Laboratory Report"
        },
        "section": [
          {
            "code": {
              "coding": [
                {
                  "code": "26436-6",
                  "system": "http://loinc.org",
                  "display": "Laboratory studies (set)"
                }
              ],
              "text": "Laboratory studies"
            },
            "section": [
              {
                "code": {
                  "coding": [
                    {
                      "code": "$18719-5",
                      "system": "http://loinc.org",
                      "display": "Chemistry studies (set)"
                    }
                  ],
                  "text": "Chemistry"
                },
                "entry": [
                  {
                    "reference": "urn:uuid:57f38cc0-170f-4730-a4ab-13bc92f8b9fe"
                  },
                  {
                    "reference": "urn:uuid:a3bb3130-468b-4ae6-a95d-de5701710a21"
                  },
                  {
                    "reference": "urn:uuid:caaaf6c1-e15c-44fd-b50c-d9461aabc66c"
                  },
                  {
                    "reference": "urn:uuid:f01793ab-3c72-44d3-ad27-40befe104a16"
                  },
                  {
                    "reference": "urn:uuid:31025b9e-f378-4efb-9b8c-4d82dfd31d80"
                  },
                  {
                    "reference": "urn:uuid:0a815255-d7b3-4b6a-bad7-6333b8a5be9c"
                  },
                  {
                    "reference": "urn:uuid:b713afe5-4e36-4c10-9bb5-8c7172163b0e"
                  },
                  {
                    "reference": "urn:uuid:6baecd77-e859-45e9-a9b6-ada613e90eec"
                  },
                  {
                    "reference": "urn:uuid:db2e1bf0-cd8b-44e7-b83c-4837a6a66edc"
                  }
                ],
                "text": {
                  "status": "generated",
                  "div": "<div xmlns=\"http://www.w3.org/1999/xhtml\"><h3>Chemistry</h3><table class=\"hl7__eu__lab__report\"><thead><tr><th>Test</th><th>27-MAY-2018</th><th>Reference&#xA0;Range</th><th>Unit</th></tr></thead><tbody><tr><td>Hemoglobin A1c/Hemoglobin.total in Blood</td><td><strong>3.9 L</strong></td><td>4 - 6</td><td>%</td></tr><tr><td>Glucose [Mass/volume] in Blood</td><td>81.1</td><td>70 - 140</td><td>mg/dL</td></tr><tr><td>Urea nitrogen [Mass/volume] in Blood</td><td>16.0</td><td>7 - 20</td><td>mg/dL</td></tr><tr><td>Creatinine [Mass/volume] in Blood</td><td>0.5</td><td>0.5 - 1.3</td><td>mg/dL</td></tr><tr><td>Calcium [Mass/volume] in Blood</td><td>8.7</td><td>8.5 - 10.5</td><td>mg/dL</td></tr><tr><td>Sodium [Moles/volume] in Blood</td><td>140.3</td><td>135 - 145</td><td>mmol/L</td></tr><tr><td>Potassium [Moles/volume] in Blood</td><td>4.7</td><td>3.5 - 5.1</td><td>mmol/L</td></tr><tr><td>Chloride [Moles/volume] in Blood</td><td>104.1</td><td>98 - 108</td><td>mmol/L</td></tr><tr><td>Carbon dioxide, total [Moles/volume] in Blood</td><td>26.7</td><td>22 - 29</td><td>mmol/L</td></tr></tbody></table></div>"
                },
                "title": "Chemistry"
              }
            ],
            "title": "Laboratory Report"
          },
          {
            "text": {
              "status": "generated",
              "div": "<div xmlns=\"http://www.w3.org/1999/xhtml\"><h3>Annotation</h3><table class=\"hl7__eu__lab__report\"><tr><th>Conclusion and Recommendations based on this report and previous findings known to us</th></tr><tr><td>All measured parameters are within normal limits except for a mildly decreased HbA1c, which may reflect recent hypoglycemia, anemia, or altered red cell turnover. Renal function, electrolytes, and glucose are normal. No acute laboratory abnormalities detected; clinical correlation for low HbA1c is recommended.</td></tr></table></div>"
            },
            "code": {
              "coding": [
                {
                  "system": "http://loinc.org",
                  "code": "48767-8",
                  "display": "Annotation comment"
                }
              ]
            },
            "title": "Annotation comment"
          }
        ],
        "status": "final",
        "subject": {
          "reference": "urn:uuid:4fe48a03-aac5-4f3e-bce9-e2175d6477ac",
          "display": "Marlene Gerlach"
        },
        "date": "2018-05-27T21:24:33Z",
        "title": "Laboratory Report",
        "confidentiality": "N"
      }
    },
    {
      "fullUrl": "urn:uuid:d01bf8a8-8f08-4082-8c92-1c8727fab20e",
      "resource": {
        "resourceType": "DiagnosticReport",
        "id": "d01bf8a8-8f08-4082-8c92-1c8727fab20e",
        "meta": {
          "profile": [
            "http://hl7.eu/fhir/laboratory/StructureDefinition/DiagnosticReport-eu-lab"
          ]
        },
        "identifier": [
          {
            "assigner": {
              "display": "HL7 Europe"
            },
            "system": "urn:oid:2.16.840.1.113883.2.51.999",
            "value": "a00d1903-5ed1-412f-b5d8-c41ade63fa04"
          }
        ],
        "extension": [
          {
            "url": "http://hl7.org/fhir/5.0/StructureDefinition/extension-DiagnosticReport.composition",
            "valueReference": {
              "reference": "urn:uuid:d303c97d-3eab-4fdf-a683-2d2db74d990c"
            }
          }
        ],
        "category": [
          {
            "coding": [
              {
                "code": "26436-6",
                "system": "http://loinc.org",
                "display": "Laboratory studies (set)"
              }
            ]
          }
        ],
        "specimen": [
          {
            "reference": "urn:uuid:58837463-08e7-4827-bf96-5648d1dd41bf"
          }
        ],
        "result": [
          {
            "reference": "urn:uuid:57f38cc0-170f-4730-a4ab-13bc92f8b9fe"
          },
          {
            "reference": "urn:uuid:a3bb3130-468b-4ae6-a95d-de5701710a21"
          },
          {
            "reference": "urn:uuid:caaaf6c1-e15c-44fd-b50c-d9461aabc66c"
          },
          {
            "reference": "urn:uuid:f01793ab-3c72-44d3-ad27-40befe104a16"
          },
          {
            "reference": "urn:uuid:31025b9e-f378-4efb-9b8c-4d82dfd31d80"
          },
          {
            "reference": "urn:uuid:0a815255-d7b3-4b6a-bad7-6333b8a5be9c"
          },
          {
            "reference": "urn:uuid:b713afe5-4e36-4c10-9bb5-8c7172163b0e"
          },
          {
            "reference": "urn:uuid:6baecd77-e859-45e9-a9b6-ada613e90eec"
          },
          {
            "reference": "urn:uuid:db2e1bf0-cd8b-44e7-b83c-4837a6a66edc"
          }
        ],
        "status": "registered",
        "code": {
          "coding": [
            {
              "code": "11502-2",
              "system": "http://loinc.org",
              "display": "Laboratory report"
            }
          ]
        },
        "subject": {
          "reference": "urn:uuid:4fe48a03-aac5-4f3e-bce9-e2175d6477ac",
          "display": "Marlene Gerlach"
        }
      }
    },
    {
      "fullUrl": "urn:uuid:4fe48a03-aac5-4f3e-bce9-e2175d6477ac",
      "resource": {
        "resourceType": "Patient",
        "id": "4fe48a03-aac5-4f3e-bce9-e2175d6477ac",
        "meta": {
          "security": [
            {
              "system": "http://terminology.hl7.org/CodeSystem/v3-ActReason",
              "code": "HTEST"
            },
            {
              "system": "http://terminology.hl7.org/CodeSystem/v3-ActReason",
              "code": "TRAIN"
            }
          ],
          "tag": [
            {
              "system": "https://synderai.net/fhir/CodeSystem/tags",
              "code": "synthetic",
              "display": "SYNDERAI Synthetic data"
            }
          ],
          "profile": [
            "http://hl7.eu/fhir/base/StructureDefinition/patient-eu-core"
          ]
        },
        "identifier": [
          {
            "type": {
              "coding": [
                {
                  "code": "PT",
                  "system": "http://terminology.hl7.org/CodeSystem/v2-0203"
                }
              ]
            },
            "system": "http://ec.europa.eu/identifier/eci",
            "value": "4536-398571-9"
          },
          {
            "type": {
              "coding": [
                {
                  "code": "MR",
                  "system": "http://terminology.hl7.org/CodeSystem/v2-0203"
                }
              ]
            },
            "system": "http://local.setting.eu/identifier",
            "value": "ff7a4ff6-4bac-f07f-03c9-b91b1e1cfb23"
          }
        ],
        "name": [
          {
            "family": "Gerlach"
          },
          {
            "given": [
              "Marlene"
            ]
          },
          {
            "text": "Marlene Gerlach"
          }
        ],
        "address": [
          {
            "line": [
              "Etzlerplatz 57-53"
            ],
            "use": "home",
            "type": "physical",
            "postalCode": "71522",
            "city": "Backnang",
            "country": "Germany"
          }
        ],
        "telecom": [
          {
            "system": "phone",
            "value": "+49(0)2700 61724"
          }
        ],
        "extension": [
          {
            "url": "http://hl7.org/fhir/StructureDefinition/patient-nationality",
            "valueCodeableConcept": {
              "coding": [
                {
                  "code": "DE",
                  "system": "http://hl7.org/fhir/ValueSet/country"
                }
              ]
            }
          }
        ],
        "text": {
          "status": "generated",
          "div": "<div xmlns=\"http://www.w3.org/1999/xhtml\"><table class=\"hl7__ips\"><tr><td>Marlene Gerlach</td><td>female</td><td>28-Aug-1939</td></tr></table></div>"
        },
        "gender": "female",
        "birthDate": "1939-08-28"
      }
    },
    {
      "fullUrl": "urn:uuid:584a1cb3-19b9-4ece-a78c-9cf7928b2f56",
      "resource": {
        "resourceType": "ServiceRequest",
        "id": "584a1cb3-19b9-4ece-a78c-9cf7928b2f56",
        "meta": {
          "profile": [
            "http://hl7.eu/fhir/laboratory/StructureDefinition/ServiceRequest-eu-lab"
          ]
        },
        "identifier": [
          {
            "system": "http://example.org",
            "value": "102118e6-27a4-49ea-9e77-4a57303c3491"
          }
        ],
        "specimen": [
          {
            "reference": "urn:uuid:58837463-08e7-4827-bf96-5648d1dd41bf"
          }
        ],
        "reasonCode": [
          {
            "coding": [
              {
                "code": "55822004",
                "system": "http://snomed.info/sct",
                "display": "Hyperlipidemia"
              }
            ]
          },
          {
            "coding": [
              {
                "code": "414545008",
                "system": "http://snomed.info/sct",
                "display": "Ischemic heart disease"
              }
            ]
          },
          {
            "coding": [
              {
                "code": "157141000119108",
                "system": "http://snomed.info/sct",
                "display": "Proteinuria due to type 2 diabetes mellitus"
              }
            ]
          },
          {
            "coding": [
              {
                "code": "90781000119102",
                "system": "http://snomed.info/sct",
                "display": "Microalbuminuria due to type 2 diabetes mellitus"
              }
            ]
          },
          {
            "coding": [
              {
                "code": "127013003",
                "system": "http://snomed.info/sct",
                "display": "Disorder of kidney due to diabetes mellitus"
              }
            ]
          },
          {
            "coding": [
              {
                "code": "271737000",
                "system": "http://snomed.info/sct",
                "display": "Anemia"
              }
            ]
          },
          {
            "coding": [
              {
                "code": "15777000",
                "system": "http://snomed.info/sct",
                "display": "Prediabetes"
              }
            ]
          },
          {
            "coding": [
              {
                "code": "59621000",
                "system": "http://snomed.info/sct",
                "display": "Essential hypertension"
              }
            ]
          }
        ],
        "status": "active",
        "intent": "order",
        "code": {
          "coding": [
            {
              "code": "108252007",
              "system": "http://snomed.info/sct",
              "display": "Laboratory procedure"
            }
          ]
        },
        "subject": {
          "reference": "urn:uuid:4fe48a03-aac5-4f3e-bce9-e2175d6477ac",
          "display": "Marlene Gerlach"
        },
        "requester": {
          "reference": "urn:uuid:0ab7f652-6b91-41ae-a851-b74057811fdc"
        }
      }
    },
    {
      "fullUrl": "urn:uuid:0ab7f652-6b91-41ae-a851-b74057811fdc",
      "resource": {
        "resourceType": "PractitionerRole",
        "id": "0ab7f652-6b91-41ae-a851-b74057811fdc",
        "meta": {
          "profile": [
            "http://hl7.eu/fhir/base/StructureDefinition/practitionerRole-eu"
          ]
        },
        "text": {
          "status": "generated",
          "div": "<div xmlns=\"http://www.w3.org/1999/xhtml\">Provider Role Id: 0ab7f652-6b91-41ae-a851-b74057811fdc</div>"
        },
        "organization": {
          "reference": "urn:uuid:2df14efb-fc42-4670-9791-1da8ca7674a6"
        }
      }
    },
    {
      "fullUrl": "urn:uuid:2df14efb-fc42-4670-9791-1da8ca7674a6",
      "resource": {
        "resourceType": "Organization",
        "id": "2df14efb-fc42-4670-9791-1da8ca7674a6",
        "meta": {
          "profile": [
            "http://hl7.eu/fhir/base/StructureDefinition/organization-eu"
          ]
        },
        "identifier": [
          {
            "assigner": {
              "display": "HL7 Europe"
            },
            "system": "urn:oid:2.16.840.1.113883.2.51.999",
            "value": "f8bd0c06-72a5-408e-b6bd-936c0917ca64"
          }
        ],
        "address": [
          {
            "line": [
              "Karl-Krische-Straße 4"
            ],
            "city": "Backnang",
            "postalCode": "71522",
            "country": "Germany"
          }
        ],
        "text": {
          "status": "generated",
          "div": "<div xmlns=\"http://www.w3.org/1999/xhtml\">Provider Organization: Gesundheitszentrum</div>"
        },
        "name": "Gesundheitszentrum"
      }
    },
    {
      "fullUrl": "urn:uuid:58837463-08e7-4827-bf96-5648d1dd41bf",
      "resource": {
        "resourceType": "Specimen",
        "id": "58837463-08e7-4827-bf96-5648d1dd41bf",
        "meta": {
          "profile": [
            "http://hl7.eu/fhir/laboratory/StructureDefinition/Specimen-eu-lab"
          ]
        },
        "collection": {
          "collectedDateTime": "2018-05-27"
        },
        "text": {
          "status": "generated",
          "div": "<div xmlns=\"http://www.w3.org/1999/xhtml\"><table class=\"hl7__eu__lab__report\"><tr><th>Specimen</th><th>Collection Date</th></tr><tr><td>Whole blood specimen (specimen)</td><td><span class=\"nb\">27-May-2018</span></td></tr></table></div>"
        },
        "type": {
          "coding": [
            {
              "code": "258580003",
              "system": "http://snomed.info/sct",
              "display": "Whole blood specimen (specimen)"
            }
          ]
        }
      }
    },
    {
      "fullUrl": "urn:uuid:57f38cc0-170f-4730-a4ab-13bc92f8b9fe",
      "resource": {
        "resourceType": "Observation",
        "id": "57f38cc0-170f-4730-a4ab-13bc92f8b9fe",
        "meta": {
          "profile": [
            "http://hl7.eu/fhir/laboratory/StructureDefinition/Observation-resultslab-eu-lab"
          ]
        },
        "performer": [
          {
            "display": "The Central European Lab"
          }
        ],
        "category": [
          {
            "coding": [
              {
                "system": "http://terminology.hl7.org/CodeSystem/observation-category",
                "code": "laboratory"
              }
            ]
          }
        ],
        "code": {
          "coding": [
            {
              "code": "4548-4",
              "system": "http://loinc.org",
              "display": "Hemoglobin A1c/Hemoglobin.total in Blood"
            }
          ],
          "text": "Hemoglobin A1c/Hemoglobin.total in Blood"
        },
        "valueQuantity": {
          "system": "http://unitsofmeasure.org",
          "value": 3.9,
          "unit": "%",
          "code": "%"
        },
        "referenceRange": [
          {
            "low": {
              "value": 4,
              "code": "%",
              "system": "http://unitsofmeasure.org"
            }
          },
          {
            "high": {
              "value": 6,
              "code": "%",
              "system": "http://unitsofmeasure.org"
            }
          }
        ],
        "interpretation": [
          {
            "coding": [
              {
                "code": "L",
                "system": "http://terminology.hl7.org/CodeSystem/v3-ObservationInterpretation",
                "display": "Low"
              }
            ]
          }
        ],
        "text": {
          "status": "generated",
          "div": "<div xmlns=\"http://www.w3.org/1999/xhtml\"><table class=\"hl7__eu__lab__report\"><tr><th>Test</th><th>27-May-2018</th><th>Reference&#xA0;Range</th><th>Unit</th></tr><tr><td>Hemoglobin A1c/Hemoglobin.total in Blood</td><td>3.9</td><td>4 - 6</td><td>L</td><td>%</td></tr></table></div>"
        },
        "status": "final",
        "subject": {
          "reference": "urn:uuid:4fe48a03-aac5-4f3e-bce9-e2175d6477ac",
          "display": "Marlene Gerlach"
        },
        "effectiveDateTime": "2018-05-27T19:24:33Z",
        "specimen": {
          "reference": "urn:uuid:58837463-08e7-4827-bf96-5648d1dd41bf"
        }
      }
    },
    {
      "fullUrl": "urn:uuid:a3bb3130-468b-4ae6-a95d-de5701710a21",
      "resource": {
        "resourceType": "Observation",
        "id": "a3bb3130-468b-4ae6-a95d-de5701710a21",
        "meta": {
          "profile": [
            "http://hl7.eu/fhir/laboratory/StructureDefinition/Observation-resultslab-eu-lab"
          ]
        },
        "performer": [
          {
            "display": "The Central European Lab"
          }
        ],
        "category": [
          {
            "coding": [
              {
                "system": "http://terminology.hl7.org/CodeSystem/observation-category",
                "code": "laboratory"
              }
            ]
          }
        ],
        "code": {
          "coding": [
            {
              "code": "2339-0",
              "system": "http://loinc.org",
              "display": "Glucose [Mass/volume] in Blood"
            }
          ],
          "text": "Glucose [Mass/volume] in Blood"
        },
        "valueQuantity": {
          "system": "http://unitsofmeasure.org",
          "value": 81.1,
          "unit": "mg/dL",
          "code": "mg/dL"
        },
        "referenceRange": [
          {
            "low": {
              "value": 70,
              "code": "mg/dL",
              "system": "http://unitsofmeasure.org"
            }
          },
          {
            "high": {
              "value": 140,
              "code": "mg/dL",
              "system": "http://unitsofmeasure.org"
            }
          }
        ],
        "text": {
          "status": "generated",
          "div": "<div xmlns=\"http://www.w3.org/1999/xhtml\"><table class=\"hl7__eu__lab__report\"><tr><th>Test</th><th>27-May-2018</th><th>Reference&#xA0;Range</th><th>Unit</th></tr><tr><td>Glucose [Mass/volume] in Blood</td><td>81.1</td><td>70 - 140</td><td></td><td>mg/dL</td></tr></table></div>"
        },
        "status": "final",
        "subject": {
          "reference": "urn:uuid:4fe48a03-aac5-4f3e-bce9-e2175d6477ac",
          "display": "Marlene Gerlach"
        },
        "effectiveDateTime": "2018-05-27T19:24:33Z",
        "specimen": {
          "reference": "urn:uuid:58837463-08e7-4827-bf96-5648d1dd41bf"
        }
      }
    },
    {
      "fullUrl": "urn:uuid:caaaf6c1-e15c-44fd-b50c-d9461aabc66c",
      "resource": {
        "resourceType": "Observation",
        "id": "caaaf6c1-e15c-44fd-b50c-d9461aabc66c",
        "meta": {
          "profile": [
            "http://hl7.eu/fhir/laboratory/StructureDefinition/Observation-resultslab-eu-lab"
          ]
        },
        "performer": [
          {
            "display": "The Central European Lab"
          }
        ],
        "category": [
          {
            "coding": [
              {
                "system": "http://terminology.hl7.org/CodeSystem/observation-category",
                "code": "laboratory"
              }
            ]
          }
        ],
        "code": {
          "coding": [
            {
              "code": "6299-2",
              "system": "http://loinc.org",
              "display": "Urea nitrogen [Mass/volume] in Blood"
            }
          ],
          "text": "Urea nitrogen [Mass/volume] in Blood"
        },
        "valueQuantity": {
          "system": "http://unitsofmeasure.org",
          "value": 16,
          "unit": "mg/dL",
          "code": "mg/dL"
        },
        "referenceRange": [
          {
            "low": {
              "value": 7,
              "code": "mg/dL",
              "system": "http://unitsofmeasure.org"
            }
          },
          {
            "high": {
              "value": 20,
              "code": "mg/dL",
              "system": "http://unitsofmeasure.org"
            }
          }
        ],
        "text": {
          "status": "generated",
          "div": "<div xmlns=\"http://www.w3.org/1999/xhtml\"><table class=\"hl7__eu__lab__report\"><tr><th>Test</th><th>27-May-2018</th><th>Reference&#xA0;Range</th><th>Unit</th></tr><tr><td>Urea nitrogen [Mass/volume] in Blood</td><td>16.0</td><td>7 - 20</td><td></td><td>mg/dL</td></tr></table></div>"
        },
        "status": "final",
        "subject": {
          "reference": "urn:uuid:4fe48a03-aac5-4f3e-bce9-e2175d6477ac",
          "display": "Marlene Gerlach"
        },
        "effectiveDateTime": "2018-05-27T19:24:33Z",
        "specimen": {
          "reference": "urn:uuid:58837463-08e7-4827-bf96-5648d1dd41bf"
        }
      }
    },
    {
      "fullUrl": "urn:uuid:f01793ab-3c72-44d3-ad27-40befe104a16",
      "resource": {
        "resourceType": "Observation",
        "id": "f01793ab-3c72-44d3-ad27-40befe104a16",
        "meta": {
          "profile": [
            "http://hl7.eu/fhir/laboratory/StructureDefinition/Observation-resultslab-eu-lab"
          ]
        },
        "performer": [
          {
            "display": "The Central European Lab"
          }
        ],
        "category": [
          {
            "coding": [
              {
                "system": "http://terminology.hl7.org/CodeSystem/observation-category",
                "code": "laboratory"
              }
            ]
          }
        ],
        "code": {
          "coding": [
            {
              "code": "38483-4",
              "system": "http://loinc.org",
              "display": "Creatinine [Mass/volume] in Blood"
            }
          ],
          "text": "Creatinine [Mass/volume] in Blood"
        },
        "valueQuantity": {
          "system": "http://unitsofmeasure.org",
          "value": 0.5,
          "unit": "mg/dL",
          "code": "mg/dL"
        },
        "referenceRange": [
          {
            "low": {
              "value": 0.5,
              "code": "mg/dL",
              "system": "http://unitsofmeasure.org"
            }
          },
          {
            "high": {
              "value": 1.3,
              "code": "mg/dL",
              "system": "http://unitsofmeasure.org"
            }
          }
        ],
        "text": {
          "status": "generated",
          "div": "<div xmlns=\"http://www.w3.org/1999/xhtml\"><table class=\"hl7__eu__lab__report\"><tr><th>Test</th><th>27-May-2018</th><th>Reference&#xA0;Range</th><th>Unit</th></tr><tr><td>Creatinine [Mass/volume] in Blood</td><td>0.5</td><td>0.5 - 1.3</td><td></td><td>mg/dL</td></tr></table></div>"
        },
        "status": "final",
        "subject": {
          "reference": "urn:uuid:4fe48a03-aac5-4f3e-bce9-e2175d6477ac",
          "display": "Marlene Gerlach"
        },
        "effectiveDateTime": "2018-05-27T19:24:33Z",
        "specimen": {
          "reference": "urn:uuid:58837463-08e7-4827-bf96-5648d1dd41bf"
        }
      }
    },
    {
      "fullUrl": "urn:uuid:31025b9e-f378-4efb-9b8c-4d82dfd31d80",
      "resource": {
        "resourceType": "Observation",
        "id": "31025b9e-f378-4efb-9b8c-4d82dfd31d80",
        "meta": {
          "profile": [
            "http://hl7.eu/fhir/laboratory/StructureDefinition/Observation-resultslab-eu-lab"
          ]
        },
        "performer": [
          {
            "display": "The Central European Lab"
          }
        ],
        "category": [
          {
            "coding": [
              {
                "system": "http://terminology.hl7.org/CodeSystem/observation-category",
                "code": "laboratory"
              }
            ]
          }
        ],
        "code": {
          "coding": [
            {
              "code": "49765-1",
              "system": "http://loinc.org",
              "display": "Calcium [Mass/volume] in Blood"
            }
          ],
          "text": "Calcium [Mass/volume] in Blood"
        },
        "valueQuantity": {
          "system": "http://unitsofmeasure.org",
          "value": 8.7,
          "unit": "mg/dL",
          "code": "mg/dL"
        },
        "referenceRange": [
          {
            "low": {
              "value": 8.5,
              "code": "mg/dL",
              "system": "http://unitsofmeasure.org"
            }
          },
          {
            "high": {
              "value": 10.5,
              "code": "mg/dL",
              "system": "http://unitsofmeasure.org"
            }
          }
        ],
        "text": {
          "status": "generated",
          "div": "<div xmlns=\"http://www.w3.org/1999/xhtml\"><table class=\"hl7__eu__lab__report\"><tr><th>Test</th><th>27-May-2018</th><th>Reference&#xA0;Range</th><th>Unit</th></tr><tr><td>Calcium [Mass/volume] in Blood</td><td>8.7</td><td>8.5 - 10.5</td><td></td><td>mg/dL</td></tr></table></div>"
        },
        "status": "final",
        "subject": {
          "reference": "urn:uuid:4fe48a03-aac5-4f3e-bce9-e2175d6477ac",
          "display": "Marlene Gerlach"
        },
        "effectiveDateTime": "2018-05-27T19:24:33Z",
        "specimen": {
          "reference": "urn:uuid:58837463-08e7-4827-bf96-5648d1dd41bf"
        }
      }
    },
    {
      "fullUrl": "urn:uuid:0a815255-d7b3-4b6a-bad7-6333b8a5be9c",
      "resource": {
        "resourceType": "Observation",
        "id": "0a815255-d7b3-4b6a-bad7-6333b8a5be9c",
        "meta": {
          "profile": [
            "http://hl7.eu/fhir/laboratory/StructureDefinition/Observation-resultslab-eu-lab"
          ]
        },
        "performer": [
          {
            "display": "The Central European Lab"
          }
        ],
        "category": [
          {
            "coding": [
              {
                "system": "http://terminology.hl7.org/CodeSystem/observation-category",
                "code": "laboratory"
              }
            ]
          }
        ],
        "code": {
          "coding": [
            {
              "code": "2947-0",
              "system": "http://loinc.org",
              "display": "Sodium [Moles/volume] in Blood"
            }
          ],
          "text": "Sodium [Moles/volume] in Blood"
        },
        "valueQuantity": {
          "system": "http://unitsofmeasure.org",
          "value": 140.3,
          "unit": "mmol/L",
          "code": "mmol/L"
        },
        "referenceRange": [
          {
            "low": {
              "value": 135,
              "code": "mmol/L",
              "system": "http://unitsofmeasure.org"
            }
          },
          {
            "high": {
              "value": 145,
              "code": "mmol/L",
              "system": "http://unitsofmeasure.org"
            }
          }
        ],
        "text": {
          "status": "generated",
          "div": "<div xmlns=\"http://www.w3.org/1999/xhtml\"><table class=\"hl7__eu__lab__report\"><tr><th>Test</th><th>27-May-2018</th><th>Reference&#xA0;Range</th><th>Unit</th></tr><tr><td>Sodium [Moles/volume] in Blood</td><td>140.3</td><td>135 - 145</td><td></td><td>mmol/L</td></tr></table></div>"
        },
        "status": "final",
        "subject": {
          "reference": "urn:uuid:4fe48a03-aac5-4f3e-bce9-e2175d6477ac",
          "display": "Marlene Gerlach"
        },
        "effectiveDateTime": "2018-05-27T19:24:33Z",
        "specimen": {
          "reference": "urn:uuid:58837463-08e7-4827-bf96-5648d1dd41bf"
        }
      }
    },
    {
      "fullUrl": "urn:uuid:b713afe5-4e36-4c10-9bb5-8c7172163b0e",
      "resource": {
        "resourceType": "Observation",
        "id": "b713afe5-4e36-4c10-9bb5-8c7172163b0e",
        "meta": {
          "profile": [
            "http://hl7.eu/fhir/laboratory/StructureDefinition/Observation-resultslab-eu-lab"
          ]
        },
        "performer": [
          {
            "display": "The Central European Lab"
          }
        ],
        "category": [
          {
            "coding": [
              {
                "system": "http://terminology.hl7.org/CodeSystem/observation-category",
                "code": "laboratory"
              }
            ]
          }
        ],
        "code": {
          "coding": [
            {
              "code": "6298-4",
              "system": "http://loinc.org",
              "display": "Potassium [Moles/volume] in Blood"
            }
          ],
          "text": "Potassium [Moles/volume] in Blood"
        },
        "valueQuantity": {
          "system": "http://unitsofmeasure.org",
          "value": 4.7,
          "unit": "mmol/L",
          "code": "mmol/L"
        },
        "referenceRange": [
          {
            "low": {
              "value": 3.5,
              "code": "mmol/L",
              "system": "http://unitsofmeasure.org"
            }
          },
          {
            "high": {
              "value": 5.1,
              "code": "mmol/L",
              "system": "http://unitsofmeasure.org"
            }
          }
        ],
        "text": {
          "status": "generated",
          "div": "<div xmlns=\"http://www.w3.org/1999/xhtml\"><table class=\"hl7__eu__lab__report\"><tr><th>Test</th><th>27-May-2018</th><th>Reference&#xA0;Range</th><th>Unit</th></tr><tr><td>Potassium [Moles/volume] in Blood</td><td>4.7</td><td>3.5 - 5.1</td><td></td><td>mmol/L</td></tr></table></div>"
        },
        "status": "final",
        "subject": {
          "reference": "urn:uuid:4fe48a03-aac5-4f3e-bce9-e2175d6477ac",
          "display": "Marlene Gerlach"
        },
        "effectiveDateTime": "2018-05-27T19:24:33Z",
        "specimen": {
          "reference": "urn:uuid:58837463-08e7-4827-bf96-5648d1dd41bf"
        }
      }
    },
    {
      "fullUrl": "urn:uuid:6baecd77-e859-45e9-a9b6-ada613e90eec",
      "resource": {
        "resourceType": "Observation",
        "id": "6baecd77-e859-45e9-a9b6-ada613e90eec",
        "meta": {
          "profile": [
            "http://hl7.eu/fhir/laboratory/StructureDefinition/Observation-resultslab-eu-lab"
          ]
        },
        "performer": [
          {
            "display": "The Central European Lab"
          }
        ],
        "category": [
          {
            "coding": [
              {
                "system": "http://terminology.hl7.org/CodeSystem/observation-category",
                "code": "laboratory"
              }
            ]
          }
        ],
        "code": {
          "coding": [
            {
              "code": "2069-3",
              "system": "http://loinc.org",
              "display": "Chloride [Moles/volume] in Blood"
            }
          ],
          "text": "Chloride [Moles/volume] in Blood"
        },
        "valueQuantity": {
          "system": "http://unitsofmeasure.org",
          "value": 104.1,
          "unit": "mmol/L",
          "code": "mmol/L"
        },
        "referenceRange": [
          {
            "low": {
              "value": 98,
              "code": "mmol/L",
              "system": "http://unitsofmeasure.org"
            }
          },
          {
            "high": {
              "value": 108,
              "code": "mmol/L",
              "system": "http://unitsofmeasure.org"
            }
          }
        ],
        "text": {
          "status": "generated",
          "div": "<div xmlns=\"http://www.w3.org/1999/xhtml\"><table class=\"hl7__eu__lab__report\"><tr><th>Test</th><th>27-May-2018</th><th>Reference&#xA0;Range</th><th>Unit</th></tr><tr><td>Chloride [Moles/volume] in Blood</td><td>104.1</td><td>98 - 108</td><td></td><td>mmol/L</td></tr></table></div>"
        },
        "status": "final",
        "subject": {
          "reference": "urn:uuid:4fe48a03-aac5-4f3e-bce9-e2175d6477ac",
          "display": "Marlene Gerlach"
        },
        "effectiveDateTime": "2018-05-27T19:24:33Z",
        "specimen": {
          "reference": "urn:uuid:58837463-08e7-4827-bf96-5648d1dd41bf"
        }
      }
    },
    {
      "fullUrl": "urn:uuid:db2e1bf0-cd8b-44e7-b83c-4837a6a66edc",
      "resource": {
        "resourceType": "Observation",
        "id": "db2e1bf0-cd8b-44e7-b83c-4837a6a66edc",
        "meta": {
          "profile": [
            "http://hl7.eu/fhir/laboratory/StructureDefinition/Observation-resultslab-eu-lab"
          ]
        },
        "performer": [
          {
            "display": "The Central European Lab"
          }
        ],
        "category": [
          {
            "coding": [
              {
                "system": "http://terminology.hl7.org/CodeSystem/observation-category",
                "code": "laboratory"
              }
            ]
          }
        ],
        "code": {
          "coding": [
            {
              "code": "20565-8",
              "system": "http://loinc.org",
              "display": "Carbon dioxide, total [Moles/volume] in Blood"
            }
          ],
          "text": "Carbon dioxide, total [Moles/volume] in Blood"
        },
        "valueQuantity": {
          "system": "http://unitsofmeasure.org",
          "value": 26.7,
          "unit": "mmol/L",
          "code": "mmol/L"
        },
        "referenceRange": [
          {
            "low": {
              "value": 22,
              "code": "mmol/L",
              "system": "http://unitsofmeasure.org"
            }
          },
          {
            "high": {
              "value": 29,
              "code": "mmol/L",
              "system": "http://unitsofmeasure.org"
            }
          }
        ],
        "text": {
          "status": "generated",
          "div": "<div xmlns=\"http://www.w3.org/1999/xhtml\"><table class=\"hl7__eu__lab__report\"><tr><th>Test</th><th>27-May-2018</th><th>Reference&#xA0;Range</th><th>Unit</th></tr><tr><td>Carbon dioxide, total [Moles/volume] in Blood</td><td>26.7</td><td>22 - 29</td><td></td><td>mmol/L</td></tr></table></div>"
        },
        "status": "final",
        "subject": {
          "reference": "urn:uuid:4fe48a03-aac5-4f3e-bce9-e2175d6477ac",
          "display": "Marlene Gerlach"
        },
        "effectiveDateTime": "2018-05-27T19:24:33Z",
        "specimen": {
          "reference": "urn:uuid:58837463-08e7-4827-bf96-5648d1dd41bf"
        }
      }
    },
    {
      "fullUrl": "urn:uuid:06665bcc-628c-4542-8ca1-9c308ba261d7",
      "resource": {
        "resourceType": "Device",
        "id": "06665bcc-628c-4542-8ca1-9c308ba261d7",
        "deviceName": [
          {
            "name": "SYNDERAI Synthetic Generator",
            "type": "manufacturer-name"
          }
        ],
        "version": [
          {
            "value": "5.0"
          }
        ],
        "text": {
          "status": "generated",
          "div": "<div xmlns=\"http://www.w3.org/1999/xhtml\">SYNDERAI Synthetic Generator v5.0</div>"
        },
        "status": "active\"",
        "distinctIdentifier": "synderai-generator-50",
        "manufacturer": "SYNDERAI Project"
      }
    },
    {
      "fullUrl": "urn:uuid:4fda5473-09f5-48af-8244-0094447dd0cb",
      "resource": {
        "resourceType": "Provenance",
        "id": "4fda5473-09f5-48af-8244-0094447dd0cb",
        "target": [
          {
            "reference": "Patient/4fe48a03-aac5-4f3e-bce9-e2175d6477ac"
          },
          {
            "reference": "Bundle/c23acee6-69bd-4ab3-aef8-9242392edf35"
          },
          {
            "reference": "Composition/db1e6a4a-09e8-4a6f-bd91-d6beff0bc908"
          },
          {
            "reference": "PractitionerRole/6081f1f2-7e95-40ce-8e10-fc51bedf87cd"
          },
          {
            "reference": "Practitioner/9f5b8603-3033-4580-ae7d-a8268d049abf"
          },
          {
            "reference": "PractitionerRole/0ab7f652-6b91-41ae-a851-b74057811fdc"
          },
          {
            "reference": "Organization/2df14efb-fc42-4670-9791-1da8ca7674a6"
          }
        ],
        "activity": {
          "text": "Synthetic Example Data Generation"
        },
        "policy": [
          "https://synderai.net/synderai-synthetic-data-policy"
        ],
        "agent": [
          {
            "type": {
              "text": "author"
            },
            "who": {
              "reference": "Device/06665bcc-628c-4542-8ca1-9c308ba261d7"
            }
          }
        ],
        "reason": [
          {
            "text": "Interoperability Testing and Training (non-clinical use)"
          }
        ],
        "text": {
          "status": "generated",
          "div": "<div xmlns=\"http://www.w3.org/1999/xhtml\">Provenance for SYNDERAI Synthetic Example Data Resource</div>"
        },
        "recorded": "2018-05-27T21:24:33Z"
      }
    },
    {
      "fullUrl": "urn:uuid:6081f1f2-7e95-40ce-8e10-fc51bedf87cd",
      "resource": {
        "resourceType": "PractitionerRole",
        "id": "6081f1f2-7e95-40ce-8e10-fc51bedf87cd",
        "meta": {
          "profile": [
            "http://hl7.eu/fhir/base/StructureDefinition/practitionerRole-eu"
          ]
        },
        "text": {
          "status": "generated",
          "div": "<div xmlns=\"http://www.w3.org/1999/xhtml\">Laboratory Role Id: 6081f1f2-7e95-40ce-8e10-fc51bedf87cd</div>"
        },
        "practitioner": {
          "reference": "urn:uuid:9f5b8603-3033-4580-ae7d-a8268d049abf"
        }
      }
    },
    {
      "fullUrl": "urn:uuid:9f5b8603-3033-4580-ae7d-a8268d049abf",
      "resource": {
        "resourceType": "Practitioner",
        "id": "9f5b8603-3033-4580-ae7d-a8268d049abf",
        "meta": {
          "profile": [
            "http://hl7.eu/fhir/base/StructureDefinition/practitioner-eu"
          ]
        },
        "identifier": [
          {
            "assigner": {
              "display": "HL7 Europe"
            },
            "system": "urn:oid:2.16.840.1.113883.2.51.999",
            "value": "ef7fdfe0-ac14-46ee-b4c9-610ec337123a"
          }
        ],
        "name": [
          {
            "prefix": [
              "dr"
            ],
            "given": [
              "Ex"
            ],
            "family": "Ample"
          }
        ],
        "address": [
          {
            "line": [
              "Laboratoire Central Européenne",
              "Boulevard du Jardin Botanique 32"
            ],
            "postalCode": "1000",
            "city": "Brussels",
            "country": "Belgium"
          }
        ],
        "text": {
          "status": "generated",
          "div": "<div xmlns=\"http://www.w3.org/1999/xhtml\">Laboratory: Laboratoire Central Européenne, 1000 Brussels, Belgium</div>"
        }
      }
    }
  ],
  "type": "document",
  "timestamp": "2018-05-27T21:24:33Z"
}
