{
  "resourceType": "Bundle",
  "id": "4ea6f759-2366-4c85-b837-ffb1e45530c8",
  "meta": {
    "profile": [
      "http://hl7.eu/fhir/laboratory/StructureDefinition/Bundle-eu-lab"
    ]
  },
  "identifier": {
    "assigner": {
      "display": "HL7 Europe"
    },
    "system": "urn:oid:2.16.840.1.113883.2.51.999",
    "value": "bb948023-2934-4f7d-bb9d-798991873925"
  },
  "entry": [
    {
      "fullUrl": "urn:uuid:1d4b146b-8b3c-41d6-a757-ab09c6cf50a0",
      "resource": {
        "resourceType": "Composition",
        "id": "1d4b146b-8b3c-41d6-a757-ab09c6cf50a0",
        "meta": {
          "profile": [
            "http://hl7.eu/fhir/laboratory/StructureDefinition/Composition-eu-lab"
          ]
        },
        "identifier": {
          "assigner": {
            "display": "HL7 Europe"
          },
          "system": "urn:oid:2.16.840.1.113883.2.51.999",
          "value": "b6e27479-cfa3-40cf-b1e7-251b71d21f02"
        },
        "author": [
          {
            "reference": "urn:uuid:814c3039-a305-43a0-afd1-9e9b99a8f07a"
          }
        ],
        "category": [
          {
            "coding": [
              {
                "code": "26436-6",
                "system": "http://loinc.org",
                "display": "Laboratory studies (set)"
              }
            ]
          }
        ],
        "type": {
          "coding": [
            {
              "code": "11502-2",
              "system": "http://loinc.org",
              "display": "Laboratory report"
            }
          ],
          "text": "Laboratory Report"
        },
        "section": [
          {
            "code": {
              "coding": [
                {
                  "code": "26436-6",
                  "system": "http://loinc.org",
                  "display": "Laboratory studies (set)"
                }
              ],
              "text": "Laboratory studies"
            },
            "section": [
              {
                "code": {
                  "coding": [
                    {
                      "code": "$18719-5",
                      "system": "http://loinc.org",
                      "display": "Chemistry studies (set)"
                    }
                  ],
                  "text": "Chemistry"
                },
                "entry": [
                  {
                    "reference": "urn:uuid:4c3926c0-3fec-4274-b1a9-89325a4a8f54"
                  },
                  {
                    "reference": "urn:uuid:9d379f36-5136-4290-894c-932f8723207c"
                  },
                  {
                    "reference": "urn:uuid:a4120ceb-1e84-4a7d-a643-841194f7fb54"
                  },
                  {
                    "reference": "urn:uuid:fd5671a2-26ae-4ef7-871a-ed3783f47cdb"
                  },
                  {
                    "reference": "urn:uuid:5f2386dc-c6de-4eee-bc16-d1a0db0f984e"
                  },
                  {
                    "reference": "urn:uuid:167aafb8-b438-4a80-bf7b-552a48de541b"
                  },
                  {
                    "reference": "urn:uuid:08993b5a-9463-403a-9b62-e0044fab555c"
                  },
                  {
                    "reference": "urn:uuid:0e429941-5a32-4f07-9b4e-6feba1c8d668"
                  },
                  {
                    "reference": "urn:uuid:52333ff6-39a5-4842-af3a-3b81d14e96ef"
                  },
                  {
                    "reference": "urn:uuid:a780b60a-5490-47b0-836a-e5b11952bc36"
                  },
                  {
                    "reference": "urn:uuid:078a4c87-5652-4b69-9e0a-97a129ac7301"
                  },
                  {
                    "reference": "urn:uuid:7e208921-634a-4028-a70a-a7ddf91a05dc"
                  },
                  {
                    "reference": "urn:uuid:37ef698c-c1b0-4653-b93a-f09ab2839e44"
                  },
                  {
                    "reference": "urn:uuid:92d9d8e2-7284-48db-8e21-af2b948b44db"
                  },
                  {
                    "reference": "urn:uuid:587af500-94a4-4caf-ae34-594ff212707e"
                  },
                  {
                    "reference": "urn:uuid:062a7e0c-05f4-48e1-aabd-4a958792a747"
                  },
                  {
                    "reference": "urn:uuid:043bef95-dec4-4ac6-9fac-52b70eb71a65"
                  },
                  {
                    "reference": "urn:uuid:1abe7557-b949-409e-97b6-11223d8b3494"
                  }
                ],
                "text": {
                  "status": "generated",
                  "div": "<div xmlns=\"http://www.w3.org/1999/xhtml\"><h3>Chemistry</h3><table class=\"hl7__eu__lab__report\"><thead><tr><th>Test</th><th>03-JAN-2022</th><th>Reference&#xA0;Range</th><th>Unit</th></tr></thead><tbody><tr><td>Glucose [Mass/volume] in Serum or Plasma</td><td><strong>65.5 L</strong></td><td>70 - 99</td><td>mg/dL</td></tr><tr><td>Urea nitrogen [Mass/volume] in Serum or Plasma</td><td>18.7</td><td>7 - 50</td><td>mg/dL</td></tr><tr><td>Creatinine [Mass/volume] in Serum or Plasma</td><td><strong>2.1 H</strong></td><td>0.6 - 1.1</td><td>mg/dL</td></tr><tr><td>Calcium [Mass/volume] in Serum or Plasma</td><td>9.8</td><td>8.6 - 10.4</td><td>mg/dL</td></tr><tr><td>Sodium [Moles/volume] in Serum or Plasma</td><td>141.7</td><td>135 - 145</td><td>mmol/L</td></tr><tr><td>Potassium [Moles/volume] in Serum or Plasma</td><td>4.3</td><td>3.5 - 5.1</td><td>mmol/L</td></tr><tr><td>Chloride [Moles/volume] in Serum or Plasma</td><td>106.8</td><td>98 - 108</td><td>mmol/L</td></tr><tr><td>Carbon dioxide, total [Moles/volume] in Serum or Plasma</td><td><strong>20.9 L</strong></td><td>22 - 32</td><td>mmol/L</td></tr><tr><td>Ketones [Presence] in Urine by Test strip</td><td>Urine ketone test = ++</td><td></td><td></td></tr><tr><td>Hemoglobin A1c/Hemoglobin.total in Blood</td><td><strong>3.1 L</strong></td><td>4 - 6.4</td><td>%</td></tr><tr><td>Glucose [Mass/volume] in Blood</td><td><strong>65.5 L</strong></td><td>70 - 100</td><td>mg/dL</td></tr><tr><td>Urea nitrogen [Mass/volume] in Blood</td><td>18.7</td><td>7 - 43</td><td>mg/dL</td></tr><tr><td>Creatinine [Mass/volume] in Blood</td><td><strong>4.4 H</strong></td><td>0.6 - 1.1</td><td>mg/dL</td></tr><tr><td>Calcium [Mass/volume] in Blood</td><td>9.8</td><td>8.5 - 10.5</td><td>mg/dL</td></tr><tr><td>Sodium [Moles/volume] in Blood</td><td>141.7</td><td>135 - 145</td><td>mmol/L</td></tr><tr><td>Potassium [Moles/volume] in Blood</td><td>4.3</td><td>3.5 - 5.1</td><td>mmol/L</td></tr><tr><td>Chloride [Moles/volume] in Blood</td><td>106.8</td><td>98 - 108</td><td>mmol/L</td></tr><tr><td>Carbon dioxide, total [Moles/volume] in Blood</td><td><strong>20.9 L</strong></td><td>22 - 29</td><td>mmol/L</td></tr></tbody></table></div>"
                },
                "title": "Chemistry"
              },
              {
                "code": {
                  "coding": [
                    {
                      "code": "$18729-4",
                      "system": "http://loinc.org",
                      "display": "Urinalysis studies (set)"
                    }
                  ],
                  "text": "Urinalysis"
                },
                "entry": [
                  {
                    "reference": "urn:uuid:805135d8-5f6a-44cf-8249-d57f75b4b44c"
                  },
                  {
                    "reference": "urn:uuid:0d000173-94fb-4e28-bd78-e1996b525417"
                  },
                  {
                    "reference": "urn:uuid:fcb7407b-f12c-457b-bc5f-3df207e026cc"
                  },
                  {
                    "reference": "urn:uuid:70a873a7-2ace-4efe-bcc1-d9c22f9442ff"
                  },
                  {
                    "reference": "urn:uuid:bf52d603-4596-407d-903d-942823fca151"
                  },
                  {
                    "reference": "urn:uuid:354c7c93-1a80-410f-99bd-88e0b6415f98"
                  },
                  {
                    "reference": "urn:uuid:b06fca6b-172d-41cd-a1eb-520cbc9b4520"
                  },
                  {
                    "reference": "urn:uuid:a0f01ec4-7e3e-4eca-808d-5f8d4ebfb36c"
                  },
                  {
                    "reference": "urn:uuid:274e3355-7661-49b5-8da2-20896996bdf8"
                  },
                  {
                    "reference": "urn:uuid:322b05a5-7ac2-4df2-af7d-cc8f39b64f8e"
                  },
                  {
                    "reference": "urn:uuid:c358ee4b-7d7d-4773-9f4c-495e355de65d"
                  },
                  {
                    "reference": "urn:uuid:32dee466-00fd-4e2b-a42f-c313313d2963"
                  }
                ],
                "text": {
                  "status": "generated",
                  "div": "<div xmlns=\"http://www.w3.org/1999/xhtml\"><h3>Urinalysis</h3><table class=\"hl7__eu__lab__report\"><thead><tr><th>Test</th><th>03-JAN-2022</th><th>Reference&#xA0;Range</th><th>Unit</th></tr></thead><tbody><tr><td>Glucose [Mass/volume] in Urine by Test strip</td><td><strong>0.9 H</strong></td><td>0.8 - 0</td><td>mg/dL</td></tr><tr><td>Glucose [Presence] in Urine by Test strip</td><td>++</td><td></td><td></td></tr><tr><td>Bilirubin.total [Mass/volume] in Urine by Test strip</td><td>0.3</td><td>0 - 1</td><td>mg/dL</td></tr><tr><td>Bilirubin.total [Presence] in Urine by Test strip</td><td>Finding of bilirubin in urine</td><td></td><td></td></tr><tr><td>Ketones [Mass/volume] in Urine by Test strip</td><td><strong>18.4 H</strong></td><td>0 - 4</td><td>mg/dL</td></tr><tr><td>Specific gravity of Urine by Test strip</td><td><strong>1.0 L</strong></td><td>1.005 - 1.03</td><td>{nominal}</td></tr><tr><td>pH of Urine by Test strip</td><td>6.1</td><td>4.6 - 7</td><td>pH</td></tr><tr><td>Protein [Mass/volume] in Urine by Test strip</td><td><strong>381.7 H</strong></td><td>0 - 14</td><td>mg/dL</td></tr><tr><td>Protein [Presence] in Urine by Test strip</td><td>Urine protein test = ++</td><td></td><td></td></tr><tr><td>Nitrite [Presence] in Urine by Test strip</td><td>Urine nitrite negative</td><td></td><td></td></tr><tr><td>Hemoglobin [Presence] in Urine by Test strip</td><td>Urine blood test = negative</td><td></td><td></td></tr><tr><td>Leukocyte esterase [Presence] in Urine by Test strip</td><td>Urine leukocyte test negative</td><td></td><td></td></tr></tbody></table></div>"
                },
                "title": "Urinalysis"
              },
              {
                "code": {
                  "coding": [
                    {
                      "code": "$LP7846-1",
                      "system": "http://loinc.org",
                      "display": "Specimen information"
                    }
                  ],
                  "text": "Specimen information"
                },
                "entry": [
                  {
                    "reference": "urn:uuid:f2aa6348-3af6-4afb-ac5b-c262467d4888"
                  },
                  {
                    "reference": "urn:uuid:ef9b0ecb-e430-4a99-a13e-9185f828f997"
                  },
                  {
                    "reference": "urn:uuid:9a39d516-63e8-463c-801d-a544ca0266f5"
                  },
                  {
                    "reference": "urn:uuid:a45202ed-2b18-403a-a4b3-81ea17c83c5e"
                  }
                ],
                "text": {
                  "status": "generated",
                  "div": "<div xmlns=\"http://www.w3.org/1999/xhtml\"><h3>Specimen information</h3><table class=\"hl7__eu__lab__report\"><thead><tr><th>Test</th><th>03-JAN-2022</th><th>Specimen</th><th></th></tr></thead><tbody><tr><td>Appearance of Urine</td><td>Cloudy urine</td><td>Urine</td><td></td></tr><tr><td>Odor of Urine</td><td>Urine smell ammoniacal</td><td>Urine</td><td></td></tr><tr><td>Clarity of Urine</td><td>Translucent</td><td>Urine</td><td></td></tr><tr><td>Color of Urine</td><td>Brown color</td><td>Urine</td><td></td></tr></tbody></table></div>"
                },
                "title": "Specimen information"
              }
            ],
            "title": "Laboratory Report"
          },
          {
            "text": {
              "status": "generated",
              "div": "<div xmlns=\"http://www.w3.org/1999/xhtml\"><h3>Annotation</h3><table class=\"hl7__eu__lab__report\"><tr><th>Conclusion and Recommendations based on this report and previous findings known to us</th></tr><tr><td>The patient shows significant renal dysfunction (markedly elevated creatinine), proteinuria, and abnormal urine findings (cloudy, brown, low specific gravity, high protein, ketones, and glucose). There is also hypoglycemia and low HbA1c, with metabolic acidosis suggested by low CO₂. These findings are consistent with advanced kidney disease, possible nephrotic syndrome, and metabolic derangements. Immediate clinical evaluation and nephrology referral are recommended.</td></tr></table></div>"
            },
            "code": {
              "coding": [
                {
                  "system": "http://loinc.org",
                  "code": "48767-8",
                  "display": "Annotation comment"
                }
              ]
            },
            "title": "Annotation comment"
          }
        ],
        "status": "final",
        "subject": {
          "reference": "urn:uuid:fad19cb5-ec24-4489-b56e-191b159fbbcc",
          "display": "Meaghan Neary"
        },
        "date": "2022-01-03T23:11:04Z",
        "title": "Laboratory Report",
        "confidentiality": "N"
      }
    },
    {
      "fullUrl": "urn:uuid:76aee52e-7446-4c78-90a1-b884a27336a1",
      "resource": {
        "resourceType": "DiagnosticReport",
        "id": "76aee52e-7446-4c78-90a1-b884a27336a1",
        "meta": {
          "profile": [
            "http://hl7.eu/fhir/laboratory/StructureDefinition/DiagnosticReport-eu-lab"
          ]
        },
        "identifier": [
          {
            "assigner": {
              "display": "HL7 Europe"
            },
            "system": "urn:oid:2.16.840.1.113883.2.51.999",
            "value": "b1e69a8f-738d-4f39-b25c-38d1347e5b43"
          }
        ],
        "extension": [
          {
            "url": "http://hl7.org/fhir/5.0/StructureDefinition/extension-DiagnosticReport.composition",
            "valueReference": {
              "reference": "urn:uuid:b6e27479-cfa3-40cf-b1e7-251b71d21f02"
            }
          }
        ],
        "category": [
          {
            "coding": [
              {
                "code": "26436-6",
                "system": "http://loinc.org",
                "display": "Laboratory studies (set)"
              }
            ]
          }
        ],
        "specimen": [
          {
            "reference": "urn:uuid:27f8aa4c-23d5-4e0e-9f1c-57ab7c1e7f3e"
          },
          {
            "reference": "urn:uuid:ef15117f-75a2-4c80-94ba-bf73a43f8aaf"
          },
          {
            "reference": "urn:uuid:667ff780-137a-419c-839c-21bde60ed345"
          }
        ],
        "result": [
          {
            "reference": "urn:uuid:4c3926c0-3fec-4274-b1a9-89325a4a8f54"
          },
          {
            "reference": "urn:uuid:9d379f36-5136-4290-894c-932f8723207c"
          },
          {
            "reference": "urn:uuid:a4120ceb-1e84-4a7d-a643-841194f7fb54"
          },
          {
            "reference": "urn:uuid:fd5671a2-26ae-4ef7-871a-ed3783f47cdb"
          },
          {
            "reference": "urn:uuid:5f2386dc-c6de-4eee-bc16-d1a0db0f984e"
          },
          {
            "reference": "urn:uuid:167aafb8-b438-4a80-bf7b-552a48de541b"
          },
          {
            "reference": "urn:uuid:08993b5a-9463-403a-9b62-e0044fab555c"
          },
          {
            "reference": "urn:uuid:0e429941-5a32-4f07-9b4e-6feba1c8d668"
          },
          {
            "reference": "urn:uuid:f2aa6348-3af6-4afb-ac5b-c262467d4888"
          },
          {
            "reference": "urn:uuid:ef9b0ecb-e430-4a99-a13e-9185f828f997"
          },
          {
            "reference": "urn:uuid:9a39d516-63e8-463c-801d-a544ca0266f5"
          },
          {
            "reference": "urn:uuid:a45202ed-2b18-403a-a4b3-81ea17c83c5e"
          },
          {
            "reference": "urn:uuid:805135d8-5f6a-44cf-8249-d57f75b4b44c"
          },
          {
            "reference": "urn:uuid:0d000173-94fb-4e28-bd78-e1996b525417"
          },
          {
            "reference": "urn:uuid:fcb7407b-f12c-457b-bc5f-3df207e026cc"
          },
          {
            "reference": "urn:uuid:70a873a7-2ace-4efe-bcc1-d9c22f9442ff"
          },
          {
            "reference": "urn:uuid:bf52d603-4596-407d-903d-942823fca151"
          },
          {
            "reference": "urn:uuid:52333ff6-39a5-4842-af3a-3b81d14e96ef"
          },
          {
            "reference": "urn:uuid:354c7c93-1a80-410f-99bd-88e0b6415f98"
          },
          {
            "reference": "urn:uuid:b06fca6b-172d-41cd-a1eb-520cbc9b4520"
          },
          {
            "reference": "urn:uuid:a0f01ec4-7e3e-4eca-808d-5f8d4ebfb36c"
          },
          {
            "reference": "urn:uuid:274e3355-7661-49b5-8da2-20896996bdf8"
          },
          {
            "reference": "urn:uuid:322b05a5-7ac2-4df2-af7d-cc8f39b64f8e"
          },
          {
            "reference": "urn:uuid:c358ee4b-7d7d-4773-9f4c-495e355de65d"
          },
          {
            "reference": "urn:uuid:32dee466-00fd-4e2b-a42f-c313313d2963"
          },
          {
            "reference": "urn:uuid:a780b60a-5490-47b0-836a-e5b11952bc36"
          },
          {
            "reference": "urn:uuid:078a4c87-5652-4b69-9e0a-97a129ac7301"
          },
          {
            "reference": "urn:uuid:7e208921-634a-4028-a70a-a7ddf91a05dc"
          },
          {
            "reference": "urn:uuid:37ef698c-c1b0-4653-b93a-f09ab2839e44"
          },
          {
            "reference": "urn:uuid:92d9d8e2-7284-48db-8e21-af2b948b44db"
          },
          {
            "reference": "urn:uuid:587af500-94a4-4caf-ae34-594ff212707e"
          },
          {
            "reference": "urn:uuid:062a7e0c-05f4-48e1-aabd-4a958792a747"
          },
          {
            "reference": "urn:uuid:043bef95-dec4-4ac6-9fac-52b70eb71a65"
          },
          {
            "reference": "urn:uuid:1abe7557-b949-409e-97b6-11223d8b3494"
          }
        ],
        "status": "registered",
        "code": {
          "coding": [
            {
              "code": "11502-2",
              "system": "http://loinc.org",
              "display": "Laboratory report"
            }
          ]
        },
        "subject": {
          "reference": "urn:uuid:fad19cb5-ec24-4489-b56e-191b159fbbcc",
          "display": "Meaghan Neary"
        }
      }
    },
    {
      "fullUrl": "urn:uuid:fad19cb5-ec24-4489-b56e-191b159fbbcc",
      "resource": {
        "resourceType": "Patient",
        "id": "fad19cb5-ec24-4489-b56e-191b159fbbcc",
        "meta": {
          "security": [
            {
              "system": "http://terminology.hl7.org/CodeSystem/v3-ActReason",
              "code": "HTEST"
            },
            {
              "system": "http://terminology.hl7.org/CodeSystem/v3-ActReason",
              "code": "TRAIN"
            }
          ],
          "tag": [
            {
              "system": "https://synderai.net/fhir/CodeSystem/tags",
              "code": "synthetic",
              "display": "SYNDERAI Synthetic data"
            }
          ],
          "profile": [
            "http://hl7.eu/fhir/base/StructureDefinition/patient-eu-core"
          ]
        },
        "identifier": [
          {
            "type": {
              "coding": [
                {
                  "code": "PT",
                  "system": "http://terminology.hl7.org/CodeSystem/v2-0203"
                }
              ]
            },
            "system": "http://ec.europa.eu/identifier/eci",
            "value": "1586-567257-8"
          },
          {
            "type": {
              "coding": [
                {
                  "code": "MR",
                  "system": "http://terminology.hl7.org/CodeSystem/v2-0203"
                }
              ]
            },
            "system": "http://local.setting.eu/identifier",
            "value": "443e6379-f231-b364-3ccb-644740a1aa2a"
          }
        ],
        "name": [
          {
            "family": "Neary"
          },
          {
            "given": [
              "Meaghan"
            ]
          },
          {
            "text": "Meaghan Neary"
          }
        ],
        "address": [
          {
            "line": [
              "64 Linskey Street"
            ],
            "use": "home",
            "type": "physical",
            "postalCode": "D02",
            "city": "Dublin",
            "country": "Ireland"
          }
        ],
        "telecom": [
          {
            "system": "phone",
            "value": "001-967-573-0911x465"
          }
        ],
        "extension": [
          {
            "url": "http://hl7.org/fhir/StructureDefinition/patient-nationality",
            "valueCodeableConcept": {
              "coding": [
                {
                  "code": "IE",
                  "system": "http://hl7.org/fhir/ValueSet/country"
                }
              ]
            }
          }
        ],
        "text": {
          "status": "generated",
          "div": "<div xmlns=\"http://www.w3.org/1999/xhtml\"><table class=\"hl7__ips\"><tr><td>Meaghan Neary</td><td>female</td><td>19-Dec-1960</td></tr></table></div>"
        },
        "gender": "female",
        "birthDate": "1960-12-19"
      }
    },
    {
      "fullUrl": "urn:uuid:87d1c3a2-37ee-481b-8946-c1f4f51f81d6",
      "resource": {
        "resourceType": "ServiceRequest",
        "id": "87d1c3a2-37ee-481b-8946-c1f4f51f81d6",
        "meta": {
          "profile": [
            "http://hl7.eu/fhir/laboratory/StructureDefinition/ServiceRequest-eu-lab"
          ]
        },
        "identifier": [
          {
            "system": "http://example.org",
            "value": "5e10f260-f355-464d-8a94-14aaa78ce359"
          }
        ],
        "specimen": [
          {
            "reference": "urn:uuid:27f8aa4c-23d5-4e0e-9f1c-57ab7c1e7f3e"
          },
          {
            "reference": "urn:uuid:ef15117f-75a2-4c80-94ba-bf73a43f8aaf"
          },
          {
            "reference": "urn:uuid:667ff780-137a-419c-839c-21bde60ed345"
          }
        ],
        "reasonCode": [
          {
            "coding": [
              {
                "code": "55822004",
                "system": "http://snomed.info/sct",
                "display": "Hyperlipidemia"
              }
            ]
          },
          {
            "coding": [
              {
                "code": "433144002",
                "system": "http://snomed.info/sct",
                "display": "Chronic kidney disease stage 3"
              }
            ]
          },
          {
            "coding": [
              {
                "code": "157141000119108",
                "system": "http://snomed.info/sct",
                "display": "Proteinuria due to type 2 diabetes mellitus"
              }
            ]
          },
          {
            "coding": [
              {
                "code": "431856006",
                "system": "http://snomed.info/sct",
                "display": "Chronic kidney disease stage 2"
              }
            ]
          },
          {
            "coding": [
              {
                "code": "90781000119102",
                "system": "http://snomed.info/sct",
                "display": "Microalbuminuria due to type 2 diabetes mellitus"
              }
            ]
          },
          {
            "coding": [
              {
                "code": "127013003",
                "system": "http://snomed.info/sct",
                "display": "Disorder of kidney due to diabetes mellitus"
              }
            ]
          },
          {
            "coding": [
              {
                "code": "431855005",
                "system": "http://snomed.info/sct",
                "display": "Chronic kidney disease stage 1"
              }
            ]
          },
          {
            "coding": [
              {
                "code": "237602007",
                "system": "http://snomed.info/sct",
                "display": "Metabolic syndrome X"
              }
            ]
          },
          {
            "coding": [
              {
                "code": "271737000",
                "system": "http://snomed.info/sct",
                "display": "Anemia"
              }
            ]
          },
          {
            "coding": [
              {
                "code": "15777000",
                "system": "http://snomed.info/sct",
                "display": "Prediabetes"
              }
            ]
          },
          {
            "coding": [
              {
                "code": "59621000",
                "system": "http://snomed.info/sct",
                "display": "Essential hypertension"
              }
            ]
          }
        ],
        "status": "active",
        "intent": "order",
        "code": {
          "coding": [
            {
              "code": "108252007",
              "system": "http://snomed.info/sct",
              "display": "Laboratory procedure"
            }
          ]
        },
        "subject": {
          "reference": "urn:uuid:fad19cb5-ec24-4489-b56e-191b159fbbcc",
          "display": "Meaghan Neary"
        },
        "requester": {
          "reference": "urn:uuid:246f3874-3197-4b56-b1d7-310e7fe44f7a"
        }
      }
    },
    {
      "fullUrl": "urn:uuid:246f3874-3197-4b56-b1d7-310e7fe44f7a",
      "resource": {
        "resourceType": "PractitionerRole",
        "id": "246f3874-3197-4b56-b1d7-310e7fe44f7a",
        "meta": {
          "profile": [
            "http://hl7.eu/fhir/base/StructureDefinition/practitionerRole-eu"
          ]
        },
        "text": {
          "status": "generated",
          "div": "<div xmlns=\"http://www.w3.org/1999/xhtml\">Provider Role Id: 246f3874-3197-4b56-b1d7-310e7fe44f7a</div>"
        },
        "organization": {
          "reference": "urn:uuid:e8177e0b-7f67-4f14-a4b0-002728ff3906"
        }
      }
    },
    {
      "fullUrl": "urn:uuid:e8177e0b-7f67-4f14-a4b0-002728ff3906",
      "resource": {
        "resourceType": "Organization",
        "id": "e8177e0b-7f67-4f14-a4b0-002728ff3906",
        "meta": {
          "profile": [
            "http://hl7.eu/fhir/base/StructureDefinition/organization-eu"
          ]
        },
        "identifier": [
          {
            "assigner": {
              "display": "HL7 Europe"
            },
            "system": "urn:oid:2.16.840.1.113883.2.51.999",
            "value": "0223dac6-049f-4c92-8968-1d97264c55cd"
          }
        ],
        "address": [
          {
            "line": [
              "Parnell Square West nan"
            ],
            "city": "Dublin",
            "postalCode": "D01",
            "country": "Ireland"
          }
        ],
        "text": {
          "status": "generated",
          "div": "<div xmlns=\"http://www.w3.org/1999/xhtml\">Provider Organization: Rotunda Hospital</div>"
        },
        "name": "Rotunda Hospital"
      }
    },
    {
      "fullUrl": "urn:uuid:27f8aa4c-23d5-4e0e-9f1c-57ab7c1e7f3e",
      "resource": {
        "resourceType": "Specimen",
        "id": "27f8aa4c-23d5-4e0e-9f1c-57ab7c1e7f3e",
        "meta": {
          "profile": [
            "http://hl7.eu/fhir/laboratory/StructureDefinition/Specimen-eu-lab"
          ]
        },
        "collection": {
          "collectedDateTime": "2022-01-03"
        },
        "text": {
          "status": "generated",
          "div": "<div xmlns=\"http://www.w3.org/1999/xhtml\"><table class=\"hl7__eu__lab__report\"><tr><th>Specimen</th><th>Collection Date</th></tr><tr><td>Acellular blood (serum or plasma) specimen</td><td><span class=\"nb\">03-Jan-2022</span></td></tr></table></div>"
        },
        "type": {
          "coding": [
            {
              "code": "122592007",
              "system": "http://snomed.info/sct",
              "display": "Acellular blood (serum or plasma) specimen"
            }
          ]
        }
      }
    },
    {
      "fullUrl": "urn:uuid:ef15117f-75a2-4c80-94ba-bf73a43f8aaf",
      "resource": {
        "resourceType": "Specimen",
        "id": "ef15117f-75a2-4c80-94ba-bf73a43f8aaf",
        "meta": {
          "profile": [
            "http://hl7.eu/fhir/laboratory/StructureDefinition/Specimen-eu-lab"
          ]
        },
        "collection": {
          "collectedDateTime": "2022-01-03"
        },
        "text": {
          "status": "generated",
          "div": "<div xmlns=\"http://www.w3.org/1999/xhtml\"><table class=\"hl7__eu__lab__report\"><tr><th>Specimen</th><th>Collection Date</th></tr><tr><td>Urine specimen</td><td><span class=\"nb\">03-Jan-2022</span></td></tr></table></div>"
        },
        "type": {
          "coding": [
            {
              "code": "122575003",
              "system": "http://snomed.info/sct",
              "display": "Urine specimen"
            }
          ]
        }
      }
    },
    {
      "fullUrl": "urn:uuid:667ff780-137a-419c-839c-21bde60ed345",
      "resource": {
        "resourceType": "Specimen",
        "id": "667ff780-137a-419c-839c-21bde60ed345",
        "meta": {
          "profile": [
            "http://hl7.eu/fhir/laboratory/StructureDefinition/Specimen-eu-lab"
          ]
        },
        "collection": {
          "collectedDateTime": "2022-01-03"
        },
        "text": {
          "status": "generated",
          "div": "<div xmlns=\"http://www.w3.org/1999/xhtml\"><table class=\"hl7__eu__lab__report\"><tr><th>Specimen</th><th>Collection Date</th></tr><tr><td>Whole blood specimen (specimen)</td><td><span class=\"nb\">03-Jan-2022</span></td></tr></table></div>"
        },
        "type": {
          "coding": [
            {
              "code": "258580003",
              "system": "http://snomed.info/sct",
              "display": "Whole blood specimen (specimen)"
            }
          ]
        }
      }
    },
    {
      "fullUrl": "urn:uuid:4c3926c0-3fec-4274-b1a9-89325a4a8f54",
      "resource": {
        "resourceType": "Observation",
        "id": "4c3926c0-3fec-4274-b1a9-89325a4a8f54",
        "meta": {
          "profile": [
            "http://hl7.eu/fhir/laboratory/StructureDefinition/Observation-resultslab-eu-lab"
          ]
        },
        "performer": [
          {
            "display": "The Central European Lab"
          }
        ],
        "category": [
          {
            "coding": [
              {
                "system": "http://terminology.hl7.org/CodeSystem/observation-category",
                "code": "laboratory"
              }
            ]
          }
        ],
        "code": {
          "coding": [
            {
              "code": "2345-7",
              "system": "http://loinc.org",
              "display": "Glucose [Mass/volume] in Serum or Plasma"
            }
          ],
          "text": "Glucose [Mass/volume] in Serum or Plasma"
        },
        "valueQuantity": {
          "system": "http://unitsofmeasure.org",
          "value": 65.5,
          "unit": "mg/dL",
          "code": "mg/dL"
        },
        "referenceRange": [
          {
            "low": {
              "value": 70,
              "code": "mg/dL",
              "system": "http://unitsofmeasure.org"
            }
          },
          {
            "high": {
              "value": 99,
              "code": "mg/dL",
              "system": "http://unitsofmeasure.org"
            }
          }
        ],
        "interpretation": [
          {
            "coding": [
              {
                "code": "L",
                "system": "http://terminology.hl7.org/CodeSystem/v3-ObservationInterpretation",
                "display": "Low"
              }
            ]
          }
        ],
        "text": {
          "status": "generated",
          "div": "<div xmlns=\"http://www.w3.org/1999/xhtml\"><table class=\"hl7__eu__lab__report\"><tr><th>Test</th><th>03-Jan-2022</th><th>Reference&#xA0;Range</th><th>Unit</th></tr><tr><td>Glucose [Mass/volume] in Serum or Plasma</td><td>65.5</td><td>70 - 99</td><td>L</td><td>mg/dL</td></tr></table></div>"
        },
        "status": "final",
        "subject": {
          "reference": "urn:uuid:fad19cb5-ec24-4489-b56e-191b159fbbcc",
          "display": "Meaghan Neary"
        },
        "effectiveDateTime": "2022-01-03T22:11:04Z",
        "specimen": {
          "reference": "urn:uuid:27f8aa4c-23d5-4e0e-9f1c-57ab7c1e7f3e"
        }
      }
    },
    {
      "fullUrl": "urn:uuid:9d379f36-5136-4290-894c-932f8723207c",
      "resource": {
        "resourceType": "Observation",
        "id": "9d379f36-5136-4290-894c-932f8723207c",
        "meta": {
          "profile": [
            "http://hl7.eu/fhir/laboratory/StructureDefinition/Observation-resultslab-eu-lab"
          ]
        },
        "performer": [
          {
            "display": "The Central European Lab"
          }
        ],
        "category": [
          {
            "coding": [
              {
                "system": "http://terminology.hl7.org/CodeSystem/observation-category",
                "code": "laboratory"
              }
            ]
          }
        ],
        "code": {
          "coding": [
            {
              "code": "3094-0",
              "system": "http://loinc.org",
              "display": "Urea nitrogen [Mass/volume] in Serum or Plasma"
            }
          ],
          "text": "Urea nitrogen [Mass/volume] in Serum or Plasma"
        },
        "valueQuantity": {
          "system": "http://unitsofmeasure.org",
          "value": 18.7,
          "unit": "mg/dL",
          "code": "mg/dL"
        },
        "referenceRange": [
          {
            "low": {
              "value": 7,
              "code": "mg/dL",
              "system": "http://unitsofmeasure.org"
            }
          },
          {
            "high": {
              "value": 50,
              "code": "mg/dL",
              "system": "http://unitsofmeasure.org"
            }
          }
        ],
        "text": {
          "status": "generated",
          "div": "<div xmlns=\"http://www.w3.org/1999/xhtml\"><table class=\"hl7__eu__lab__report\"><tr><th>Test</th><th>03-Jan-2022</th><th>Reference&#xA0;Range</th><th>Unit</th></tr><tr><td>Urea nitrogen [Mass/volume] in Serum or Plasma</td><td>18.7</td><td>7 - 50</td><td></td><td>mg/dL</td></tr></table></div>"
        },
        "status": "final",
        "subject": {
          "reference": "urn:uuid:fad19cb5-ec24-4489-b56e-191b159fbbcc",
          "display": "Meaghan Neary"
        },
        "effectiveDateTime": "2022-01-03T22:11:04Z",
        "specimen": {
          "reference": "urn:uuid:27f8aa4c-23d5-4e0e-9f1c-57ab7c1e7f3e"
        }
      }
    },
    {
      "fullUrl": "urn:uuid:a4120ceb-1e84-4a7d-a643-841194f7fb54",
      "resource": {
        "resourceType": "Observation",
        "id": "a4120ceb-1e84-4a7d-a643-841194f7fb54",
        "meta": {
          "profile": [
            "http://hl7.eu/fhir/laboratory/StructureDefinition/Observation-resultslab-eu-lab"
          ]
        },
        "performer": [
          {
            "display": "The Central European Lab"
          }
        ],
        "category": [
          {
            "coding": [
              {
                "system": "http://terminology.hl7.org/CodeSystem/observation-category",
                "code": "laboratory"
              }
            ]
          }
        ],
        "code": {
          "coding": [
            {
              "code": "2160-0",
              "system": "http://loinc.org",
              "display": "Creatinine [Mass/volume] in Serum or Plasma"
            }
          ],
          "text": "Creatinine [Mass/volume] in Serum or Plasma"
        },
        "valueQuantity": {
          "system": "http://unitsofmeasure.org",
          "value": 2.1,
          "unit": "mg/dL",
          "code": "mg/dL"
        },
        "referenceRange": [
          {
            "low": {
              "value": 0.6,
              "code": "mg/dL",
              "system": "http://unitsofmeasure.org"
            }
          },
          {
            "high": {
              "value": 1.1,
              "code": "mg/dL",
              "system": "http://unitsofmeasure.org"
            }
          }
        ],
        "interpretation": [
          {
            "coding": [
              {
                "code": "H",
                "system": "http://terminology.hl7.org/CodeSystem/v3-ObservationInterpretation",
                "display": "High"
              }
            ]
          }
        ],
        "text": {
          "status": "generated",
          "div": "<div xmlns=\"http://www.w3.org/1999/xhtml\"><table class=\"hl7__eu__lab__report\"><tr><th>Test</th><th>03-Jan-2022</th><th>Reference&#xA0;Range</th><th>Unit</th></tr><tr><td>Creatinine [Mass/volume] in Serum or Plasma</td><td>2.1</td><td>0.6 - 1.1</td><td>H</td><td>mg/dL</td></tr></table></div>"
        },
        "status": "final",
        "subject": {
          "reference": "urn:uuid:fad19cb5-ec24-4489-b56e-191b159fbbcc",
          "display": "Meaghan Neary"
        },
        "effectiveDateTime": "2022-01-03T22:11:04Z",
        "specimen": {
          "reference": "urn:uuid:27f8aa4c-23d5-4e0e-9f1c-57ab7c1e7f3e"
        }
      }
    },
    {
      "fullUrl": "urn:uuid:fd5671a2-26ae-4ef7-871a-ed3783f47cdb",
      "resource": {
        "resourceType": "Observation",
        "id": "fd5671a2-26ae-4ef7-871a-ed3783f47cdb",
        "meta": {
          "profile": [
            "http://hl7.eu/fhir/laboratory/StructureDefinition/Observation-resultslab-eu-lab"
          ]
        },
        "performer": [
          {
            "display": "The Central European Lab"
          }
        ],
        "category": [
          {
            "coding": [
              {
                "system": "http://terminology.hl7.org/CodeSystem/observation-category",
                "code": "laboratory"
              }
            ]
          }
        ],
        "code": {
          "coding": [
            {
              "code": "17861-6",
              "system": "http://loinc.org",
              "display": "Calcium [Mass/volume] in Serum or Plasma"
            }
          ],
          "text": "Calcium [Mass/volume] in Serum or Plasma"
        },
        "valueQuantity": {
          "system": "http://unitsofmeasure.org",
          "value": 9.8,
          "unit": "mg/dL",
          "code": "mg/dL"
        },
        "referenceRange": [
          {
            "low": {
              "value": 8.6,
              "code": "mg/dL",
              "system": "http://unitsofmeasure.org"
            }
          },
          {
            "high": {
              "value": 10.4,
              "code": "mg/dL",
              "system": "http://unitsofmeasure.org"
            }
          }
        ],
        "text": {
          "status": "generated",
          "div": "<div xmlns=\"http://www.w3.org/1999/xhtml\"><table class=\"hl7__eu__lab__report\"><tr><th>Test</th><th>03-Jan-2022</th><th>Reference&#xA0;Range</th><th>Unit</th></tr><tr><td>Calcium [Mass/volume] in Serum or Plasma</td><td>9.8</td><td>8.6 - 10.4</td><td></td><td>mg/dL</td></tr></table></div>"
        },
        "status": "final",
        "subject": {
          "reference": "urn:uuid:fad19cb5-ec24-4489-b56e-191b159fbbcc",
          "display": "Meaghan Neary"
        },
        "effectiveDateTime": "2022-01-03T22:11:04Z",
        "specimen": {
          "reference": "urn:uuid:27f8aa4c-23d5-4e0e-9f1c-57ab7c1e7f3e"
        }
      }
    },
    {
      "fullUrl": "urn:uuid:5f2386dc-c6de-4eee-bc16-d1a0db0f984e",
      "resource": {
        "resourceType": "Observation",
        "id": "5f2386dc-c6de-4eee-bc16-d1a0db0f984e",
        "meta": {
          "profile": [
            "http://hl7.eu/fhir/laboratory/StructureDefinition/Observation-resultslab-eu-lab"
          ]
        },
        "performer": [
          {
            "display": "The Central European Lab"
          }
        ],
        "category": [
          {
            "coding": [
              {
                "system": "http://terminology.hl7.org/CodeSystem/observation-category",
                "code": "laboratory"
              }
            ]
          }
        ],
        "code": {
          "coding": [
            {
              "code": "2951-2",
              "system": "http://loinc.org",
              "display": "Sodium [Moles/volume] in Serum or Plasma"
            }
          ],
          "text": "Sodium [Moles/volume] in Serum or Plasma"
        },
        "valueQuantity": {
          "system": "http://unitsofmeasure.org",
          "value": 141.7,
          "unit": "mmol/L",
          "code": "mmol/L"
        },
        "referenceRange": [
          {
            "low": {
              "value": 135,
              "code": "mmol/L",
              "system": "http://unitsofmeasure.org"
            }
          },
          {
            "high": {
              "value": 145,
              "code": "mmol/L",
              "system": "http://unitsofmeasure.org"
            }
          }
        ],
        "text": {
          "status": "generated",
          "div": "<div xmlns=\"http://www.w3.org/1999/xhtml\"><table class=\"hl7__eu__lab__report\"><tr><th>Test</th><th>03-Jan-2022</th><th>Reference&#xA0;Range</th><th>Unit</th></tr><tr><td>Sodium [Moles/volume] in Serum or Plasma</td><td>141.7</td><td>135 - 145</td><td></td><td>mmol/L</td></tr></table></div>"
        },
        "status": "final",
        "subject": {
          "reference": "urn:uuid:fad19cb5-ec24-4489-b56e-191b159fbbcc",
          "display": "Meaghan Neary"
        },
        "effectiveDateTime": "2022-01-03T22:11:04Z",
        "specimen": {
          "reference": "urn:uuid:27f8aa4c-23d5-4e0e-9f1c-57ab7c1e7f3e"
        }
      }
    },
    {
      "fullUrl": "urn:uuid:167aafb8-b438-4a80-bf7b-552a48de541b",
      "resource": {
        "resourceType": "Observation",
        "id": "167aafb8-b438-4a80-bf7b-552a48de541b",
        "meta": {
          "profile": [
            "http://hl7.eu/fhir/laboratory/StructureDefinition/Observation-resultslab-eu-lab"
          ]
        },
        "performer": [
          {
            "display": "The Central European Lab"
          }
        ],
        "category": [
          {
            "coding": [
              {
                "system": "http://terminology.hl7.org/CodeSystem/observation-category",
                "code": "laboratory"
              }
            ]
          }
        ],
        "code": {
          "coding": [
            {
              "code": "2823-3",
              "system": "http://loinc.org",
              "display": "Potassium [Moles/volume] in Serum or Plasma"
            }
          ],
          "text": "Potassium [Moles/volume] in Serum or Plasma"
        },
        "valueQuantity": {
          "system": "http://unitsofmeasure.org",
          "value": 4.3,
          "unit": "mmol/L",
          "code": "mmol/L"
        },
        "referenceRange": [
          {
            "low": {
              "value": 3.5,
              "code": "mmol/L",
              "system": "http://unitsofmeasure.org"
            }
          },
          {
            "high": {
              "value": 5.1,
              "code": "mmol/L",
              "system": "http://unitsofmeasure.org"
            }
          }
        ],
        "text": {
          "status": "generated",
          "div": "<div xmlns=\"http://www.w3.org/1999/xhtml\"><table class=\"hl7__eu__lab__report\"><tr><th>Test</th><th>03-Jan-2022</th><th>Reference&#xA0;Range</th><th>Unit</th></tr><tr><td>Potassium [Moles/volume] in Serum or Plasma</td><td>4.3</td><td>3.5 - 5.1</td><td></td><td>mmol/L</td></tr></table></div>"
        },
        "status": "final",
        "subject": {
          "reference": "urn:uuid:fad19cb5-ec24-4489-b56e-191b159fbbcc",
          "display": "Meaghan Neary"
        },
        "effectiveDateTime": "2022-01-03T22:11:04Z",
        "specimen": {
          "reference": "urn:uuid:27f8aa4c-23d5-4e0e-9f1c-57ab7c1e7f3e"
        }
      }
    },
    {
      "fullUrl": "urn:uuid:08993b5a-9463-403a-9b62-e0044fab555c",
      "resource": {
        "resourceType": "Observation",
        "id": "08993b5a-9463-403a-9b62-e0044fab555c",
        "meta": {
          "profile": [
            "http://hl7.eu/fhir/laboratory/StructureDefinition/Observation-resultslab-eu-lab"
          ]
        },
        "performer": [
          {
            "display": "The Central European Lab"
          }
        ],
        "category": [
          {
            "coding": [
              {
                "system": "http://terminology.hl7.org/CodeSystem/observation-category",
                "code": "laboratory"
              }
            ]
          }
        ],
        "code": {
          "coding": [
            {
              "code": "2075-0",
              "system": "http://loinc.org",
              "display": "Chloride [Moles/volume] in Serum or Plasma"
            }
          ],
          "text": "Chloride [Moles/volume] in Serum or Plasma"
        },
        "valueQuantity": {
          "system": "http://unitsofmeasure.org",
          "value": 106.8,
          "unit": "mmol/L",
          "code": "mmol/L"
        },
        "referenceRange": [
          {
            "low": {
              "value": 98,
              "code": "mmol/L",
              "system": "http://unitsofmeasure.org"
            }
          },
          {
            "high": {
              "value": 108,
              "code": "mmol/L",
              "system": "http://unitsofmeasure.org"
            }
          }
        ],
        "text": {
          "status": "generated",
          "div": "<div xmlns=\"http://www.w3.org/1999/xhtml\"><table class=\"hl7__eu__lab__report\"><tr><th>Test</th><th>03-Jan-2022</th><th>Reference&#xA0;Range</th><th>Unit</th></tr><tr><td>Chloride [Moles/volume] in Serum or Plasma</td><td>106.8</td><td>98 - 108</td><td></td><td>mmol/L</td></tr></table></div>"
        },
        "status": "final",
        "subject": {
          "reference": "urn:uuid:fad19cb5-ec24-4489-b56e-191b159fbbcc",
          "display": "Meaghan Neary"
        },
        "effectiveDateTime": "2022-01-03T22:11:04Z",
        "specimen": {
          "reference": "urn:uuid:27f8aa4c-23d5-4e0e-9f1c-57ab7c1e7f3e"
        }
      }
    },
    {
      "fullUrl": "urn:uuid:0e429941-5a32-4f07-9b4e-6feba1c8d668",
      "resource": {
        "resourceType": "Observation",
        "id": "0e429941-5a32-4f07-9b4e-6feba1c8d668",
        "meta": {
          "profile": [
            "http://hl7.eu/fhir/laboratory/StructureDefinition/Observation-resultslab-eu-lab"
          ]
        },
        "performer": [
          {
            "display": "The Central European Lab"
          }
        ],
        "category": [
          {
            "coding": [
              {
                "system": "http://terminology.hl7.org/CodeSystem/observation-category",
                "code": "laboratory"
              }
            ]
          }
        ],
        "code": {
          "coding": [
            {
              "code": "2028-9",
              "system": "http://loinc.org",
              "display": "Carbon dioxide, total [Moles/volume] in Serum or Plasma"
            }
          ],
          "text": "Carbon dioxide, total [Moles/volume] in Serum or Plasma"
        },
        "valueQuantity": {
          "system": "http://unitsofmeasure.org",
          "value": 20.9,
          "unit": "mmol/L",
          "code": "mmol/L"
        },
        "referenceRange": [
          {
            "low": {
              "value": 22,
              "code": "mmol/L",
              "system": "http://unitsofmeasure.org"
            }
          },
          {
            "high": {
              "value": 32,
              "code": "mmol/L",
              "system": "http://unitsofmeasure.org"
            }
          }
        ],
        "interpretation": [
          {
            "coding": [
              {
                "code": "L",
                "system": "http://terminology.hl7.org/CodeSystem/v3-ObservationInterpretation",
                "display": "Low"
              }
            ]
          }
        ],
        "text": {
          "status": "generated",
          "div": "<div xmlns=\"http://www.w3.org/1999/xhtml\"><table class=\"hl7__eu__lab__report\"><tr><th>Test</th><th>03-Jan-2022</th><th>Reference&#xA0;Range</th><th>Unit</th></tr><tr><td>Carbon dioxide, total [Moles/volume] in Serum or Plasma</td><td>20.9</td><td>22 - 32</td><td>L</td><td>mmol/L</td></tr></table></div>"
        },
        "status": "final",
        "subject": {
          "reference": "urn:uuid:fad19cb5-ec24-4489-b56e-191b159fbbcc",
          "display": "Meaghan Neary"
        },
        "effectiveDateTime": "2022-01-03T22:11:04Z",
        "specimen": {
          "reference": "urn:uuid:27f8aa4c-23d5-4e0e-9f1c-57ab7c1e7f3e"
        }
      }
    },
    {
      "fullUrl": "urn:uuid:f2aa6348-3af6-4afb-ac5b-c262467d4888",
      "resource": {
        "resourceType": "Observation",
        "id": "f2aa6348-3af6-4afb-ac5b-c262467d4888",
        "meta": {
          "profile": [
            "http://hl7.eu/fhir/laboratory/StructureDefinition/Observation-resultslab-eu-lab"
          ]
        },
        "performer": [
          {
            "display": "The Central European Lab"
          }
        ],
        "category": [
          {
            "coding": [
              {
                "system": "http://terminology.hl7.org/CodeSystem/observation-category",
                "code": "laboratory"
              }
            ]
          }
        ],
        "code": {
          "coding": [
            {
              "code": "5767-9",
              "system": "http://loinc.org",
              "display": "Appearance of Urine"
            }
          ],
          "text": "Appearance of Urine"
        },
        "text": {
          "status": "generated",
          "div": "<div xmlns=\"http://www.w3.org/1999/xhtml\"><table class=\"hl7__eu__lab__report\"><tr><th>Test</th><th>03-Jan-2022</th><th>Reference&#xA0;Range</th><th>Unit</th></tr><tr><td>Appearance of Urine</td></tr></table></div>"
        },
        "status": "final",
        "subject": {
          "reference": "urn:uuid:fad19cb5-ec24-4489-b56e-191b159fbbcc",
          "display": "Meaghan Neary"
        },
        "effectiveDateTime": "2022-01-03T22:11:04Z",
        "specimen": {
          "reference": "urn:uuid:ef15117f-75a2-4c80-94ba-bf73a43f8aaf"
        }
      }
    },
    {
      "fullUrl": "urn:uuid:ef9b0ecb-e430-4a99-a13e-9185f828f997",
      "resource": {
        "resourceType": "Observation",
        "id": "ef9b0ecb-e430-4a99-a13e-9185f828f997",
        "meta": {
          "profile": [
            "http://hl7.eu/fhir/laboratory/StructureDefinition/Observation-resultslab-eu-lab"
          ]
        },
        "performer": [
          {
            "display": "The Central European Lab"
          }
        ],
        "category": [
          {
            "coding": [
              {
                "system": "http://terminology.hl7.org/CodeSystem/observation-category",
                "code": "laboratory"
              }
            ]
          }
        ],
        "code": {
          "coding": [
            {
              "code": "34533-0",
              "system": "http://loinc.org",
              "display": "Odor of Urine"
            }
          ],
          "text": "Odor of Urine"
        },
        "text": {
          "status": "generated",
          "div": "<div xmlns=\"http://www.w3.org/1999/xhtml\"><table class=\"hl7__eu__lab__report\"><tr><th>Test</th><th>03-Jan-2022</th><th>Reference&#xA0;Range</th><th>Unit</th></tr><tr><td>Odor of Urine</td></tr></table></div>"
        },
        "status": "final",
        "subject": {
          "reference": "urn:uuid:fad19cb5-ec24-4489-b56e-191b159fbbcc",
          "display": "Meaghan Neary"
        },
        "effectiveDateTime": "2022-01-03T22:11:04Z",
        "specimen": {
          "reference": "urn:uuid:ef15117f-75a2-4c80-94ba-bf73a43f8aaf"
        }
      }
    },
    {
      "fullUrl": "urn:uuid:9a39d516-63e8-463c-801d-a544ca0266f5",
      "resource": {
        "resourceType": "Observation",
        "id": "9a39d516-63e8-463c-801d-a544ca0266f5",
        "meta": {
          "profile": [
            "http://hl7.eu/fhir/laboratory/StructureDefinition/Observation-resultslab-eu-lab"
          ]
        },
        "performer": [
          {
            "display": "The Central European Lab"
          }
        ],
        "category": [
          {
            "coding": [
              {
                "system": "http://terminology.hl7.org/CodeSystem/observation-category",
                "code": "laboratory"
              }
            ]
          }
        ],
        "code": {
          "coding": [
            {
              "code": "32167-9",
              "system": "http://loinc.org",
              "display": "Clarity of Urine"
            }
          ],
          "text": "Clarity of Urine"
        },
        "text": {
          "status": "generated",
          "div": "<div xmlns=\"http://www.w3.org/1999/xhtml\"><table class=\"hl7__eu__lab__report\"><tr><th>Test</th><th>03-Jan-2022</th><th>Reference&#xA0;Range</th><th>Unit</th></tr><tr><td>Clarity of Urine</td></tr></table></div>"
        },
        "status": "final",
        "subject": {
          "reference": "urn:uuid:fad19cb5-ec24-4489-b56e-191b159fbbcc",
          "display": "Meaghan Neary"
        },
        "effectiveDateTime": "2022-01-03T22:11:04Z",
        "specimen": {
          "reference": "urn:uuid:ef15117f-75a2-4c80-94ba-bf73a43f8aaf"
        }
      }
    },
    {
      "fullUrl": "urn:uuid:a45202ed-2b18-403a-a4b3-81ea17c83c5e",
      "resource": {
        "resourceType": "Observation",
        "id": "a45202ed-2b18-403a-a4b3-81ea17c83c5e",
        "meta": {
          "profile": [
            "http://hl7.eu/fhir/laboratory/StructureDefinition/Observation-resultslab-eu-lab"
          ]
        },
        "performer": [
          {
            "display": "The Central European Lab"
          }
        ],
        "category": [
          {
            "coding": [
              {
                "system": "http://terminology.hl7.org/CodeSystem/observation-category",
                "code": "laboratory"
              }
            ]
          }
        ],
        "code": {
          "coding": [
            {
              "code": "5778-6",
              "system": "http://loinc.org",
              "display": "Color of Urine"
            }
          ],
          "text": "Color of Urine"
        },
        "text": {
          "status": "generated",
          "div": "<div xmlns=\"http://www.w3.org/1999/xhtml\"><table class=\"hl7__eu__lab__report\"><tr><th>Test</th><th>03-Jan-2022</th><th>Reference&#xA0;Range</th><th>Unit</th></tr><tr><td>Color of Urine</td></tr></table></div>"
        },
        "status": "final",
        "subject": {
          "reference": "urn:uuid:fad19cb5-ec24-4489-b56e-191b159fbbcc",
          "display": "Meaghan Neary"
        },
        "effectiveDateTime": "2022-01-03T22:11:04Z",
        "specimen": {
          "reference": "urn:uuid:ef15117f-75a2-4c80-94ba-bf73a43f8aaf"
        }
      }
    },
    {
      "fullUrl": "urn:uuid:805135d8-5f6a-44cf-8249-d57f75b4b44c",
      "resource": {
        "resourceType": "Observation",
        "id": "805135d8-5f6a-44cf-8249-d57f75b4b44c",
        "meta": {
          "profile": [
            "http://hl7.eu/fhir/laboratory/StructureDefinition/Observation-resultslab-eu-lab"
          ]
        },
        "performer": [
          {
            "display": "The Central European Lab"
          }
        ],
        "category": [
          {
            "coding": [
              {
                "system": "http://terminology.hl7.org/CodeSystem/observation-category",
                "code": "laboratory"
              }
            ]
          }
        ],
        "code": {
          "coding": [
            {
              "code": "5792-7",
              "system": "http://loinc.org",
              "display": "Glucose [Mass/volume] in Urine by Test strip"
            }
          ],
          "text": "Glucose [Mass/volume] in Urine by Test strip"
        },
        "valueQuantity": {
          "system": "http://unitsofmeasure.org",
          "value": 0.9,
          "unit": "mg/dL",
          "code": "mg/dL"
        },
        "referenceRange": [
          {
            "low": {
              "value": 0.8,
              "code": "mg/dL",
              "system": "http://unitsofmeasure.org"
            }
          },
          {
            "high": {
              "value": 0,
              "code": "mg/dL",
              "system": "http://unitsofmeasure.org"
            }
          }
        ],
        "interpretation": [
          {
            "coding": [
              {
                "code": "H",
                "system": "http://terminology.hl7.org/CodeSystem/v3-ObservationInterpretation",
                "display": "High"
              }
            ]
          }
        ],
        "text": {
          "status": "generated",
          "div": "<div xmlns=\"http://www.w3.org/1999/xhtml\"><table class=\"hl7__eu__lab__report\"><tr><th>Test</th><th>03-Jan-2022</th><th>Reference&#xA0;Range</th><th>Unit</th></tr><tr><td>Glucose [Mass/volume] in Urine by Test strip</td><td>0.9</td><td>0.8 - 0</td><td>H</td><td>mg/dL</td></tr></table></div>"
        },
        "status": "final",
        "subject": {
          "reference": "urn:uuid:fad19cb5-ec24-4489-b56e-191b159fbbcc",
          "display": "Meaghan Neary"
        },
        "effectiveDateTime": "2022-01-03T22:11:04Z",
        "specimen": {
          "reference": "urn:uuid:ef15117f-75a2-4c80-94ba-bf73a43f8aaf"
        }
      }
    },
    {
      "fullUrl": "urn:uuid:0d000173-94fb-4e28-bd78-e1996b525417",
      "resource": {
        "resourceType": "Observation",
        "id": "0d000173-94fb-4e28-bd78-e1996b525417",
        "meta": {
          "profile": [
            "http://hl7.eu/fhir/laboratory/StructureDefinition/Observation-resultslab-eu-lab"
          ]
        },
        "performer": [
          {
            "display": "The Central European Lab"
          }
        ],
        "category": [
          {
            "coding": [
              {
                "system": "http://terminology.hl7.org/CodeSystem/observation-category",
                "code": "laboratory"
              }
            ]
          }
        ],
        "code": {
          "coding": [
            {
              "code": "25428-4",
              "system": "http://loinc.org",
              "display": "Glucose [Presence] in Urine by Test strip"
            }
          ],
          "text": "Glucose [Presence] in Urine by Test strip"
        },
        "text": {
          "status": "generated",
          "div": "<div xmlns=\"http://www.w3.org/1999/xhtml\"><table class=\"hl7__eu__lab__report\"><tr><th>Test</th><th>03-Jan-2022</th><th>Reference&#xA0;Range</th><th>Unit</th></tr><tr><td>Glucose [Presence] in Urine by Test strip</td></tr></table></div>"
        },
        "status": "final",
        "subject": {
          "reference": "urn:uuid:fad19cb5-ec24-4489-b56e-191b159fbbcc",
          "display": "Meaghan Neary"
        },
        "effectiveDateTime": "2022-01-03T22:11:04Z",
        "specimen": {
          "reference": "urn:uuid:ef15117f-75a2-4c80-94ba-bf73a43f8aaf"
        }
      }
    },
    {
      "fullUrl": "urn:uuid:fcb7407b-f12c-457b-bc5f-3df207e026cc",
      "resource": {
        "resourceType": "Observation",
        "id": "fcb7407b-f12c-457b-bc5f-3df207e026cc",
        "meta": {
          "profile": [
            "http://hl7.eu/fhir/laboratory/StructureDefinition/Observation-resultslab-eu-lab"
          ]
        },
        "performer": [
          {
            "display": "The Central European Lab"
          }
        ],
        "category": [
          {
            "coding": [
              {
                "system": "http://terminology.hl7.org/CodeSystem/observation-category",
                "code": "laboratory"
              }
            ]
          }
        ],
        "code": {
          "coding": [
            {
              "code": "20505-4",
              "system": "http://loinc.org",
              "display": "Bilirubin.total [Mass/volume] in Urine by Test strip"
            }
          ],
          "text": "Bilirubin.total [Mass/volume] in Urine by Test strip"
        },
        "valueQuantity": {
          "system": "http://unitsofmeasure.org",
          "value": 0.3,
          "unit": "mg/dL",
          "code": "mg/dL"
        },
        "referenceRange": [
          {
            "low": {
              "value": 0,
              "code": "mg/dL",
              "system": "http://unitsofmeasure.org"
            }
          },
          {
            "high": {
              "value": 1,
              "code": "mg/dL",
              "system": "http://unitsofmeasure.org"
            }
          }
        ],
        "text": {
          "status": "generated",
          "div": "<div xmlns=\"http://www.w3.org/1999/xhtml\"><table class=\"hl7__eu__lab__report\"><tr><th>Test</th><th>03-Jan-2022</th><th>Reference&#xA0;Range</th><th>Unit</th></tr><tr><td>Bilirubin.total [Mass/volume] in Urine by Test strip</td><td>0.3</td><td>0 - 1</td><td></td><td>mg/dL</td></tr></table></div>"
        },
        "status": "final",
        "subject": {
          "reference": "urn:uuid:fad19cb5-ec24-4489-b56e-191b159fbbcc",
          "display": "Meaghan Neary"
        },
        "effectiveDateTime": "2022-01-03T22:11:04Z",
        "specimen": {
          "reference": "urn:uuid:ef15117f-75a2-4c80-94ba-bf73a43f8aaf"
        }
      }
    },
    {
      "fullUrl": "urn:uuid:70a873a7-2ace-4efe-bcc1-d9c22f9442ff",
      "resource": {
        "resourceType": "Observation",
        "id": "70a873a7-2ace-4efe-bcc1-d9c22f9442ff",
        "meta": {
          "profile": [
            "http://hl7.eu/fhir/laboratory/StructureDefinition/Observation-resultslab-eu-lab"
          ]
        },
        "performer": [
          {
            "display": "The Central European Lab"
          }
        ],
        "category": [
          {
            "coding": [
              {
                "system": "http://terminology.hl7.org/CodeSystem/observation-category",
                "code": "laboratory"
              }
            ]
          }
        ],
        "code": {
          "coding": [
            {
              "code": "5770-3",
              "system": "http://loinc.org",
              "display": "Bilirubin.total [Presence] in Urine by Test strip"
            }
          ],
          "text": "Bilirubin.total [Presence] in Urine by Test strip"
        },
        "text": {
          "status": "generated",
          "div": "<div xmlns=\"http://www.w3.org/1999/xhtml\"><table class=\"hl7__eu__lab__report\"><tr><th>Test</th><th>03-Jan-2022</th><th>Reference&#xA0;Range</th><th>Unit</th></tr><tr><td>Bilirubin.total [Presence] in Urine by Test strip</td></tr></table></div>"
        },
        "status": "final",
        "subject": {
          "reference": "urn:uuid:fad19cb5-ec24-4489-b56e-191b159fbbcc",
          "display": "Meaghan Neary"
        },
        "effectiveDateTime": "2022-01-03T22:11:04Z",
        "specimen": {
          "reference": "urn:uuid:ef15117f-75a2-4c80-94ba-bf73a43f8aaf"
        }
      }
    },
    {
      "fullUrl": "urn:uuid:bf52d603-4596-407d-903d-942823fca151",
      "resource": {
        "resourceType": "Observation",
        "id": "bf52d603-4596-407d-903d-942823fca151",
        "meta": {
          "profile": [
            "http://hl7.eu/fhir/laboratory/StructureDefinition/Observation-resultslab-eu-lab"
          ]
        },
        "performer": [
          {
            "display": "The Central European Lab"
          }
        ],
        "category": [
          {
            "coding": [
              {
                "system": "http://terminology.hl7.org/CodeSystem/observation-category",
                "code": "laboratory"
              }
            ]
          }
        ],
        "code": {
          "coding": [
            {
              "code": "5797-6",
              "system": "http://loinc.org",
              "display": "Ketones [Mass/volume] in Urine by Test strip"
            }
          ],
          "text": "Ketones [Mass/volume] in Urine by Test strip"
        },
        "valueQuantity": {
          "system": "http://unitsofmeasure.org",
          "value": 18.4,
          "unit": "mg/dL",
          "code": "mg/dL"
        },
        "referenceRange": [
          {
            "low": {
              "value": 0,
              "code": "mg/dL",
              "system": "http://unitsofmeasure.org"
            }
          },
          {
            "high": {
              "value": 4,
              "code": "mg/dL",
              "system": "http://unitsofmeasure.org"
            }
          }
        ],
        "interpretation": [
          {
            "coding": [
              {
                "code": "H",
                "system": "http://terminology.hl7.org/CodeSystem/v3-ObservationInterpretation",
                "display": "High"
              }
            ]
          }
        ],
        "text": {
          "status": "generated",
          "div": "<div xmlns=\"http://www.w3.org/1999/xhtml\"><table class=\"hl7__eu__lab__report\"><tr><th>Test</th><th>03-Jan-2022</th><th>Reference&#xA0;Range</th><th>Unit</th></tr><tr><td>Ketones [Mass/volume] in Urine by Test strip</td><td>18.4</td><td>0 - 4</td><td>H</td><td>mg/dL</td></tr></table></div>"
        },
        "status": "final",
        "subject": {
          "reference": "urn:uuid:fad19cb5-ec24-4489-b56e-191b159fbbcc",
          "display": "Meaghan Neary"
        },
        "effectiveDateTime": "2022-01-03T22:11:04Z",
        "specimen": {
          "reference": "urn:uuid:ef15117f-75a2-4c80-94ba-bf73a43f8aaf"
        }
      }
    },
    {
      "fullUrl": "urn:uuid:52333ff6-39a5-4842-af3a-3b81d14e96ef",
      "resource": {
        "resourceType": "Observation",
        "id": "52333ff6-39a5-4842-af3a-3b81d14e96ef",
        "meta": {
          "profile": [
            "http://hl7.eu/fhir/laboratory/StructureDefinition/Observation-resultslab-eu-lab"
          ]
        },
        "performer": [
          {
            "display": "The Central European Lab"
          }
        ],
        "category": [
          {
            "coding": [
              {
                "system": "http://terminology.hl7.org/CodeSystem/observation-category",
                "code": "laboratory"
              }
            ]
          }
        ],
        "code": {
          "coding": [
            {
              "code": "2514-8",
              "system": "http://loinc.org",
              "display": "Ketones [Presence] in Urine by Test strip"
            }
          ],
          "text": "Ketones [Presence] in Urine by Test strip"
        },
        "text": {
          "status": "generated",
          "div": "<div xmlns=\"http://www.w3.org/1999/xhtml\"><table class=\"hl7__eu__lab__report\"><tr><th>Test</th><th>03-Jan-2022</th><th>Reference&#xA0;Range</th><th>Unit</th></tr><tr><td>Ketones [Presence] in Urine by Test strip</td></tr></table></div>"
        },
        "status": "final",
        "subject": {
          "reference": "urn:uuid:fad19cb5-ec24-4489-b56e-191b159fbbcc",
          "display": "Meaghan Neary"
        },
        "effectiveDateTime": "2022-01-03T22:11:04Z",
        "specimen": {
          "reference": "urn:uuid:ef15117f-75a2-4c80-94ba-bf73a43f8aaf"
        }
      }
    },
    {
      "fullUrl": "urn:uuid:354c7c93-1a80-410f-99bd-88e0b6415f98",
      "resource": {
        "resourceType": "Observation",
        "id": "354c7c93-1a80-410f-99bd-88e0b6415f98",
        "meta": {
          "profile": [
            "http://hl7.eu/fhir/laboratory/StructureDefinition/Observation-resultslab-eu-lab"
          ]
        },
        "performer": [
          {
            "display": "The Central European Lab"
          }
        ],
        "category": [
          {
            "coding": [
              {
                "system": "http://terminology.hl7.org/CodeSystem/observation-category",
                "code": "laboratory"
              }
            ]
          }
        ],
        "code": {
          "coding": [
            {
              "code": "5811-5",
              "system": "http://loinc.org",
              "display": "Specific gravity of Urine by Test strip"
            }
          ],
          "text": "Specific gravity of Urine by Test strip"
        },
        "valueQuantity": {
          "system": "http://unitsofmeasure.org",
          "value": 1,
          "unit": "{nominal}",
          "code": "{nominal}"
        },
        "referenceRange": [
          {
            "low": {
              "value": 1.005,
              "code": "g/mL",
              "system": "http://unitsofmeasure.org"
            }
          },
          {
            "high": {
              "value": 1.03,
              "code": "g/mL",
              "system": "http://unitsofmeasure.org"
            }
          }
        ],
        "interpretation": [
          {
            "coding": [
              {
                "code": "L",
                "system": "http://terminology.hl7.org/CodeSystem/v3-ObservationInterpretation",
                "display": "Low"
              }
            ]
          }
        ],
        "text": {
          "status": "generated",
          "div": "<div xmlns=\"http://www.w3.org/1999/xhtml\"><table class=\"hl7__eu__lab__report\"><tr><th>Test</th><th>03-Jan-2022</th><th>Reference&#xA0;Range</th><th>Unit</th></tr><tr><td>Specific gravity of Urine by Test strip</td><td>1.0</td><td>1.005 - 1.03</td><td>L</td><td>{nominal}</td></tr></table></div>"
        },
        "status": "final",
        "subject": {
          "reference": "urn:uuid:fad19cb5-ec24-4489-b56e-191b159fbbcc",
          "display": "Meaghan Neary"
        },
        "effectiveDateTime": "2022-01-03T22:11:04Z",
        "specimen": {
          "reference": "urn:uuid:ef15117f-75a2-4c80-94ba-bf73a43f8aaf"
        }
      }
    },
    {
      "fullUrl": "urn:uuid:b06fca6b-172d-41cd-a1eb-520cbc9b4520",
      "resource": {
        "resourceType": "Observation",
        "id": "b06fca6b-172d-41cd-a1eb-520cbc9b4520",
        "meta": {
          "profile": [
            "http://hl7.eu/fhir/laboratory/StructureDefinition/Observation-resultslab-eu-lab"
          ]
        },
        "performer": [
          {
            "display": "The Central European Lab"
          }
        ],
        "category": [
          {
            "coding": [
              {
                "system": "http://terminology.hl7.org/CodeSystem/observation-category",
                "code": "laboratory"
              }
            ]
          }
        ],
        "code": {
          "coding": [
            {
              "code": "5803-2",
              "system": "http://loinc.org",
              "display": "pH of Urine by Test strip"
            }
          ],
          "text": "pH of Urine by Test strip"
        },
        "valueQuantity": {
          "system": "http://unitsofmeasure.org",
          "value": 6.1,
          "unit": "pH",
          "code": "pH"
        },
        "referenceRange": [
          {
            "low": {
              "value": 4.6,
              "code": "pH",
              "system": "http://unitsofmeasure.org"
            }
          },
          {
            "high": {
              "value": 7,
              "code": "pH",
              "system": "http://unitsofmeasure.org"
            }
          }
        ],
        "text": {
          "status": "generated",
          "div": "<div xmlns=\"http://www.w3.org/1999/xhtml\"><table class=\"hl7__eu__lab__report\"><tr><th>Test</th><th>03-Jan-2022</th><th>Reference&#xA0;Range</th><th>Unit</th></tr><tr><td>pH of Urine by Test strip</td><td>6.1</td><td>4.6 - 7</td><td></td><td>pH</td></tr></table></div>"
        },
        "status": "final",
        "subject": {
          "reference": "urn:uuid:fad19cb5-ec24-4489-b56e-191b159fbbcc",
          "display": "Meaghan Neary"
        },
        "effectiveDateTime": "2022-01-03T22:11:04Z",
        "specimen": {
          "reference": "urn:uuid:ef15117f-75a2-4c80-94ba-bf73a43f8aaf"
        }
      }
    },
    {
      "fullUrl": "urn:uuid:a0f01ec4-7e3e-4eca-808d-5f8d4ebfb36c",
      "resource": {
        "resourceType": "Observation",
        "id": "a0f01ec4-7e3e-4eca-808d-5f8d4ebfb36c",
        "meta": {
          "profile": [
            "http://hl7.eu/fhir/laboratory/StructureDefinition/Observation-resultslab-eu-lab"
          ]
        },
        "performer": [
          {
            "display": "The Central European Lab"
          }
        ],
        "category": [
          {
            "coding": [
              {
                "system": "http://terminology.hl7.org/CodeSystem/observation-category",
                "code": "laboratory"
              }
            ]
          }
        ],
        "code": {
          "coding": [
            {
              "code": "5804-0",
              "system": "http://loinc.org",
              "display": "Protein [Mass/volume] in Urine by Test strip"
            }
          ],
          "text": "Protein [Mass/volume] in Urine by Test strip"
        },
        "valueQuantity": {
          "system": "http://unitsofmeasure.org",
          "value": 381.7,
          "unit": "mg/dL",
          "code": "mg/dL"
        },
        "referenceRange": [
          {
            "low": {
              "value": 0,
              "code": "mg/dL",
              "system": "http://unitsofmeasure.org"
            }
          },
          {
            "high": {
              "value": 14,
              "code": "mg/dL",
              "system": "http://unitsofmeasure.org"
            }
          }
        ],
        "interpretation": [
          {
            "coding": [
              {
                "code": "H",
                "system": "http://terminology.hl7.org/CodeSystem/v3-ObservationInterpretation",
                "display": "High"
              }
            ]
          }
        ],
        "text": {
          "status": "generated",
          "div": "<div xmlns=\"http://www.w3.org/1999/xhtml\"><table class=\"hl7__eu__lab__report\"><tr><th>Test</th><th>03-Jan-2022</th><th>Reference&#xA0;Range</th><th>Unit</th></tr><tr><td>Protein [Mass/volume] in Urine by Test strip</td><td>381.7</td><td>0 - 14</td><td>H</td><td>mg/dL</td></tr></table></div>"
        },
        "status": "final",
        "subject": {
          "reference": "urn:uuid:fad19cb5-ec24-4489-b56e-191b159fbbcc",
          "display": "Meaghan Neary"
        },
        "effectiveDateTime": "2022-01-03T22:11:04Z",
        "specimen": {
          "reference": "urn:uuid:ef15117f-75a2-4c80-94ba-bf73a43f8aaf"
        }
      }
    },
    {
      "fullUrl": "urn:uuid:274e3355-7661-49b5-8da2-20896996bdf8",
      "resource": {
        "resourceType": "Observation",
        "id": "274e3355-7661-49b5-8da2-20896996bdf8",
        "meta": {
          "profile": [
            "http://hl7.eu/fhir/laboratory/StructureDefinition/Observation-resultslab-eu-lab"
          ]
        },
        "performer": [
          {
            "display": "The Central European Lab"
          }
        ],
        "category": [
          {
            "coding": [
              {
                "system": "http://terminology.hl7.org/CodeSystem/observation-category",
                "code": "laboratory"
              }
            ]
          }
        ],
        "code": {
          "coding": [
            {
              "code": "20454-5",
              "system": "http://loinc.org",
              "display": "Protein [Presence] in Urine by Test strip"
            }
          ],
          "text": "Protein [Presence] in Urine by Test strip"
        },
        "text": {
          "status": "generated",
          "div": "<div xmlns=\"http://www.w3.org/1999/xhtml\"><table class=\"hl7__eu__lab__report\"><tr><th>Test</th><th>03-Jan-2022</th><th>Reference&#xA0;Range</th><th>Unit</th></tr><tr><td>Protein [Presence] in Urine by Test strip</td></tr></table></div>"
        },
        "status": "final",
        "subject": {
          "reference": "urn:uuid:fad19cb5-ec24-4489-b56e-191b159fbbcc",
          "display": "Meaghan Neary"
        },
        "effectiveDateTime": "2022-01-03T22:11:04Z",
        "specimen": {
          "reference": "urn:uuid:ef15117f-75a2-4c80-94ba-bf73a43f8aaf"
        }
      }
    },
    {
      "fullUrl": "urn:uuid:322b05a5-7ac2-4df2-af7d-cc8f39b64f8e",
      "resource": {
        "resourceType": "Observation",
        "id": "322b05a5-7ac2-4df2-af7d-cc8f39b64f8e",
        "meta": {
          "profile": [
            "http://hl7.eu/fhir/laboratory/StructureDefinition/Observation-resultslab-eu-lab"
          ]
        },
        "performer": [
          {
            "display": "The Central European Lab"
          }
        ],
        "category": [
          {
            "coding": [
              {
                "system": "http://terminology.hl7.org/CodeSystem/observation-category",
                "code": "laboratory"
              }
            ]
          }
        ],
        "code": {
          "coding": [
            {
              "code": "5802-4",
              "system": "http://loinc.org",
              "display": "Nitrite [Presence] in Urine by Test strip"
            }
          ],
          "text": "Nitrite [Presence] in Urine by Test strip"
        },
        "text": {
          "status": "generated",
          "div": "<div xmlns=\"http://www.w3.org/1999/xhtml\"><table class=\"hl7__eu__lab__report\"><tr><th>Test</th><th>03-Jan-2022</th><th>Reference&#xA0;Range</th><th>Unit</th></tr><tr><td>Nitrite [Presence] in Urine by Test strip</td></tr></table></div>"
        },
        "status": "final",
        "subject": {
          "reference": "urn:uuid:fad19cb5-ec24-4489-b56e-191b159fbbcc",
          "display": "Meaghan Neary"
        },
        "effectiveDateTime": "2022-01-03T22:11:04Z",
        "specimen": {
          "reference": "urn:uuid:ef15117f-75a2-4c80-94ba-bf73a43f8aaf"
        }
      }
    },
    {
      "fullUrl": "urn:uuid:c358ee4b-7d7d-4773-9f4c-495e355de65d",
      "resource": {
        "resourceType": "Observation",
        "id": "c358ee4b-7d7d-4773-9f4c-495e355de65d",
        "meta": {
          "profile": [
            "http://hl7.eu/fhir/laboratory/StructureDefinition/Observation-resultslab-eu-lab"
          ]
        },
        "performer": [
          {
            "display": "The Central European Lab"
          }
        ],
        "category": [
          {
            "coding": [
              {
                "system": "http://terminology.hl7.org/CodeSystem/observation-category",
                "code": "laboratory"
              }
            ]
          }
        ],
        "code": {
          "coding": [
            {
              "code": "5794-3",
              "system": "http://loinc.org",
              "display": "Hemoglobin [Presence] in Urine by Test strip"
            }
          ],
          "text": "Hemoglobin [Presence] in Urine by Test strip"
        },
        "text": {
          "status": "generated",
          "div": "<div xmlns=\"http://www.w3.org/1999/xhtml\"><table class=\"hl7__eu__lab__report\"><tr><th>Test</th><th>03-Jan-2022</th><th>Reference&#xA0;Range</th><th>Unit</th></tr><tr><td>Hemoglobin [Presence] in Urine by Test strip</td></tr></table></div>"
        },
        "status": "final",
        "subject": {
          "reference": "urn:uuid:fad19cb5-ec24-4489-b56e-191b159fbbcc",
          "display": "Meaghan Neary"
        },
        "effectiveDateTime": "2022-01-03T22:11:04Z",
        "specimen": {
          "reference": "urn:uuid:ef15117f-75a2-4c80-94ba-bf73a43f8aaf"
        }
      }
    },
    {
      "fullUrl": "urn:uuid:32dee466-00fd-4e2b-a42f-c313313d2963",
      "resource": {
        "resourceType": "Observation",
        "id": "32dee466-00fd-4e2b-a42f-c313313d2963",
        "meta": {
          "profile": [
            "http://hl7.eu/fhir/laboratory/StructureDefinition/Observation-resultslab-eu-lab"
          ]
        },
        "performer": [
          {
            "display": "The Central European Lab"
          }
        ],
        "category": [
          {
            "coding": [
              {
                "system": "http://terminology.hl7.org/CodeSystem/observation-category",
                "code": "laboratory"
              }
            ]
          }
        ],
        "code": {
          "coding": [
            {
              "code": "5799-2",
              "system": "http://loinc.org",
              "display": "Leukocyte esterase [Presence] in Urine by Test strip"
            }
          ],
          "text": "Leukocyte esterase [Presence] in Urine by Test strip"
        },
        "text": {
          "status": "generated",
          "div": "<div xmlns=\"http://www.w3.org/1999/xhtml\"><table class=\"hl7__eu__lab__report\"><tr><th>Test</th><th>03-Jan-2022</th><th>Reference&#xA0;Range</th><th>Unit</th></tr><tr><td>Leukocyte esterase [Presence] in Urine by Test strip</td></tr></table></div>"
        },
        "status": "final",
        "subject": {
          "reference": "urn:uuid:fad19cb5-ec24-4489-b56e-191b159fbbcc",
          "display": "Meaghan Neary"
        },
        "effectiveDateTime": "2022-01-03T22:11:04Z",
        "specimen": {
          "reference": "urn:uuid:ef15117f-75a2-4c80-94ba-bf73a43f8aaf"
        }
      }
    },
    {
      "fullUrl": "urn:uuid:a780b60a-5490-47b0-836a-e5b11952bc36",
      "resource": {
        "resourceType": "Observation",
        "id": "a780b60a-5490-47b0-836a-e5b11952bc36",
        "meta": {
          "profile": [
            "http://hl7.eu/fhir/laboratory/StructureDefinition/Observation-resultslab-eu-lab"
          ]
        },
        "performer": [
          {
            "display": "The Central European Lab"
          }
        ],
        "category": [
          {
            "coding": [
              {
                "system": "http://terminology.hl7.org/CodeSystem/observation-category",
                "code": "laboratory"
              }
            ]
          }
        ],
        "code": {
          "coding": [
            {
              "code": "4548-4",
              "system": "http://loinc.org",
              "display": "Hemoglobin A1c/Hemoglobin.total in Blood"
            }
          ],
          "text": "Hemoglobin A1c/Hemoglobin.total in Blood"
        },
        "valueQuantity": {
          "system": "http://unitsofmeasure.org",
          "value": 3.1,
          "unit": "%",
          "code": "%"
        },
        "referenceRange": [
          {
            "low": {
              "value": 4,
              "code": "%",
              "system": "http://unitsofmeasure.org"
            }
          },
          {
            "high": {
              "value": 6.4,
              "code": "%",
              "system": "http://unitsofmeasure.org"
            }
          }
        ],
        "interpretation": [
          {
            "coding": [
              {
                "code": "L",
                "system": "http://terminology.hl7.org/CodeSystem/v3-ObservationInterpretation",
                "display": "Low"
              }
            ]
          }
        ],
        "text": {
          "status": "generated",
          "div": "<div xmlns=\"http://www.w3.org/1999/xhtml\"><table class=\"hl7__eu__lab__report\"><tr><th>Test</th><th>03-Jan-2022</th><th>Reference&#xA0;Range</th><th>Unit</th></tr><tr><td>Hemoglobin A1c/Hemoglobin.total in Blood</td><td>3.1</td><td>4 - 6.4</td><td>L</td><td>%</td></tr></table></div>"
        },
        "status": "final",
        "subject": {
          "reference": "urn:uuid:fad19cb5-ec24-4489-b56e-191b159fbbcc",
          "display": "Meaghan Neary"
        },
        "effectiveDateTime": "2022-01-03T22:11:04Z",
        "specimen": {
          "reference": "urn:uuid:667ff780-137a-419c-839c-21bde60ed345"
        }
      }
    },
    {
      "fullUrl": "urn:uuid:078a4c87-5652-4b69-9e0a-97a129ac7301",
      "resource": {
        "resourceType": "Observation",
        "id": "078a4c87-5652-4b69-9e0a-97a129ac7301",
        "meta": {
          "profile": [
            "http://hl7.eu/fhir/laboratory/StructureDefinition/Observation-resultslab-eu-lab"
          ]
        },
        "performer": [
          {
            "display": "The Central European Lab"
          }
        ],
        "category": [
          {
            "coding": [
              {
                "system": "http://terminology.hl7.org/CodeSystem/observation-category",
                "code": "laboratory"
              }
            ]
          }
        ],
        "code": {
          "coding": [
            {
              "code": "2339-0",
              "system": "http://loinc.org",
              "display": "Glucose [Mass/volume] in Blood"
            }
          ],
          "text": "Glucose [Mass/volume] in Blood"
        },
        "valueQuantity": {
          "system": "http://unitsofmeasure.org",
          "value": 65.5,
          "unit": "mg/dL",
          "code": "mg/dL"
        },
        "referenceRange": [
          {
            "low": {
              "value": 70,
              "code": "mg/dL",
              "system": "http://unitsofmeasure.org"
            }
          },
          {
            "high": {
              "value": 100,
              "code": "mg/dL",
              "system": "http://unitsofmeasure.org"
            }
          }
        ],
        "interpretation": [
          {
            "coding": [
              {
                "code": "L",
                "system": "http://terminology.hl7.org/CodeSystem/v3-ObservationInterpretation",
                "display": "Low"
              }
            ]
          }
        ],
        "text": {
          "status": "generated",
          "div": "<div xmlns=\"http://www.w3.org/1999/xhtml\"><table class=\"hl7__eu__lab__report\"><tr><th>Test</th><th>03-Jan-2022</th><th>Reference&#xA0;Range</th><th>Unit</th></tr><tr><td>Glucose [Mass/volume] in Blood</td><td>65.5</td><td>70 - 100</td><td>L</td><td>mg/dL</td></tr></table></div>"
        },
        "status": "final",
        "subject": {
          "reference": "urn:uuid:fad19cb5-ec24-4489-b56e-191b159fbbcc",
          "display": "Meaghan Neary"
        },
        "effectiveDateTime": "2022-01-03T22:11:04Z",
        "specimen": {
          "reference": "urn:uuid:667ff780-137a-419c-839c-21bde60ed345"
        }
      }
    },
    {
      "fullUrl": "urn:uuid:7e208921-634a-4028-a70a-a7ddf91a05dc",
      "resource": {
        "resourceType": "Observation",
        "id": "7e208921-634a-4028-a70a-a7ddf91a05dc",
        "meta": {
          "profile": [
            "http://hl7.eu/fhir/laboratory/StructureDefinition/Observation-resultslab-eu-lab"
          ]
        },
        "performer": [
          {
            "display": "The Central European Lab"
          }
        ],
        "category": [
          {
            "coding": [
              {
                "system": "http://terminology.hl7.org/CodeSystem/observation-category",
                "code": "laboratory"
              }
            ]
          }
        ],
        "code": {
          "coding": [
            {
              "code": "6299-2",
              "system": "http://loinc.org",
              "display": "Urea nitrogen [Mass/volume] in Blood"
            }
          ],
          "text": "Urea nitrogen [Mass/volume] in Blood"
        },
        "valueQuantity": {
          "system": "http://unitsofmeasure.org",
          "value": 18.7,
          "unit": "mg/dL",
          "code": "mg/dL"
        },
        "referenceRange": [
          {
            "low": {
              "value": 7,
              "code": "mg/dL",
              "system": "http://unitsofmeasure.org"
            }
          },
          {
            "high": {
              "value": 43,
              "code": "mg/dL",
              "system": "http://unitsofmeasure.org"
            }
          }
        ],
        "text": {
          "status": "generated",
          "div": "<div xmlns=\"http://www.w3.org/1999/xhtml\"><table class=\"hl7__eu__lab__report\"><tr><th>Test</th><th>03-Jan-2022</th><th>Reference&#xA0;Range</th><th>Unit</th></tr><tr><td>Urea nitrogen [Mass/volume] in Blood</td><td>18.7</td><td>7 - 43</td><td></td><td>mg/dL</td></tr></table></div>"
        },
        "status": "final",
        "subject": {
          "reference": "urn:uuid:fad19cb5-ec24-4489-b56e-191b159fbbcc",
          "display": "Meaghan Neary"
        },
        "effectiveDateTime": "2022-01-03T22:11:04Z",
        "specimen": {
          "reference": "urn:uuid:667ff780-137a-419c-839c-21bde60ed345"
        }
      }
    },
    {
      "fullUrl": "urn:uuid:37ef698c-c1b0-4653-b93a-f09ab2839e44",
      "resource": {
        "resourceType": "Observation",
        "id": "37ef698c-c1b0-4653-b93a-f09ab2839e44",
        "meta": {
          "profile": [
            "http://hl7.eu/fhir/laboratory/StructureDefinition/Observation-resultslab-eu-lab"
          ]
        },
        "performer": [
          {
            "display": "The Central European Lab"
          }
        ],
        "category": [
          {
            "coding": [
              {
                "system": "http://terminology.hl7.org/CodeSystem/observation-category",
                "code": "laboratory"
              }
            ]
          }
        ],
        "code": {
          "coding": [
            {
              "code": "38483-4",
              "system": "http://loinc.org",
              "display": "Creatinine [Mass/volume] in Blood"
            }
          ],
          "text": "Creatinine [Mass/volume] in Blood"
        },
        "valueQuantity": {
          "system": "http://unitsofmeasure.org",
          "value": 4.4,
          "unit": "mg/dL",
          "code": "mg/dL"
        },
        "referenceRange": [
          {
            "low": {
              "value": 0.6,
              "code": "mg/dL",
              "system": "http://unitsofmeasure.org"
            }
          },
          {
            "high": {
              "value": 1.1,
              "code": "mg/dL",
              "system": "http://unitsofmeasure.org"
            }
          }
        ],
        "interpretation": [
          {
            "coding": [
              {
                "code": "H",
                "system": "http://terminology.hl7.org/CodeSystem/v3-ObservationInterpretation",
                "display": "High"
              }
            ]
          }
        ],
        "text": {
          "status": "generated",
          "div": "<div xmlns=\"http://www.w3.org/1999/xhtml\"><table class=\"hl7__eu__lab__report\"><tr><th>Test</th><th>03-Jan-2022</th><th>Reference&#xA0;Range</th><th>Unit</th></tr><tr><td>Creatinine [Mass/volume] in Blood</td><td>4.4</td><td>0.6 - 1.1</td><td>H</td><td>mg/dL</td></tr></table></div>"
        },
        "status": "final",
        "subject": {
          "reference": "urn:uuid:fad19cb5-ec24-4489-b56e-191b159fbbcc",
          "display": "Meaghan Neary"
        },
        "effectiveDateTime": "2022-01-03T22:11:04Z",
        "specimen": {
          "reference": "urn:uuid:667ff780-137a-419c-839c-21bde60ed345"
        }
      }
    },
    {
      "fullUrl": "urn:uuid:92d9d8e2-7284-48db-8e21-af2b948b44db",
      "resource": {
        "resourceType": "Observation",
        "id": "92d9d8e2-7284-48db-8e21-af2b948b44db",
        "meta": {
          "profile": [
            "http://hl7.eu/fhir/laboratory/StructureDefinition/Observation-resultslab-eu-lab"
          ]
        },
        "performer": [
          {
            "display": "The Central European Lab"
          }
        ],
        "category": [
          {
            "coding": [
              {
                "system": "http://terminology.hl7.org/CodeSystem/observation-category",
                "code": "laboratory"
              }
            ]
          }
        ],
        "code": {
          "coding": [
            {
              "code": "49765-1",
              "system": "http://loinc.org",
              "display": "Calcium [Mass/volume] in Blood"
            }
          ],
          "text": "Calcium [Mass/volume] in Blood"
        },
        "valueQuantity": {
          "system": "http://unitsofmeasure.org",
          "value": 9.8,
          "unit": "mg/dL",
          "code": "mg/dL"
        },
        "referenceRange": [
          {
            "low": {
              "value": 8.5,
              "code": "mg/dL",
              "system": "http://unitsofmeasure.org"
            }
          },
          {
            "high": {
              "value": 10.5,
              "code": "mg/dL",
              "system": "http://unitsofmeasure.org"
            }
          }
        ],
        "text": {
          "status": "generated",
          "div": "<div xmlns=\"http://www.w3.org/1999/xhtml\"><table class=\"hl7__eu__lab__report\"><tr><th>Test</th><th>03-Jan-2022</th><th>Reference&#xA0;Range</th><th>Unit</th></tr><tr><td>Calcium [Mass/volume] in Blood</td><td>9.8</td><td>8.5 - 10.5</td><td></td><td>mg/dL</td></tr></table></div>"
        },
        "status": "final",
        "subject": {
          "reference": "urn:uuid:fad19cb5-ec24-4489-b56e-191b159fbbcc",
          "display": "Meaghan Neary"
        },
        "effectiveDateTime": "2022-01-03T22:11:04Z",
        "specimen": {
          "reference": "urn:uuid:667ff780-137a-419c-839c-21bde60ed345"
        }
      }
    },
    {
      "fullUrl": "urn:uuid:587af500-94a4-4caf-ae34-594ff212707e",
      "resource": {
        "resourceType": "Observation",
        "id": "587af500-94a4-4caf-ae34-594ff212707e",
        "meta": {
          "profile": [
            "http://hl7.eu/fhir/laboratory/StructureDefinition/Observation-resultslab-eu-lab"
          ]
        },
        "performer": [
          {
            "display": "The Central European Lab"
          }
        ],
        "category": [
          {
            "coding": [
              {
                "system": "http://terminology.hl7.org/CodeSystem/observation-category",
                "code": "laboratory"
              }
            ]
          }
        ],
        "code": {
          "coding": [
            {
              "code": "2947-0",
              "system": "http://loinc.org",
              "display": "Sodium [Moles/volume] in Blood"
            }
          ],
          "text": "Sodium [Moles/volume] in Blood"
        },
        "valueQuantity": {
          "system": "http://unitsofmeasure.org",
          "value": 141.7,
          "unit": "mmol/L",
          "code": "mmol/L"
        },
        "referenceRange": [
          {
            "low": {
              "value": 135,
              "code": "mmol/L",
              "system": "http://unitsofmeasure.org"
            }
          },
          {
            "high": {
              "value": 145,
              "code": "mmol/L",
              "system": "http://unitsofmeasure.org"
            }
          }
        ],
        "text": {
          "status": "generated",
          "div": "<div xmlns=\"http://www.w3.org/1999/xhtml\"><table class=\"hl7__eu__lab__report\"><tr><th>Test</th><th>03-Jan-2022</th><th>Reference&#xA0;Range</th><th>Unit</th></tr><tr><td>Sodium [Moles/volume] in Blood</td><td>141.7</td><td>135 - 145</td><td></td><td>mmol/L</td></tr></table></div>"
        },
        "status": "final",
        "subject": {
          "reference": "urn:uuid:fad19cb5-ec24-4489-b56e-191b159fbbcc",
          "display": "Meaghan Neary"
        },
        "effectiveDateTime": "2022-01-03T22:11:04Z",
        "specimen": {
          "reference": "urn:uuid:667ff780-137a-419c-839c-21bde60ed345"
        }
      }
    },
    {
      "fullUrl": "urn:uuid:062a7e0c-05f4-48e1-aabd-4a958792a747",
      "resource": {
        "resourceType": "Observation",
        "id": "062a7e0c-05f4-48e1-aabd-4a958792a747",
        "meta": {
          "profile": [
            "http://hl7.eu/fhir/laboratory/StructureDefinition/Observation-resultslab-eu-lab"
          ]
        },
        "performer": [
          {
            "display": "The Central European Lab"
          }
        ],
        "category": [
          {
            "coding": [
              {
                "system": "http://terminology.hl7.org/CodeSystem/observation-category",
                "code": "laboratory"
              }
            ]
          }
        ],
        "code": {
          "coding": [
            {
              "code": "6298-4",
              "system": "http://loinc.org",
              "display": "Potassium [Moles/volume] in Blood"
            }
          ],
          "text": "Potassium [Moles/volume] in Blood"
        },
        "valueQuantity": {
          "system": "http://unitsofmeasure.org",
          "value": 4.3,
          "unit": "mmol/L",
          "code": "mmol/L"
        },
        "referenceRange": [
          {
            "low": {
              "value": 3.5,
              "code": "mmol/L",
              "system": "http://unitsofmeasure.org"
            }
          },
          {
            "high": {
              "value": 5.1,
              "code": "mmol/L",
              "system": "http://unitsofmeasure.org"
            }
          }
        ],
        "text": {
          "status": "generated",
          "div": "<div xmlns=\"http://www.w3.org/1999/xhtml\"><table class=\"hl7__eu__lab__report\"><tr><th>Test</th><th>03-Jan-2022</th><th>Reference&#xA0;Range</th><th>Unit</th></tr><tr><td>Potassium [Moles/volume] in Blood</td><td>4.3</td><td>3.5 - 5.1</td><td></td><td>mmol/L</td></tr></table></div>"
        },
        "status": "final",
        "subject": {
          "reference": "urn:uuid:fad19cb5-ec24-4489-b56e-191b159fbbcc",
          "display": "Meaghan Neary"
        },
        "effectiveDateTime": "2022-01-03T22:11:04Z",
        "specimen": {
          "reference": "urn:uuid:667ff780-137a-419c-839c-21bde60ed345"
        }
      }
    },
    {
      "fullUrl": "urn:uuid:043bef95-dec4-4ac6-9fac-52b70eb71a65",
      "resource": {
        "resourceType": "Observation",
        "id": "043bef95-dec4-4ac6-9fac-52b70eb71a65",
        "meta": {
          "profile": [
            "http://hl7.eu/fhir/laboratory/StructureDefinition/Observation-resultslab-eu-lab"
          ]
        },
        "performer": [
          {
            "display": "The Central European Lab"
          }
        ],
        "category": [
          {
            "coding": [
              {
                "system": "http://terminology.hl7.org/CodeSystem/observation-category",
                "code": "laboratory"
              }
            ]
          }
        ],
        "code": {
          "coding": [
            {
              "code": "2069-3",
              "system": "http://loinc.org",
              "display": "Chloride [Moles/volume] in Blood"
            }
          ],
          "text": "Chloride [Moles/volume] in Blood"
        },
        "valueQuantity": {
          "system": "http://unitsofmeasure.org",
          "value": 106.8,
          "unit": "mmol/L",
          "code": "mmol/L"
        },
        "referenceRange": [
          {
            "low": {
              "value": 98,
              "code": "mmol/L",
              "system": "http://unitsofmeasure.org"
            }
          },
          {
            "high": {
              "value": 108,
              "code": "mmol/L",
              "system": "http://unitsofmeasure.org"
            }
          }
        ],
        "text": {
          "status": "generated",
          "div": "<div xmlns=\"http://www.w3.org/1999/xhtml\"><table class=\"hl7__eu__lab__report\"><tr><th>Test</th><th>03-Jan-2022</th><th>Reference&#xA0;Range</th><th>Unit</th></tr><tr><td>Chloride [Moles/volume] in Blood</td><td>106.8</td><td>98 - 108</td><td></td><td>mmol/L</td></tr></table></div>"
        },
        "status": "final",
        "subject": {
          "reference": "urn:uuid:fad19cb5-ec24-4489-b56e-191b159fbbcc",
          "display": "Meaghan Neary"
        },
        "effectiveDateTime": "2022-01-03T22:11:04Z",
        "specimen": {
          "reference": "urn:uuid:667ff780-137a-419c-839c-21bde60ed345"
        }
      }
    },
    {
      "fullUrl": "urn:uuid:1abe7557-b949-409e-97b6-11223d8b3494",
      "resource": {
        "resourceType": "Observation",
        "id": "1abe7557-b949-409e-97b6-11223d8b3494",
        "meta": {
          "profile": [
            "http://hl7.eu/fhir/laboratory/StructureDefinition/Observation-resultslab-eu-lab"
          ]
        },
        "performer": [
          {
            "display": "The Central European Lab"
          }
        ],
        "category": [
          {
            "coding": [
              {
                "system": "http://terminology.hl7.org/CodeSystem/observation-category",
                "code": "laboratory"
              }
            ]
          }
        ],
        "code": {
          "coding": [
            {
              "code": "20565-8",
              "system": "http://loinc.org",
              "display": "Carbon dioxide, total [Moles/volume] in Blood"
            }
          ],
          "text": "Carbon dioxide, total [Moles/volume] in Blood"
        },
        "valueQuantity": {
          "system": "http://unitsofmeasure.org",
          "value": 20.9,
          "unit": "mmol/L",
          "code": "mmol/L"
        },
        "referenceRange": [
          {
            "low": {
              "value": 22,
              "code": "mmol/L",
              "system": "http://unitsofmeasure.org"
            }
          },
          {
            "high": {
              "value": 29,
              "code": "mmol/L",
              "system": "http://unitsofmeasure.org"
            }
          }
        ],
        "interpretation": [
          {
            "coding": [
              {
                "code": "L",
                "system": "http://terminology.hl7.org/CodeSystem/v3-ObservationInterpretation",
                "display": "Low"
              }
            ]
          }
        ],
        "text": {
          "status": "generated",
          "div": "<div xmlns=\"http://www.w3.org/1999/xhtml\"><table class=\"hl7__eu__lab__report\"><tr><th>Test</th><th>03-Jan-2022</th><th>Reference&#xA0;Range</th><th>Unit</th></tr><tr><td>Carbon dioxide, total [Moles/volume] in Blood</td><td>20.9</td><td>22 - 29</td><td>L</td><td>mmol/L</td></tr></table></div>"
        },
        "status": "final",
        "subject": {
          "reference": "urn:uuid:fad19cb5-ec24-4489-b56e-191b159fbbcc",
          "display": "Meaghan Neary"
        },
        "effectiveDateTime": "2022-01-03T22:11:04Z",
        "specimen": {
          "reference": "urn:uuid:667ff780-137a-419c-839c-21bde60ed345"
        }
      }
    },
    {
      "fullUrl": "urn:uuid:5c86a3bd-0664-4975-af18-5d6444f21c17",
      "resource": {
        "resourceType": "Device",
        "id": "5c86a3bd-0664-4975-af18-5d6444f21c17",
        "deviceName": [
          {
            "name": "SYNDERAI Synthetic Generator",
            "type": "manufacturer-name"
          }
        ],
        "version": [
          {
            "value": "5.0"
          }
        ],
        "text": {
          "status": "generated",
          "div": "<div xmlns=\"http://www.w3.org/1999/xhtml\">SYNDERAI Synthetic Generator v5.0</div>"
        },
        "status": "active\"",
        "distinctIdentifier": "synderai-generator-50",
        "manufacturer": "SYNDERAI Project"
      }
    },
    {
      "fullUrl": "urn:uuid:afcbcd23-79cb-4560-93f6-0cfdc1fc1ebd",
      "resource": {
        "resourceType": "Provenance",
        "id": "afcbcd23-79cb-4560-93f6-0cfdc1fc1ebd",
        "target": [
          {
            "reference": "Patient/fad19cb5-ec24-4489-b56e-191b159fbbcc"
          },
          {
            "reference": "Bundle/4ea6f759-2366-4c85-b837-ffb1e45530c8"
          },
          {
            "reference": "Composition/1d4b146b-8b3c-41d6-a757-ab09c6cf50a0"
          },
          {
            "reference": "PractitionerRole/814c3039-a305-43a0-afd1-9e9b99a8f07a"
          },
          {
            "reference": "Practitioner/d36d4abd-d06e-43bf-a5bc-1bac3f9f0ea7"
          },
          {
            "reference": "PractitionerRole/246f3874-3197-4b56-b1d7-310e7fe44f7a"
          },
          {
            "reference": "Organization/e8177e0b-7f67-4f14-a4b0-002728ff3906"
          }
        ],
        "activity": {
          "text": "Synthetic Example Data Generation"
        },
        "policy": [
          "https://synderai.net/synderai-synthetic-data-policy"
        ],
        "agent": [
          {
            "type": {
              "text": "author"
            },
            "who": {
              "reference": "Device/5c86a3bd-0664-4975-af18-5d6444f21c17"
            }
          }
        ],
        "reason": [
          {
            "text": "Interoperability Testing and Training (non-clinical use)"
          }
        ],
        "text": {
          "status": "generated",
          "div": "<div xmlns=\"http://www.w3.org/1999/xhtml\">Provenance for SYNDERAI Synthetic Example Data Resource</div>"
        },
        "recorded": "2022-01-03T23:11:04Z"
      }
    },
    {
      "fullUrl": "urn:uuid:814c3039-a305-43a0-afd1-9e9b99a8f07a",
      "resource": {
        "resourceType": "PractitionerRole",
        "id": "814c3039-a305-43a0-afd1-9e9b99a8f07a",
        "meta": {
          "profile": [
            "http://hl7.eu/fhir/base/StructureDefinition/practitionerRole-eu"
          ]
        },
        "text": {
          "status": "generated",
          "div": "<div xmlns=\"http://www.w3.org/1999/xhtml\">Laboratory Role Id: 814c3039-a305-43a0-afd1-9e9b99a8f07a</div>"
        },
        "practitioner": {
          "reference": "urn:uuid:d36d4abd-d06e-43bf-a5bc-1bac3f9f0ea7"
        }
      }
    },
    {
      "fullUrl": "urn:uuid:d36d4abd-d06e-43bf-a5bc-1bac3f9f0ea7",
      "resource": {
        "resourceType": "Practitioner",
        "id": "d36d4abd-d06e-43bf-a5bc-1bac3f9f0ea7",
        "meta": {
          "profile": [
            "http://hl7.eu/fhir/base/StructureDefinition/practitioner-eu"
          ]
        },
        "identifier": [
          {
            "assigner": {
              "display": "HL7 Europe"
            },
            "system": "urn:oid:2.16.840.1.113883.2.51.999",
            "value": "377ee602-c6e8-42eb-9a52-118a9acce12c"
          }
        ],
        "name": [
          {
            "prefix": [
              "dr"
            ],
            "given": [
              "Ex"
            ],
            "family": "Ample"
          }
        ],
        "address": [
          {
            "line": [
              "Laboratoire Central Européenne",
              "Boulevard du Jardin Botanique 32"
            ],
            "postalCode": "1000",
            "city": "Brussels",
            "country": "Belgium"
          }
        ],
        "text": {
          "status": "generated",
          "div": "<div xmlns=\"http://www.w3.org/1999/xhtml\">Laboratory: Laboratoire Central Européenne, 1000 Brussels, Belgium</div>"
        }
      }
    }
  ],
  "type": "document",
  "timestamp": "2022-01-03T23:11:04Z"
}
