{
  "resourceType": "Bundle",
  "id": "7bb76612-42b2-4e2f-b876-1347e2d6d8e8",
  "meta": {
    "profile": [
      "http://hl7.eu/fhir/laboratory/StructureDefinition/Bundle-eu-lab"
    ]
  },
  "identifier": {
    "assigner": {
      "display": "HL7 Europe"
    },
    "system": "urn:oid:2.16.840.1.113883.2.51.999",
    "value": "75e4b9a2-00c1-400b-9824-da24e10956f1"
  },
  "entry": [
    {
      "fullUrl": "urn:uuid:0343a799-c420-49f4-8853-53bafd2e6d69",
      "resource": {
        "resourceType": "Composition",
        "id": "0343a799-c420-49f4-8853-53bafd2e6d69",
        "meta": {
          "profile": [
            "http://hl7.eu/fhir/laboratory/StructureDefinition/Composition-eu-lab"
          ]
        },
        "identifier": {
          "assigner": {
            "display": "HL7 Europe"
          },
          "system": "urn:oid:2.16.840.1.113883.2.51.999",
          "value": "83cdab23-42f4-4095-a480-6d1cf475c5bb"
        },
        "author": [
          {
            "reference": "urn:uuid:be850fc9-0920-4c5a-9cad-b919646fb6ca"
          }
        ],
        "category": [
          {
            "coding": [
              {
                "code": "26436-6",
                "system": "http://loinc.org",
                "display": "Laboratory studies (set)"
              }
            ]
          }
        ],
        "type": {
          "coding": [
            {
              "code": "11502-2",
              "system": "http://loinc.org",
              "display": "Laboratory report"
            }
          ],
          "text": "Laboratory Report"
        },
        "section": [
          {
            "code": {
              "coding": [
                {
                  "code": "26436-6",
                  "system": "http://loinc.org",
                  "display": "Laboratory studies (set)"
                }
              ],
              "text": "Laboratory studies"
            },
            "section": [
              {
                "code": {
                  "coding": [
                    {
                      "code": "$18719-5",
                      "system": "http://loinc.org",
                      "display": "Chemistry studies (set)"
                    }
                  ],
                  "text": "Chemistry"
                },
                "entry": [
                  {
                    "reference": "urn:uuid:18d8fad0-8721-4e72-99a5-18ea491d937b"
                  },
                  {
                    "reference": "urn:uuid:fad8ce26-9dcd-45d1-9496-5c1bb9f5bd4a"
                  },
                  {
                    "reference": "urn:uuid:9bd56fc2-65e0-4627-9f07-491a893a5eaf"
                  },
                  {
                    "reference": "urn:uuid:683ce6cf-3e0c-4213-8522-3835a24f553d"
                  },
                  {
                    "reference": "urn:uuid:dd1fc296-6340-48b2-9aed-b0e018d0fd22"
                  },
                  {
                    "reference": "urn:uuid:0ccb8d37-c1ac-4f60-bd63-9297fd3c3947"
                  },
                  {
                    "reference": "urn:uuid:eae1f320-89cc-470a-8ff3-39ef49b3d3d2"
                  },
                  {
                    "reference": "urn:uuid:f6755df0-bd59-44ef-a71d-534b695b615b"
                  },
                  {
                    "reference": "urn:uuid:657b5deb-d1a8-45a6-af1f-436e789a4fb6"
                  },
                  {
                    "reference": "urn:uuid:8e820b62-08e5-45af-852d-f42cf1fb082b"
                  },
                  {
                    "reference": "urn:uuid:4b64207e-59d4-44ec-a9ff-75f23fcfb75d"
                  },
                  {
                    "reference": "urn:uuid:f54be759-406a-4056-b6f2-389e51c6c2de"
                  },
                  {
                    "reference": "urn:uuid:1d86754b-144c-480b-9d71-3e30f9369aea"
                  },
                  {
                    "reference": "urn:uuid:28eac8d6-4f42-4f3a-b0a7-27b7230ae883"
                  },
                  {
                    "reference": "urn:uuid:f8fc09ba-c034-4fe3-a044-4f086626ece3"
                  },
                  {
                    "reference": "urn:uuid:f40f50e8-0df7-43fc-8b09-5c061b6efa73"
                  },
                  {
                    "reference": "urn:uuid:3caca635-871a-4fc7-acdf-34719f15126e"
                  },
                  {
                    "reference": "urn:uuid:281d82c7-0140-4a7d-9c34-6803c17b1950"
                  }
                ],
                "text": {
                  "status": "generated",
                  "div": "<div xmlns=\"http://www.w3.org/1999/xhtml\"><h3>Chemistry</h3><table class=\"hl7__eu__lab__report\"><thead><tr><th>Test</th><th>22-SEP-2023</th><th>Reference&#xA0;Range</th><th>Unit</th></tr></thead><tbody><tr><td>Glucose [Mass/volume] in Serum or Plasma</td><td>97.1</td><td>70 - 140</td><td>mg/dL</td></tr><tr><td>Urea nitrogen [Mass/volume] in Serum or Plasma</td><td>14.0</td><td>7 - 20</td><td>mg/dL</td></tr><tr><td>Creatinine [Mass/volume] in Serum or Plasma</td><td><strong>2.0 H</strong></td><td>0.9 - 1.3</td><td>mg/dL</td></tr><tr><td>Calcium [Mass/volume] in Serum or Plasma</td><td>10.1</td><td>8.5 - 10.5</td><td>mg/dL</td></tr><tr><td>Sodium [Moles/volume] in Serum or Plasma</td><td>137.4</td><td>135 - 145</td><td>mmol/L</td></tr><tr><td>Potassium [Moles/volume] in Serum or Plasma</td><td>4.8</td><td>3.5 - 5.3</td><td>mmol/L</td></tr><tr><td>Chloride [Moles/volume] in Serum or Plasma</td><td><strong>107.7 H</strong></td><td>98 - 107</td><td>mmol/L</td></tr><tr><td>Carbon dioxide, total [Moles/volume] in Serum or Plasma</td><td>23.1</td><td>22 - 33</td><td>mmol/L</td></tr><tr><td>Ketones [Presence] in Urine by Test strip</td><td>Urine ketone test = ++</td><td></td><td></td></tr><tr><td>Hemoglobin A1c/Hemoglobin.total in Blood</td><td><strong>3.1 L</strong></td><td>4.3 - 6</td><td>%</td></tr><tr><td>Glucose [Mass/volume] in Blood</td><td>97.1</td><td>70 - 140</td><td>mg/dL</td></tr><tr><td>Urea nitrogen [Mass/volume] in Blood</td><td>14.0</td><td>7 - 20</td><td>mg/dL</td></tr><tr><td>Creatinine [Mass/volume] in Blood</td><td><strong>4.5 H</strong></td><td>0.9 - 1.3</td><td>mg/dL</td></tr><tr><td>Calcium [Mass/volume] in Blood</td><td>10.1</td><td>8.5 - 10.5</td><td>mg/dL</td></tr><tr><td>Sodium [Moles/volume] in Blood</td><td>137.4</td><td>135 - 145</td><td>mmol/L</td></tr><tr><td>Potassium [Moles/volume] in Blood</td><td>4.8</td><td>3.5 - 5.1</td><td>mmol/L</td></tr><tr><td>Chloride [Moles/volume] in Blood</td><td>107.7</td><td>98 - 108</td><td>mmol/L</td></tr><tr><td>Carbon dioxide, total [Moles/volume] in Blood</td><td>23.1</td><td>22 - 29</td><td>mmol/L</td></tr></tbody></table></div>"
                },
                "title": "Chemistry"
              },
              {
                "code": {
                  "coding": [
                    {
                      "code": "$18729-4",
                      "system": "http://loinc.org",
                      "display": "Urinalysis studies (set)"
                    }
                  ],
                  "text": "Urinalysis"
                },
                "entry": [
                  {
                    "reference": "urn:uuid:442c21fb-b163-4039-b07c-616fe81066be"
                  },
                  {
                    "reference": "urn:uuid:88de80fe-f5c8-4678-bc7f-134aa6c5b0e7"
                  },
                  {
                    "reference": "urn:uuid:84f17065-4b2f-43fe-b85c-47ab1851813d"
                  },
                  {
                    "reference": "urn:uuid:01dfefa3-f278-4b10-bd07-ef878a35a44f"
                  },
                  {
                    "reference": "urn:uuid:f9cb13aa-2d49-430e-b7c8-fb240ee8e49b"
                  },
                  {
                    "reference": "urn:uuid:1bfa51b8-95d5-4210-b5af-72fae1c02d49"
                  },
                  {
                    "reference": "urn:uuid:42a15fd0-f360-4d37-b0ad-21ed1829a0c3"
                  },
                  {
                    "reference": "urn:uuid:be6b01b8-4782-44f8-b172-7c971876ae06"
                  },
                  {
                    "reference": "urn:uuid:9cab690a-a8ce-45b9-957d-08833bf6ff8a"
                  },
                  {
                    "reference": "urn:uuid:e1bce0c4-bf89-48ae-bdcd-eb5c6f499a65"
                  },
                  {
                    "reference": "urn:uuid:aa208e84-7950-4229-9b66-52616ae1426a"
                  },
                  {
                    "reference": "urn:uuid:d8e858f5-585b-4b1a-89ab-68c395387eb8"
                  }
                ],
                "text": {
                  "status": "generated",
                  "div": "<div xmlns=\"http://www.w3.org/1999/xhtml\"><h3>Urinalysis</h3><table class=\"hl7__eu__lab__report\"><thead><tr><th>Test</th><th>22-SEP-2023</th><th>Reference&#xA0;Range</th><th>Unit</th></tr></thead><tbody><tr><td>Glucose [Mass/volume] in Urine by Test strip</td><td><strong>2.5 H</strong></td><td>0 - 0.8</td><td>mg/dL</td></tr><tr><td>Glucose [Presence] in Urine by Test strip</td><td>++</td><td></td><td></td></tr><tr><td>Bilirubin.total [Mass/volume] in Urine by Test strip</td><td>1.3</td><td>0 - 1.9</td><td>mg/dL</td></tr><tr><td>Bilirubin.total [Presence] in Urine by Test strip</td><td>Finding of bilirubin in urine</td><td></td><td></td></tr><tr><td>Ketones [Mass/volume] in Urine by Test strip</td><td><strong>7.2 H</strong></td><td>0 - 3</td><td>mg/dL</td></tr><tr><td>Specific gravity of Urine by Test strip</td><td><strong>1.0 L</strong></td><td>1.01 - 1.03</td><td>{nominal}</td></tr><tr><td>pH of Urine by Test strip</td><td>5.8</td><td>4.5 - 7.5</td><td>pH</td></tr><tr><td>Protein [Mass/volume] in Urine by Test strip</td><td><strong>360.8 H</strong></td><td>0 - 149</td><td>mg/dL</td></tr><tr><td>Protein [Presence] in Urine by Test strip</td><td>Urine protein test = ++</td><td></td><td></td></tr><tr><td>Nitrite [Presence] in Urine by Test strip</td><td>Urine nitrite negative</td><td></td><td></td></tr><tr><td>Hemoglobin [Presence] in Urine by Test strip</td><td>Urine blood test = negative</td><td></td><td></td></tr><tr><td>Leukocyte esterase [Presence] in Urine by Test strip</td><td>Urine leukocyte test negative</td><td></td><td></td></tr></tbody></table></div>"
                },
                "title": "Urinalysis"
              },
              {
                "code": {
                  "coding": [
                    {
                      "code": "$LP7846-1",
                      "system": "http://loinc.org",
                      "display": "Specimen information"
                    }
                  ],
                  "text": "Specimen information"
                },
                "entry": [
                  {
                    "reference": "urn:uuid:9674492f-67c3-41aa-b3d1-0450aca4c692"
                  },
                  {
                    "reference": "urn:uuid:a77983d7-2fc3-4c56-83c5-5d5ed0847b32"
                  },
                  {
                    "reference": "urn:uuid:3ad40e2f-8dc0-4b74-bec3-616e812143af"
                  },
                  {
                    "reference": "urn:uuid:94987ba5-31b4-453f-8e6b-43533ee56c1b"
                  }
                ],
                "text": {
                  "status": "generated",
                  "div": "<div xmlns=\"http://www.w3.org/1999/xhtml\"><h3>Specimen information</h3><table class=\"hl7__eu__lab__report\"><thead><tr><th>Test</th><th>22-SEP-2023</th><th>Specimen</th><th></th></tr></thead><tbody><tr><td>Appearance of Urine</td><td>Cloudy urine</td><td>Urine</td><td></td></tr><tr><td>Odor of Urine</td><td>Urine smell ammoniacal</td><td>Urine</td><td></td></tr><tr><td>Clarity of Urine</td><td>Translucent</td><td>Urine</td><td></td></tr><tr><td>Color of Urine</td><td>Brown color</td><td>Urine</td><td></td></tr></tbody></table></div>"
                },
                "title": "Specimen information"
              }
            ],
            "title": "Laboratory Report"
          },
          {
            "text": {
              "status": "generated",
              "div": "<div xmlns=\"http://www.w3.org/1999/xhtml\"><h3>Annotation</h3><table class=\"hl7__eu__lab__report\"><tr><th>Conclusion and Recommendations based on this report and previous findings known to us</th></tr><tr><td>The patient shows significantly elevated creatinine, proteinuria, glycosuria, and ketonuria, suggesting acute or chronic renal dysfunction with possible tubular involvement. Urine is dilute with low specific gravity and abnormal appearance. HbA1c is unexpectedly low despite glycosuria, possibly due to anemia or recent changes in glucose control. No evidence of urinary infection. Recommend further nephrological and diabetic evaluation, and assessment for possible acute kidney injury or underlying chronic kidney disease.</td></tr></table></div>"
            },
            "code": {
              "coding": [
                {
                  "system": "http://loinc.org",
                  "code": "48767-8",
                  "display": "Annotation comment"
                }
              ]
            },
            "title": "Annotation comment"
          }
        ],
        "status": "final",
        "subject": {
          "reference": "urn:uuid:c9d99684-e1c4-4447-b4db-3182d1deea46",
          "display": "Victor Lagarde"
        },
        "date": "2023-09-22T06:48:18Z",
        "title": "Laboratory Report",
        "confidentiality": "N"
      }
    },
    {
      "fullUrl": "urn:uuid:6fc1422f-73cb-4c18-ac3d-9d3870be4f34",
      "resource": {
        "resourceType": "DiagnosticReport",
        "id": "6fc1422f-73cb-4c18-ac3d-9d3870be4f34",
        "meta": {
          "profile": [
            "http://hl7.eu/fhir/laboratory/StructureDefinition/DiagnosticReport-eu-lab"
          ]
        },
        "identifier": [
          {
            "assigner": {
              "display": "HL7 Europe"
            },
            "system": "urn:oid:2.16.840.1.113883.2.51.999",
            "value": "27f41420-5250-471c-ad6c-9a36e8dc4c89"
          }
        ],
        "extension": [
          {
            "url": "http://hl7.org/fhir/5.0/StructureDefinition/extension-DiagnosticReport.composition",
            "valueReference": {
              "reference": "urn:uuid:83cdab23-42f4-4095-a480-6d1cf475c5bb"
            }
          }
        ],
        "category": [
          {
            "coding": [
              {
                "code": "26436-6",
                "system": "http://loinc.org",
                "display": "Laboratory studies (set)"
              }
            ]
          }
        ],
        "specimen": [
          {
            "reference": "urn:uuid:daa97631-6595-48e7-962b-c992cefbb6ee"
          },
          {
            "reference": "urn:uuid:2ddd2773-c3b7-407e-859e-209e1188dc6b"
          },
          {
            "reference": "urn:uuid:1d5da3e8-edf7-4249-9e1a-901739592d16"
          }
        ],
        "result": [
          {
            "reference": "urn:uuid:18d8fad0-8721-4e72-99a5-18ea491d937b"
          },
          {
            "reference": "urn:uuid:fad8ce26-9dcd-45d1-9496-5c1bb9f5bd4a"
          },
          {
            "reference": "urn:uuid:9bd56fc2-65e0-4627-9f07-491a893a5eaf"
          },
          {
            "reference": "urn:uuid:683ce6cf-3e0c-4213-8522-3835a24f553d"
          },
          {
            "reference": "urn:uuid:dd1fc296-6340-48b2-9aed-b0e018d0fd22"
          },
          {
            "reference": "urn:uuid:0ccb8d37-c1ac-4f60-bd63-9297fd3c3947"
          },
          {
            "reference": "urn:uuid:eae1f320-89cc-470a-8ff3-39ef49b3d3d2"
          },
          {
            "reference": "urn:uuid:f6755df0-bd59-44ef-a71d-534b695b615b"
          },
          {
            "reference": "urn:uuid:9674492f-67c3-41aa-b3d1-0450aca4c692"
          },
          {
            "reference": "urn:uuid:a77983d7-2fc3-4c56-83c5-5d5ed0847b32"
          },
          {
            "reference": "urn:uuid:3ad40e2f-8dc0-4b74-bec3-616e812143af"
          },
          {
            "reference": "urn:uuid:94987ba5-31b4-453f-8e6b-43533ee56c1b"
          },
          {
            "reference": "urn:uuid:442c21fb-b163-4039-b07c-616fe81066be"
          },
          {
            "reference": "urn:uuid:88de80fe-f5c8-4678-bc7f-134aa6c5b0e7"
          },
          {
            "reference": "urn:uuid:84f17065-4b2f-43fe-b85c-47ab1851813d"
          },
          {
            "reference": "urn:uuid:01dfefa3-f278-4b10-bd07-ef878a35a44f"
          },
          {
            "reference": "urn:uuid:f9cb13aa-2d49-430e-b7c8-fb240ee8e49b"
          },
          {
            "reference": "urn:uuid:657b5deb-d1a8-45a6-af1f-436e789a4fb6"
          },
          {
            "reference": "urn:uuid:1bfa51b8-95d5-4210-b5af-72fae1c02d49"
          },
          {
            "reference": "urn:uuid:42a15fd0-f360-4d37-b0ad-21ed1829a0c3"
          },
          {
            "reference": "urn:uuid:be6b01b8-4782-44f8-b172-7c971876ae06"
          },
          {
            "reference": "urn:uuid:9cab690a-a8ce-45b9-957d-08833bf6ff8a"
          },
          {
            "reference": "urn:uuid:e1bce0c4-bf89-48ae-bdcd-eb5c6f499a65"
          },
          {
            "reference": "urn:uuid:aa208e84-7950-4229-9b66-52616ae1426a"
          },
          {
            "reference": "urn:uuid:d8e858f5-585b-4b1a-89ab-68c395387eb8"
          },
          {
            "reference": "urn:uuid:8e820b62-08e5-45af-852d-f42cf1fb082b"
          },
          {
            "reference": "urn:uuid:4b64207e-59d4-44ec-a9ff-75f23fcfb75d"
          },
          {
            "reference": "urn:uuid:f54be759-406a-4056-b6f2-389e51c6c2de"
          },
          {
            "reference": "urn:uuid:1d86754b-144c-480b-9d71-3e30f9369aea"
          },
          {
            "reference": "urn:uuid:28eac8d6-4f42-4f3a-b0a7-27b7230ae883"
          },
          {
            "reference": "urn:uuid:f8fc09ba-c034-4fe3-a044-4f086626ece3"
          },
          {
            "reference": "urn:uuid:f40f50e8-0df7-43fc-8b09-5c061b6efa73"
          },
          {
            "reference": "urn:uuid:3caca635-871a-4fc7-acdf-34719f15126e"
          },
          {
            "reference": "urn:uuid:281d82c7-0140-4a7d-9c34-6803c17b1950"
          }
        ],
        "status": "registered",
        "code": {
          "coding": [
            {
              "code": "11502-2",
              "system": "http://loinc.org",
              "display": "Laboratory report"
            }
          ]
        },
        "subject": {
          "reference": "urn:uuid:c9d99684-e1c4-4447-b4db-3182d1deea46",
          "display": "Victor Lagarde"
        }
      }
    },
    {
      "fullUrl": "urn:uuid:c9d99684-e1c4-4447-b4db-3182d1deea46",
      "resource": {
        "resourceType": "Patient",
        "id": "c9d99684-e1c4-4447-b4db-3182d1deea46",
        "meta": {
          "security": [
            {
              "system": "http://terminology.hl7.org/CodeSystem/v3-ActReason",
              "code": "HTEST"
            },
            {
              "system": "http://terminology.hl7.org/CodeSystem/v3-ActReason",
              "code": "TRAIN"
            }
          ],
          "tag": [
            {
              "system": "https://synderai.net/fhir/CodeSystem/tags",
              "code": "synthetic",
              "display": "SYNDERAI Synthetic data"
            }
          ],
          "profile": [
            "http://hl7.eu/fhir/base/StructureDefinition/patient-eu-core"
          ]
        },
        "identifier": [
          {
            "type": {
              "coding": [
                {
                  "code": "PT",
                  "system": "http://terminology.hl7.org/CodeSystem/v2-0203"
                }
              ]
            },
            "system": "http://ec.europa.eu/identifier/eci",
            "value": "9925-001801-9"
          },
          {
            "type": {
              "coding": [
                {
                  "code": "MR",
                  "system": "http://terminology.hl7.org/CodeSystem/v2-0203"
                }
              ]
            },
            "system": "http://local.setting.eu/identifier",
            "value": "22c2dfd0-ac57-8833-2532-848f180896a4"
          }
        ],
        "name": [
          {
            "family": "Lagarde"
          },
          {
            "given": [
              "Victor"
            ]
          },
          {
            "text": "Victor Lagarde"
          }
        ],
        "address": [
          {
            "line": [
              "avenue Robert"
            ],
            "use": "home",
            "type": "physical",
            "postalCode": "80300",
            "city": "Albert",
            "country": "France"
          }
        ],
        "telecom": [
          {
            "system": "phone",
            "value": "0177941801"
          }
        ],
        "extension": [
          {
            "url": "http://hl7.org/fhir/StructureDefinition/patient-nationality",
            "valueCodeableConcept": {
              "coding": [
                {
                  "code": "FR",
                  "system": "http://hl7.org/fhir/ValueSet/country"
                }
              ]
            }
          }
        ],
        "text": {
          "status": "generated",
          "div": "<div xmlns=\"http://www.w3.org/1999/xhtml\"><table class=\"hl7__ips\"><tr><td>Victor Lagarde</td><td>male</td><td>31-Aug-1939</td></tr></table></div>"
        },
        "gender": "male",
        "birthDate": "1939-08-31"
      }
    },
    {
      "fullUrl": "urn:uuid:cac2e1d8-11dd-4d39-9811-393ca23f7276",
      "resource": {
        "resourceType": "ServiceRequest",
        "id": "cac2e1d8-11dd-4d39-9811-393ca23f7276",
        "meta": {
          "profile": [
            "http://hl7.eu/fhir/laboratory/StructureDefinition/ServiceRequest-eu-lab"
          ]
        },
        "identifier": [
          {
            "system": "http://example.org",
            "value": "2856530c-eb8b-4c0c-81d7-704a944e4e1d"
          }
        ],
        "specimen": [
          {
            "reference": "urn:uuid:daa97631-6595-48e7-962b-c992cefbb6ee"
          },
          {
            "reference": "urn:uuid:2ddd2773-c3b7-407e-859e-209e1188dc6b"
          },
          {
            "reference": "urn:uuid:1d5da3e8-edf7-4249-9e1a-901739592d16"
          }
        ],
        "reasonCode": [
          {
            "coding": [
              {
                "code": "433144002",
                "system": "http://snomed.info/sct",
                "display": "Chronic kidney disease stage 3"
              }
            ]
          },
          {
            "coding": [
              {
                "code": "157141000119108",
                "system": "http://snomed.info/sct",
                "display": "Proteinuria due to type 2 diabetes mellitus"
              }
            ]
          },
          {
            "coding": [
              {
                "code": "431856006",
                "system": "http://snomed.info/sct",
                "display": "Chronic kidney disease stage 2"
              }
            ]
          },
          {
            "coding": [
              {
                "code": "90781000119102",
                "system": "http://snomed.info/sct",
                "display": "Microalbuminuria due to type 2 diabetes mellitus"
              }
            ]
          },
          {
            "coding": [
              {
                "code": "127013003",
                "system": "http://snomed.info/sct",
                "display": "Disorder of kidney due to diabetes mellitus"
              }
            ]
          },
          {
            "coding": [
              {
                "code": "431855005",
                "system": "http://snomed.info/sct",
                "display": "Chronic kidney disease stage 1"
              }
            ]
          },
          {
            "coding": [
              {
                "code": "55822004",
                "system": "http://snomed.info/sct",
                "display": "Hyperlipidemia"
              }
            ]
          },
          {
            "coding": [
              {
                "code": "59621000",
                "system": "http://snomed.info/sct",
                "display": "Essential hypertension"
              }
            ]
          },
          {
            "coding": [
              {
                "code": "237602007",
                "system": "http://snomed.info/sct",
                "display": "Metabolic syndrome X"
              }
            ]
          },
          {
            "coding": [
              {
                "code": "414545008",
                "system": "http://snomed.info/sct",
                "display": "Ischemic heart disease"
              }
            ]
          },
          {
            "coding": [
              {
                "code": "40055000",
                "system": "http://snomed.info/sct",
                "display": "Chronic sinusitis"
              }
            ]
          },
          {
            "coding": [
              {
                "code": "15777000",
                "system": "http://snomed.info/sct",
                "display": "Prediabetes"
              }
            ]
          },
          {
            "coding": [
              {
                "code": "271737000",
                "system": "http://snomed.info/sct",
                "display": "Anemia"
              }
            ]
          }
        ],
        "status": "active",
        "intent": "order",
        "code": {
          "coding": [
            {
              "code": "108252007",
              "system": "http://snomed.info/sct",
              "display": "Laboratory procedure"
            }
          ]
        },
        "subject": {
          "reference": "urn:uuid:c9d99684-e1c4-4447-b4db-3182d1deea46",
          "display": "Victor Lagarde"
        },
        "requester": {
          "reference": "urn:uuid:2397a7fd-a148-46c3-accf-36e565962927"
        }
      }
    },
    {
      "fullUrl": "urn:uuid:2397a7fd-a148-46c3-accf-36e565962927",
      "resource": {
        "resourceType": "PractitionerRole",
        "id": "2397a7fd-a148-46c3-accf-36e565962927",
        "meta": {
          "profile": [
            "http://hl7.eu/fhir/base/StructureDefinition/practitionerRole-eu"
          ]
        },
        "text": {
          "status": "generated",
          "div": "<div xmlns=\"http://www.w3.org/1999/xhtml\">Provider Role Id: 2397a7fd-a148-46c3-accf-36e565962927</div>"
        },
        "organization": {
          "reference": "urn:uuid:2a54d389-d75d-473d-beaf-72439fd1bebf"
        }
      }
    },
    {
      "fullUrl": "urn:uuid:2a54d389-d75d-473d-beaf-72439fd1bebf",
      "resource": {
        "resourceType": "Organization",
        "id": "2a54d389-d75d-473d-beaf-72439fd1bebf",
        "meta": {
          "profile": [
            "http://hl7.eu/fhir/base/StructureDefinition/organization-eu"
          ]
        },
        "identifier": [
          {
            "assigner": {
              "display": "HL7 Europe"
            },
            "system": "urn:oid:2.16.840.1.113883.2.51.999",
            "value": "d38d9c4d-ac80-4459-9f7d-262fc47dd2b6"
          }
        ],
        "address": [
          {
            "city": "Auxerre",
            "postalCode": "89000",
            "country": "France"
          }
        ],
        "text": {
          "status": "generated",
          "div": "<div xmlns=\"http://www.w3.org/1999/xhtml\">Provider Organization: Thiriot Didier (Cardiologie)</div>"
        },
        "name": "Thiriot Didier (Cardiologie)"
      }
    },
    {
      "fullUrl": "urn:uuid:daa97631-6595-48e7-962b-c992cefbb6ee",
      "resource": {
        "resourceType": "Specimen",
        "id": "daa97631-6595-48e7-962b-c992cefbb6ee",
        "meta": {
          "profile": [
            "http://hl7.eu/fhir/laboratory/StructureDefinition/Specimen-eu-lab"
          ]
        },
        "collection": {
          "collectedDateTime": "2023-09-22"
        },
        "text": {
          "status": "generated",
          "div": "<div xmlns=\"http://www.w3.org/1999/xhtml\"><table class=\"hl7__eu__lab__report\"><tr><th>Specimen</th><th>Collection Date</th></tr><tr><td>Acellular blood (serum or plasma) specimen</td><td><span class=\"nb\">22-Sep-2023</span></td></tr></table></div>"
        },
        "type": {
          "coding": [
            {
              "code": "122592007",
              "system": "http://snomed.info/sct",
              "display": "Acellular blood (serum or plasma) specimen"
            }
          ]
        }
      }
    },
    {
      "fullUrl": "urn:uuid:2ddd2773-c3b7-407e-859e-209e1188dc6b",
      "resource": {
        "resourceType": "Specimen",
        "id": "2ddd2773-c3b7-407e-859e-209e1188dc6b",
        "meta": {
          "profile": [
            "http://hl7.eu/fhir/laboratory/StructureDefinition/Specimen-eu-lab"
          ]
        },
        "collection": {
          "collectedDateTime": "2023-09-22"
        },
        "text": {
          "status": "generated",
          "div": "<div xmlns=\"http://www.w3.org/1999/xhtml\"><table class=\"hl7__eu__lab__report\"><tr><th>Specimen</th><th>Collection Date</th></tr><tr><td>Urine specimen</td><td><span class=\"nb\">22-Sep-2023</span></td></tr></table></div>"
        },
        "type": {
          "coding": [
            {
              "code": "122575003",
              "system": "http://snomed.info/sct",
              "display": "Urine specimen"
            }
          ]
        }
      }
    },
    {
      "fullUrl": "urn:uuid:1d5da3e8-edf7-4249-9e1a-901739592d16",
      "resource": {
        "resourceType": "Specimen",
        "id": "1d5da3e8-edf7-4249-9e1a-901739592d16",
        "meta": {
          "profile": [
            "http://hl7.eu/fhir/laboratory/StructureDefinition/Specimen-eu-lab"
          ]
        },
        "collection": {
          "collectedDateTime": "2023-09-22"
        },
        "text": {
          "status": "generated",
          "div": "<div xmlns=\"http://www.w3.org/1999/xhtml\"><table class=\"hl7__eu__lab__report\"><tr><th>Specimen</th><th>Collection Date</th></tr><tr><td>Whole blood specimen (specimen)</td><td><span class=\"nb\">22-Sep-2023</span></td></tr></table></div>"
        },
        "type": {
          "coding": [
            {
              "code": "258580003",
              "system": "http://snomed.info/sct",
              "display": "Whole blood specimen (specimen)"
            }
          ]
        }
      }
    },
    {
      "fullUrl": "urn:uuid:18d8fad0-8721-4e72-99a5-18ea491d937b",
      "resource": {
        "resourceType": "Observation",
        "id": "18d8fad0-8721-4e72-99a5-18ea491d937b",
        "meta": {
          "profile": [
            "http://hl7.eu/fhir/laboratory/StructureDefinition/Observation-resultslab-eu-lab"
          ]
        },
        "performer": [
          {
            "display": "The Central European Lab"
          }
        ],
        "category": [
          {
            "coding": [
              {
                "system": "http://terminology.hl7.org/CodeSystem/observation-category",
                "code": "laboratory"
              }
            ]
          }
        ],
        "code": {
          "coding": [
            {
              "code": "2345-7",
              "system": "http://loinc.org",
              "display": "Glucose [Mass/volume] in Serum or Plasma"
            }
          ],
          "text": "Glucose [Mass/volume] in Serum or Plasma"
        },
        "valueQuantity": {
          "system": "http://unitsofmeasure.org",
          "value": 97.1,
          "unit": "mg/dL",
          "code": "mg/dL"
        },
        "referenceRange": [
          {
            "low": {
              "value": 70,
              "code": "mg/dL",
              "system": "http://unitsofmeasure.org"
            }
          },
          {
            "high": {
              "value": 140,
              "code": "mg/dL",
              "system": "http://unitsofmeasure.org"
            }
          }
        ],
        "text": {
          "status": "generated",
          "div": "<div xmlns=\"http://www.w3.org/1999/xhtml\"><table class=\"hl7__eu__lab__report\"><tr><th>Test</th><th>22-Sep-2023</th><th>Reference&#xA0;Range</th><th>Unit</th></tr><tr><td>Glucose [Mass/volume] in Serum or Plasma</td><td>97.1</td><td>70 - 140</td><td></td><td>mg/dL</td></tr></table></div>"
        },
        "status": "final",
        "subject": {
          "reference": "urn:uuid:c9d99684-e1c4-4447-b4db-3182d1deea46",
          "display": "Victor Lagarde"
        },
        "effectiveDateTime": "2023-09-22T04:48:18Z",
        "specimen": {
          "reference": "urn:uuid:daa97631-6595-48e7-962b-c992cefbb6ee"
        }
      }
    },
    {
      "fullUrl": "urn:uuid:fad8ce26-9dcd-45d1-9496-5c1bb9f5bd4a",
      "resource": {
        "resourceType": "Observation",
        "id": "fad8ce26-9dcd-45d1-9496-5c1bb9f5bd4a",
        "meta": {
          "profile": [
            "http://hl7.eu/fhir/laboratory/StructureDefinition/Observation-resultslab-eu-lab"
          ]
        },
        "performer": [
          {
            "display": "The Central European Lab"
          }
        ],
        "category": [
          {
            "coding": [
              {
                "system": "http://terminology.hl7.org/CodeSystem/observation-category",
                "code": "laboratory"
              }
            ]
          }
        ],
        "code": {
          "coding": [
            {
              "code": "3094-0",
              "system": "http://loinc.org",
              "display": "Urea nitrogen [Mass/volume] in Serum or Plasma"
            }
          ],
          "text": "Urea nitrogen [Mass/volume] in Serum or Plasma"
        },
        "valueQuantity": {
          "system": "http://unitsofmeasure.org",
          "value": 14,
          "unit": "mg/dL",
          "code": "mg/dL"
        },
        "referenceRange": [
          {
            "low": {
              "value": 7,
              "code": "mg/dL",
              "system": "http://unitsofmeasure.org"
            }
          },
          {
            "high": {
              "value": 20,
              "code": "mg/dL",
              "system": "http://unitsofmeasure.org"
            }
          }
        ],
        "text": {
          "status": "generated",
          "div": "<div xmlns=\"http://www.w3.org/1999/xhtml\"><table class=\"hl7__eu__lab__report\"><tr><th>Test</th><th>22-Sep-2023</th><th>Reference&#xA0;Range</th><th>Unit</th></tr><tr><td>Urea nitrogen [Mass/volume] in Serum or Plasma</td><td>14.0</td><td>7 - 20</td><td></td><td>mg/dL</td></tr></table></div>"
        },
        "status": "final",
        "subject": {
          "reference": "urn:uuid:c9d99684-e1c4-4447-b4db-3182d1deea46",
          "display": "Victor Lagarde"
        },
        "effectiveDateTime": "2023-09-22T04:48:18Z",
        "specimen": {
          "reference": "urn:uuid:daa97631-6595-48e7-962b-c992cefbb6ee"
        }
      }
    },
    {
      "fullUrl": "urn:uuid:9bd56fc2-65e0-4627-9f07-491a893a5eaf",
      "resource": {
        "resourceType": "Observation",
        "id": "9bd56fc2-65e0-4627-9f07-491a893a5eaf",
        "meta": {
          "profile": [
            "http://hl7.eu/fhir/laboratory/StructureDefinition/Observation-resultslab-eu-lab"
          ]
        },
        "performer": [
          {
            "display": "The Central European Lab"
          }
        ],
        "category": [
          {
            "coding": [
              {
                "system": "http://terminology.hl7.org/CodeSystem/observation-category",
                "code": "laboratory"
              }
            ]
          }
        ],
        "code": {
          "coding": [
            {
              "code": "2160-0",
              "system": "http://loinc.org",
              "display": "Creatinine [Mass/volume] in Serum or Plasma"
            }
          ],
          "text": "Creatinine [Mass/volume] in Serum or Plasma"
        },
        "valueQuantity": {
          "system": "http://unitsofmeasure.org",
          "value": 2,
          "unit": "mg/dL",
          "code": "mg/dL"
        },
        "referenceRange": [
          {
            "low": {
              "value": 0.9,
              "code": "mg/dL",
              "system": "http://unitsofmeasure.org"
            }
          },
          {
            "high": {
              "value": 1.3,
              "code": "mg/dL",
              "system": "http://unitsofmeasure.org"
            }
          }
        ],
        "interpretation": [
          {
            "coding": [
              {
                "code": "H",
                "system": "http://terminology.hl7.org/CodeSystem/v3-ObservationInterpretation",
                "display": "High"
              }
            ]
          }
        ],
        "text": {
          "status": "generated",
          "div": "<div xmlns=\"http://www.w3.org/1999/xhtml\"><table class=\"hl7__eu__lab__report\"><tr><th>Test</th><th>22-Sep-2023</th><th>Reference&#xA0;Range</th><th>Unit</th></tr><tr><td>Creatinine [Mass/volume] in Serum or Plasma</td><td>2.0</td><td>0.9 - 1.3</td><td>H</td><td>mg/dL</td></tr></table></div>"
        },
        "status": "final",
        "subject": {
          "reference": "urn:uuid:c9d99684-e1c4-4447-b4db-3182d1deea46",
          "display": "Victor Lagarde"
        },
        "effectiveDateTime": "2023-09-22T04:48:18Z",
        "specimen": {
          "reference": "urn:uuid:daa97631-6595-48e7-962b-c992cefbb6ee"
        }
      }
    },
    {
      "fullUrl": "urn:uuid:683ce6cf-3e0c-4213-8522-3835a24f553d",
      "resource": {
        "resourceType": "Observation",
        "id": "683ce6cf-3e0c-4213-8522-3835a24f553d",
        "meta": {
          "profile": [
            "http://hl7.eu/fhir/laboratory/StructureDefinition/Observation-resultslab-eu-lab"
          ]
        },
        "performer": [
          {
            "display": "The Central European Lab"
          }
        ],
        "category": [
          {
            "coding": [
              {
                "system": "http://terminology.hl7.org/CodeSystem/observation-category",
                "code": "laboratory"
              }
            ]
          }
        ],
        "code": {
          "coding": [
            {
              "code": "17861-6",
              "system": "http://loinc.org",
              "display": "Calcium [Mass/volume] in Serum or Plasma"
            }
          ],
          "text": "Calcium [Mass/volume] in Serum or Plasma"
        },
        "valueQuantity": {
          "system": "http://unitsofmeasure.org",
          "value": 10.1,
          "unit": "mg/dL",
          "code": "mg/dL"
        },
        "referenceRange": [
          {
            "low": {
              "value": 8.5,
              "code": "mg/dL",
              "system": "http://unitsofmeasure.org"
            }
          },
          {
            "high": {
              "value": 10.5,
              "code": "mg/dL",
              "system": "http://unitsofmeasure.org"
            }
          }
        ],
        "text": {
          "status": "generated",
          "div": "<div xmlns=\"http://www.w3.org/1999/xhtml\"><table class=\"hl7__eu__lab__report\"><tr><th>Test</th><th>22-Sep-2023</th><th>Reference&#xA0;Range</th><th>Unit</th></tr><tr><td>Calcium [Mass/volume] in Serum or Plasma</td><td>10.1</td><td>8.5 - 10.5</td><td></td><td>mg/dL</td></tr></table></div>"
        },
        "status": "final",
        "subject": {
          "reference": "urn:uuid:c9d99684-e1c4-4447-b4db-3182d1deea46",
          "display": "Victor Lagarde"
        },
        "effectiveDateTime": "2023-09-22T04:48:18Z",
        "specimen": {
          "reference": "urn:uuid:daa97631-6595-48e7-962b-c992cefbb6ee"
        }
      }
    },
    {
      "fullUrl": "urn:uuid:dd1fc296-6340-48b2-9aed-b0e018d0fd22",
      "resource": {
        "resourceType": "Observation",
        "id": "dd1fc296-6340-48b2-9aed-b0e018d0fd22",
        "meta": {
          "profile": [
            "http://hl7.eu/fhir/laboratory/StructureDefinition/Observation-resultslab-eu-lab"
          ]
        },
        "performer": [
          {
            "display": "The Central European Lab"
          }
        ],
        "category": [
          {
            "coding": [
              {
                "system": "http://terminology.hl7.org/CodeSystem/observation-category",
                "code": "laboratory"
              }
            ]
          }
        ],
        "code": {
          "coding": [
            {
              "code": "2951-2",
              "system": "http://loinc.org",
              "display": "Sodium [Moles/volume] in Serum or Plasma"
            }
          ],
          "text": "Sodium [Moles/volume] in Serum or Plasma"
        },
        "valueQuantity": {
          "system": "http://unitsofmeasure.org",
          "value": 137.4,
          "unit": "mmol/L",
          "code": "mmol/L"
        },
        "referenceRange": [
          {
            "low": {
              "value": 135,
              "code": "mmol/L",
              "system": "http://unitsofmeasure.org"
            }
          },
          {
            "high": {
              "value": 145,
              "code": "mmol/L",
              "system": "http://unitsofmeasure.org"
            }
          }
        ],
        "text": {
          "status": "generated",
          "div": "<div xmlns=\"http://www.w3.org/1999/xhtml\"><table class=\"hl7__eu__lab__report\"><tr><th>Test</th><th>22-Sep-2023</th><th>Reference&#xA0;Range</th><th>Unit</th></tr><tr><td>Sodium [Moles/volume] in Serum or Plasma</td><td>137.4</td><td>135 - 145</td><td></td><td>mmol/L</td></tr></table></div>"
        },
        "status": "final",
        "subject": {
          "reference": "urn:uuid:c9d99684-e1c4-4447-b4db-3182d1deea46",
          "display": "Victor Lagarde"
        },
        "effectiveDateTime": "2023-09-22T04:48:18Z",
        "specimen": {
          "reference": "urn:uuid:daa97631-6595-48e7-962b-c992cefbb6ee"
        }
      }
    },
    {
      "fullUrl": "urn:uuid:0ccb8d37-c1ac-4f60-bd63-9297fd3c3947",
      "resource": {
        "resourceType": "Observation",
        "id": "0ccb8d37-c1ac-4f60-bd63-9297fd3c3947",
        "meta": {
          "profile": [
            "http://hl7.eu/fhir/laboratory/StructureDefinition/Observation-resultslab-eu-lab"
          ]
        },
        "performer": [
          {
            "display": "The Central European Lab"
          }
        ],
        "category": [
          {
            "coding": [
              {
                "system": "http://terminology.hl7.org/CodeSystem/observation-category",
                "code": "laboratory"
              }
            ]
          }
        ],
        "code": {
          "coding": [
            {
              "code": "2823-3",
              "system": "http://loinc.org",
              "display": "Potassium [Moles/volume] in Serum or Plasma"
            }
          ],
          "text": "Potassium [Moles/volume] in Serum or Plasma"
        },
        "valueQuantity": {
          "system": "http://unitsofmeasure.org",
          "value": 4.8,
          "unit": "mmol/L",
          "code": "mmol/L"
        },
        "referenceRange": [
          {
            "low": {
              "value": 3.5,
              "code": "mmol/L",
              "system": "http://unitsofmeasure.org"
            }
          },
          {
            "high": {
              "value": 5.3,
              "code": "mmol/L",
              "system": "http://unitsofmeasure.org"
            }
          }
        ],
        "text": {
          "status": "generated",
          "div": "<div xmlns=\"http://www.w3.org/1999/xhtml\"><table class=\"hl7__eu__lab__report\"><tr><th>Test</th><th>22-Sep-2023</th><th>Reference&#xA0;Range</th><th>Unit</th></tr><tr><td>Potassium [Moles/volume] in Serum or Plasma</td><td>4.8</td><td>3.5 - 5.3</td><td></td><td>mmol/L</td></tr></table></div>"
        },
        "status": "final",
        "subject": {
          "reference": "urn:uuid:c9d99684-e1c4-4447-b4db-3182d1deea46",
          "display": "Victor Lagarde"
        },
        "effectiveDateTime": "2023-09-22T04:48:18Z",
        "specimen": {
          "reference": "urn:uuid:daa97631-6595-48e7-962b-c992cefbb6ee"
        }
      }
    },
    {
      "fullUrl": "urn:uuid:eae1f320-89cc-470a-8ff3-39ef49b3d3d2",
      "resource": {
        "resourceType": "Observation",
        "id": "eae1f320-89cc-470a-8ff3-39ef49b3d3d2",
        "meta": {
          "profile": [
            "http://hl7.eu/fhir/laboratory/StructureDefinition/Observation-resultslab-eu-lab"
          ]
        },
        "performer": [
          {
            "display": "The Central European Lab"
          }
        ],
        "category": [
          {
            "coding": [
              {
                "system": "http://terminology.hl7.org/CodeSystem/observation-category",
                "code": "laboratory"
              }
            ]
          }
        ],
        "code": {
          "coding": [
            {
              "code": "2075-0",
              "system": "http://loinc.org",
              "display": "Chloride [Moles/volume] in Serum or Plasma"
            }
          ],
          "text": "Chloride [Moles/volume] in Serum or Plasma"
        },
        "valueQuantity": {
          "system": "http://unitsofmeasure.org",
          "value": 107.7,
          "unit": "mmol/L",
          "code": "mmol/L"
        },
        "referenceRange": [
          {
            "low": {
              "value": 98,
              "code": "mmol/L",
              "system": "http://unitsofmeasure.org"
            }
          },
          {
            "high": {
              "value": 107,
              "code": "mmol/L",
              "system": "http://unitsofmeasure.org"
            }
          }
        ],
        "interpretation": [
          {
            "coding": [
              {
                "code": "H",
                "system": "http://terminology.hl7.org/CodeSystem/v3-ObservationInterpretation",
                "display": "High"
              }
            ]
          }
        ],
        "text": {
          "status": "generated",
          "div": "<div xmlns=\"http://www.w3.org/1999/xhtml\"><table class=\"hl7__eu__lab__report\"><tr><th>Test</th><th>22-Sep-2023</th><th>Reference&#xA0;Range</th><th>Unit</th></tr><tr><td>Chloride [Moles/volume] in Serum or Plasma</td><td>107.7</td><td>98 - 107</td><td>H</td><td>mmol/L</td></tr></table></div>"
        },
        "status": "final",
        "subject": {
          "reference": "urn:uuid:c9d99684-e1c4-4447-b4db-3182d1deea46",
          "display": "Victor Lagarde"
        },
        "effectiveDateTime": "2023-09-22T04:48:18Z",
        "specimen": {
          "reference": "urn:uuid:daa97631-6595-48e7-962b-c992cefbb6ee"
        }
      }
    },
    {
      "fullUrl": "urn:uuid:f6755df0-bd59-44ef-a71d-534b695b615b",
      "resource": {
        "resourceType": "Observation",
        "id": "f6755df0-bd59-44ef-a71d-534b695b615b",
        "meta": {
          "profile": [
            "http://hl7.eu/fhir/laboratory/StructureDefinition/Observation-resultslab-eu-lab"
          ]
        },
        "performer": [
          {
            "display": "The Central European Lab"
          }
        ],
        "category": [
          {
            "coding": [
              {
                "system": "http://terminology.hl7.org/CodeSystem/observation-category",
                "code": "laboratory"
              }
            ]
          }
        ],
        "code": {
          "coding": [
            {
              "code": "2028-9",
              "system": "http://loinc.org",
              "display": "Carbon dioxide, total [Moles/volume] in Serum or Plasma"
            }
          ],
          "text": "Carbon dioxide, total [Moles/volume] in Serum or Plasma"
        },
        "valueQuantity": {
          "system": "http://unitsofmeasure.org",
          "value": 23.1,
          "unit": "mmol/L",
          "code": "mmol/L"
        },
        "referenceRange": [
          {
            "low": {
              "value": 22,
              "code": "mmol/L",
              "system": "http://unitsofmeasure.org"
            }
          },
          {
            "high": {
              "value": 33,
              "code": "mmol/L",
              "system": "http://unitsofmeasure.org"
            }
          }
        ],
        "text": {
          "status": "generated",
          "div": "<div xmlns=\"http://www.w3.org/1999/xhtml\"><table class=\"hl7__eu__lab__report\"><tr><th>Test</th><th>22-Sep-2023</th><th>Reference&#xA0;Range</th><th>Unit</th></tr><tr><td>Carbon dioxide, total [Moles/volume] in Serum or Plasma</td><td>23.1</td><td>22 - 33</td><td></td><td>mmol/L</td></tr></table></div>"
        },
        "status": "final",
        "subject": {
          "reference": "urn:uuid:c9d99684-e1c4-4447-b4db-3182d1deea46",
          "display": "Victor Lagarde"
        },
        "effectiveDateTime": "2023-09-22T04:48:18Z",
        "specimen": {
          "reference": "urn:uuid:daa97631-6595-48e7-962b-c992cefbb6ee"
        }
      }
    },
    {
      "fullUrl": "urn:uuid:9674492f-67c3-41aa-b3d1-0450aca4c692",
      "resource": {
        "resourceType": "Observation",
        "id": "9674492f-67c3-41aa-b3d1-0450aca4c692",
        "meta": {
          "profile": [
            "http://hl7.eu/fhir/laboratory/StructureDefinition/Observation-resultslab-eu-lab"
          ]
        },
        "performer": [
          {
            "display": "The Central European Lab"
          }
        ],
        "category": [
          {
            "coding": [
              {
                "system": "http://terminology.hl7.org/CodeSystem/observation-category",
                "code": "laboratory"
              }
            ]
          }
        ],
        "code": {
          "coding": [
            {
              "code": "5767-9",
              "system": "http://loinc.org",
              "display": "Appearance of Urine"
            }
          ],
          "text": "Appearance of Urine"
        },
        "text": {
          "status": "generated",
          "div": "<div xmlns=\"http://www.w3.org/1999/xhtml\"><table class=\"hl7__eu__lab__report\"><tr><th>Test</th><th>22-Sep-2023</th><th>Reference&#xA0;Range</th><th>Unit</th></tr><tr><td>Appearance of Urine</td></tr></table></div>"
        },
        "status": "final",
        "subject": {
          "reference": "urn:uuid:c9d99684-e1c4-4447-b4db-3182d1deea46",
          "display": "Victor Lagarde"
        },
        "effectiveDateTime": "2023-09-22T04:48:18Z",
        "specimen": {
          "reference": "urn:uuid:2ddd2773-c3b7-407e-859e-209e1188dc6b"
        }
      }
    },
    {
      "fullUrl": "urn:uuid:a77983d7-2fc3-4c56-83c5-5d5ed0847b32",
      "resource": {
        "resourceType": "Observation",
        "id": "a77983d7-2fc3-4c56-83c5-5d5ed0847b32",
        "meta": {
          "profile": [
            "http://hl7.eu/fhir/laboratory/StructureDefinition/Observation-resultslab-eu-lab"
          ]
        },
        "performer": [
          {
            "display": "The Central European Lab"
          }
        ],
        "category": [
          {
            "coding": [
              {
                "system": "http://terminology.hl7.org/CodeSystem/observation-category",
                "code": "laboratory"
              }
            ]
          }
        ],
        "code": {
          "coding": [
            {
              "code": "34533-0",
              "system": "http://loinc.org",
              "display": "Odor of Urine"
            }
          ],
          "text": "Odor of Urine"
        },
        "text": {
          "status": "generated",
          "div": "<div xmlns=\"http://www.w3.org/1999/xhtml\"><table class=\"hl7__eu__lab__report\"><tr><th>Test</th><th>22-Sep-2023</th><th>Reference&#xA0;Range</th><th>Unit</th></tr><tr><td>Odor of Urine</td></tr></table></div>"
        },
        "status": "final",
        "subject": {
          "reference": "urn:uuid:c9d99684-e1c4-4447-b4db-3182d1deea46",
          "display": "Victor Lagarde"
        },
        "effectiveDateTime": "2023-09-22T04:48:18Z",
        "specimen": {
          "reference": "urn:uuid:2ddd2773-c3b7-407e-859e-209e1188dc6b"
        }
      }
    },
    {
      "fullUrl": "urn:uuid:3ad40e2f-8dc0-4b74-bec3-616e812143af",
      "resource": {
        "resourceType": "Observation",
        "id": "3ad40e2f-8dc0-4b74-bec3-616e812143af",
        "meta": {
          "profile": [
            "http://hl7.eu/fhir/laboratory/StructureDefinition/Observation-resultslab-eu-lab"
          ]
        },
        "performer": [
          {
            "display": "The Central European Lab"
          }
        ],
        "category": [
          {
            "coding": [
              {
                "system": "http://terminology.hl7.org/CodeSystem/observation-category",
                "code": "laboratory"
              }
            ]
          }
        ],
        "code": {
          "coding": [
            {
              "code": "32167-9",
              "system": "http://loinc.org",
              "display": "Clarity of Urine"
            }
          ],
          "text": "Clarity of Urine"
        },
        "text": {
          "status": "generated",
          "div": "<div xmlns=\"http://www.w3.org/1999/xhtml\"><table class=\"hl7__eu__lab__report\"><tr><th>Test</th><th>22-Sep-2023</th><th>Reference&#xA0;Range</th><th>Unit</th></tr><tr><td>Clarity of Urine</td></tr></table></div>"
        },
        "status": "final",
        "subject": {
          "reference": "urn:uuid:c9d99684-e1c4-4447-b4db-3182d1deea46",
          "display": "Victor Lagarde"
        },
        "effectiveDateTime": "2023-09-22T04:48:18Z",
        "specimen": {
          "reference": "urn:uuid:2ddd2773-c3b7-407e-859e-209e1188dc6b"
        }
      }
    },
    {
      "fullUrl": "urn:uuid:94987ba5-31b4-453f-8e6b-43533ee56c1b",
      "resource": {
        "resourceType": "Observation",
        "id": "94987ba5-31b4-453f-8e6b-43533ee56c1b",
        "meta": {
          "profile": [
            "http://hl7.eu/fhir/laboratory/StructureDefinition/Observation-resultslab-eu-lab"
          ]
        },
        "performer": [
          {
            "display": "The Central European Lab"
          }
        ],
        "category": [
          {
            "coding": [
              {
                "system": "http://terminology.hl7.org/CodeSystem/observation-category",
                "code": "laboratory"
              }
            ]
          }
        ],
        "code": {
          "coding": [
            {
              "code": "5778-6",
              "system": "http://loinc.org",
              "display": "Color of Urine"
            }
          ],
          "text": "Color of Urine"
        },
        "text": {
          "status": "generated",
          "div": "<div xmlns=\"http://www.w3.org/1999/xhtml\"><table class=\"hl7__eu__lab__report\"><tr><th>Test</th><th>22-Sep-2023</th><th>Reference&#xA0;Range</th><th>Unit</th></tr><tr><td>Color of Urine</td></tr></table></div>"
        },
        "status": "final",
        "subject": {
          "reference": "urn:uuid:c9d99684-e1c4-4447-b4db-3182d1deea46",
          "display": "Victor Lagarde"
        },
        "effectiveDateTime": "2023-09-22T04:48:18Z",
        "specimen": {
          "reference": "urn:uuid:2ddd2773-c3b7-407e-859e-209e1188dc6b"
        }
      }
    },
    {
      "fullUrl": "urn:uuid:442c21fb-b163-4039-b07c-616fe81066be",
      "resource": {
        "resourceType": "Observation",
        "id": "442c21fb-b163-4039-b07c-616fe81066be",
        "meta": {
          "profile": [
            "http://hl7.eu/fhir/laboratory/StructureDefinition/Observation-resultslab-eu-lab"
          ]
        },
        "performer": [
          {
            "display": "The Central European Lab"
          }
        ],
        "category": [
          {
            "coding": [
              {
                "system": "http://terminology.hl7.org/CodeSystem/observation-category",
                "code": "laboratory"
              }
            ]
          }
        ],
        "code": {
          "coding": [
            {
              "code": "5792-7",
              "system": "http://loinc.org",
              "display": "Glucose [Mass/volume] in Urine by Test strip"
            }
          ],
          "text": "Glucose [Mass/volume] in Urine by Test strip"
        },
        "valueQuantity": {
          "system": "http://unitsofmeasure.org",
          "value": 2.5,
          "unit": "mg/dL",
          "code": "mg/dL"
        },
        "referenceRange": [
          {
            "low": {
              "value": 0,
              "code": "mg/dL",
              "system": "http://unitsofmeasure.org"
            }
          },
          {
            "high": {
              "value": 0.8,
              "code": "mg/dL",
              "system": "http://unitsofmeasure.org"
            }
          }
        ],
        "interpretation": [
          {
            "coding": [
              {
                "code": "H",
                "system": "http://terminology.hl7.org/CodeSystem/v3-ObservationInterpretation",
                "display": "High"
              }
            ]
          }
        ],
        "text": {
          "status": "generated",
          "div": "<div xmlns=\"http://www.w3.org/1999/xhtml\"><table class=\"hl7__eu__lab__report\"><tr><th>Test</th><th>22-Sep-2023</th><th>Reference&#xA0;Range</th><th>Unit</th></tr><tr><td>Glucose [Mass/volume] in Urine by Test strip</td><td>2.5</td><td>0 - 0.8</td><td>H</td><td>mg/dL</td></tr></table></div>"
        },
        "status": "final",
        "subject": {
          "reference": "urn:uuid:c9d99684-e1c4-4447-b4db-3182d1deea46",
          "display": "Victor Lagarde"
        },
        "effectiveDateTime": "2023-09-22T04:48:18Z",
        "specimen": {
          "reference": "urn:uuid:2ddd2773-c3b7-407e-859e-209e1188dc6b"
        }
      }
    },
    {
      "fullUrl": "urn:uuid:88de80fe-f5c8-4678-bc7f-134aa6c5b0e7",
      "resource": {
        "resourceType": "Observation",
        "id": "88de80fe-f5c8-4678-bc7f-134aa6c5b0e7",
        "meta": {
          "profile": [
            "http://hl7.eu/fhir/laboratory/StructureDefinition/Observation-resultslab-eu-lab"
          ]
        },
        "performer": [
          {
            "display": "The Central European Lab"
          }
        ],
        "category": [
          {
            "coding": [
              {
                "system": "http://terminology.hl7.org/CodeSystem/observation-category",
                "code": "laboratory"
              }
            ]
          }
        ],
        "code": {
          "coding": [
            {
              "code": "25428-4",
              "system": "http://loinc.org",
              "display": "Glucose [Presence] in Urine by Test strip"
            }
          ],
          "text": "Glucose [Presence] in Urine by Test strip"
        },
        "text": {
          "status": "generated",
          "div": "<div xmlns=\"http://www.w3.org/1999/xhtml\"><table class=\"hl7__eu__lab__report\"><tr><th>Test</th><th>22-Sep-2023</th><th>Reference&#xA0;Range</th><th>Unit</th></tr><tr><td>Glucose [Presence] in Urine by Test strip</td></tr></table></div>"
        },
        "status": "final",
        "subject": {
          "reference": "urn:uuid:c9d99684-e1c4-4447-b4db-3182d1deea46",
          "display": "Victor Lagarde"
        },
        "effectiveDateTime": "2023-09-22T04:48:18Z",
        "specimen": {
          "reference": "urn:uuid:2ddd2773-c3b7-407e-859e-209e1188dc6b"
        }
      }
    },
    {
      "fullUrl": "urn:uuid:84f17065-4b2f-43fe-b85c-47ab1851813d",
      "resource": {
        "resourceType": "Observation",
        "id": "84f17065-4b2f-43fe-b85c-47ab1851813d",
        "meta": {
          "profile": [
            "http://hl7.eu/fhir/laboratory/StructureDefinition/Observation-resultslab-eu-lab"
          ]
        },
        "performer": [
          {
            "display": "The Central European Lab"
          }
        ],
        "category": [
          {
            "coding": [
              {
                "system": "http://terminology.hl7.org/CodeSystem/observation-category",
                "code": "laboratory"
              }
            ]
          }
        ],
        "code": {
          "coding": [
            {
              "code": "20505-4",
              "system": "http://loinc.org",
              "display": "Bilirubin.total [Mass/volume] in Urine by Test strip"
            }
          ],
          "text": "Bilirubin.total [Mass/volume] in Urine by Test strip"
        },
        "valueQuantity": {
          "system": "http://unitsofmeasure.org",
          "value": 1.3,
          "unit": "mg/dL",
          "code": "mg/dL"
        },
        "referenceRange": [
          {
            "low": {
              "value": 0,
              "code": "mg/dL",
              "system": "http://unitsofmeasure.org"
            }
          },
          {
            "high": {
              "value": 1.9,
              "code": "mg/dL",
              "system": "http://unitsofmeasure.org"
            }
          }
        ],
        "text": {
          "status": "generated",
          "div": "<div xmlns=\"http://www.w3.org/1999/xhtml\"><table class=\"hl7__eu__lab__report\"><tr><th>Test</th><th>22-Sep-2023</th><th>Reference&#xA0;Range</th><th>Unit</th></tr><tr><td>Bilirubin.total [Mass/volume] in Urine by Test strip</td><td>1.3</td><td>0 - 1.9</td><td></td><td>mg/dL</td></tr></table></div>"
        },
        "status": "final",
        "subject": {
          "reference": "urn:uuid:c9d99684-e1c4-4447-b4db-3182d1deea46",
          "display": "Victor Lagarde"
        },
        "effectiveDateTime": "2023-09-22T04:48:18Z",
        "specimen": {
          "reference": "urn:uuid:2ddd2773-c3b7-407e-859e-209e1188dc6b"
        }
      }
    },
    {
      "fullUrl": "urn:uuid:01dfefa3-f278-4b10-bd07-ef878a35a44f",
      "resource": {
        "resourceType": "Observation",
        "id": "01dfefa3-f278-4b10-bd07-ef878a35a44f",
        "meta": {
          "profile": [
            "http://hl7.eu/fhir/laboratory/StructureDefinition/Observation-resultslab-eu-lab"
          ]
        },
        "performer": [
          {
            "display": "The Central European Lab"
          }
        ],
        "category": [
          {
            "coding": [
              {
                "system": "http://terminology.hl7.org/CodeSystem/observation-category",
                "code": "laboratory"
              }
            ]
          }
        ],
        "code": {
          "coding": [
            {
              "code": "5770-3",
              "system": "http://loinc.org",
              "display": "Bilirubin.total [Presence] in Urine by Test strip"
            }
          ],
          "text": "Bilirubin.total [Presence] in Urine by Test strip"
        },
        "text": {
          "status": "generated",
          "div": "<div xmlns=\"http://www.w3.org/1999/xhtml\"><table class=\"hl7__eu__lab__report\"><tr><th>Test</th><th>22-Sep-2023</th><th>Reference&#xA0;Range</th><th>Unit</th></tr><tr><td>Bilirubin.total [Presence] in Urine by Test strip</td></tr></table></div>"
        },
        "status": "final",
        "subject": {
          "reference": "urn:uuid:c9d99684-e1c4-4447-b4db-3182d1deea46",
          "display": "Victor Lagarde"
        },
        "effectiveDateTime": "2023-09-22T04:48:18Z",
        "specimen": {
          "reference": "urn:uuid:2ddd2773-c3b7-407e-859e-209e1188dc6b"
        }
      }
    },
    {
      "fullUrl": "urn:uuid:f9cb13aa-2d49-430e-b7c8-fb240ee8e49b",
      "resource": {
        "resourceType": "Observation",
        "id": "f9cb13aa-2d49-430e-b7c8-fb240ee8e49b",
        "meta": {
          "profile": [
            "http://hl7.eu/fhir/laboratory/StructureDefinition/Observation-resultslab-eu-lab"
          ]
        },
        "performer": [
          {
            "display": "The Central European Lab"
          }
        ],
        "category": [
          {
            "coding": [
              {
                "system": "http://terminology.hl7.org/CodeSystem/observation-category",
                "code": "laboratory"
              }
            ]
          }
        ],
        "code": {
          "coding": [
            {
              "code": "5797-6",
              "system": "http://loinc.org",
              "display": "Ketones [Mass/volume] in Urine by Test strip"
            }
          ],
          "text": "Ketones [Mass/volume] in Urine by Test strip"
        },
        "valueQuantity": {
          "system": "http://unitsofmeasure.org",
          "value": 7.2,
          "unit": "mg/dL",
          "code": "mg/dL"
        },
        "referenceRange": [
          {
            "low": {
              "value": 0,
              "code": "mg/dL",
              "system": "http://unitsofmeasure.org"
            }
          },
          {
            "high": {
              "value": 3,
              "code": "mg/dL",
              "system": "http://unitsofmeasure.org"
            }
          }
        ],
        "interpretation": [
          {
            "coding": [
              {
                "code": "H",
                "system": "http://terminology.hl7.org/CodeSystem/v3-ObservationInterpretation",
                "display": "High"
              }
            ]
          }
        ],
        "text": {
          "status": "generated",
          "div": "<div xmlns=\"http://www.w3.org/1999/xhtml\"><table class=\"hl7__eu__lab__report\"><tr><th>Test</th><th>22-Sep-2023</th><th>Reference&#xA0;Range</th><th>Unit</th></tr><tr><td>Ketones [Mass/volume] in Urine by Test strip</td><td>7.2</td><td>0 - 3</td><td>H</td><td>mg/dL</td></tr></table></div>"
        },
        "status": "final",
        "subject": {
          "reference": "urn:uuid:c9d99684-e1c4-4447-b4db-3182d1deea46",
          "display": "Victor Lagarde"
        },
        "effectiveDateTime": "2023-09-22T04:48:18Z",
        "specimen": {
          "reference": "urn:uuid:2ddd2773-c3b7-407e-859e-209e1188dc6b"
        }
      }
    },
    {
      "fullUrl": "urn:uuid:657b5deb-d1a8-45a6-af1f-436e789a4fb6",
      "resource": {
        "resourceType": "Observation",
        "id": "657b5deb-d1a8-45a6-af1f-436e789a4fb6",
        "meta": {
          "profile": [
            "http://hl7.eu/fhir/laboratory/StructureDefinition/Observation-resultslab-eu-lab"
          ]
        },
        "performer": [
          {
            "display": "The Central European Lab"
          }
        ],
        "category": [
          {
            "coding": [
              {
                "system": "http://terminology.hl7.org/CodeSystem/observation-category",
                "code": "laboratory"
              }
            ]
          }
        ],
        "code": {
          "coding": [
            {
              "code": "2514-8",
              "system": "http://loinc.org",
              "display": "Ketones [Presence] in Urine by Test strip"
            }
          ],
          "text": "Ketones [Presence] in Urine by Test strip"
        },
        "text": {
          "status": "generated",
          "div": "<div xmlns=\"http://www.w3.org/1999/xhtml\"><table class=\"hl7__eu__lab__report\"><tr><th>Test</th><th>22-Sep-2023</th><th>Reference&#xA0;Range</th><th>Unit</th></tr><tr><td>Ketones [Presence] in Urine by Test strip</td></tr></table></div>"
        },
        "status": "final",
        "subject": {
          "reference": "urn:uuid:c9d99684-e1c4-4447-b4db-3182d1deea46",
          "display": "Victor Lagarde"
        },
        "effectiveDateTime": "2023-09-22T04:48:18Z",
        "specimen": {
          "reference": "urn:uuid:2ddd2773-c3b7-407e-859e-209e1188dc6b"
        }
      }
    },
    {
      "fullUrl": "urn:uuid:1bfa51b8-95d5-4210-b5af-72fae1c02d49",
      "resource": {
        "resourceType": "Observation",
        "id": "1bfa51b8-95d5-4210-b5af-72fae1c02d49",
        "meta": {
          "profile": [
            "http://hl7.eu/fhir/laboratory/StructureDefinition/Observation-resultslab-eu-lab"
          ]
        },
        "performer": [
          {
            "display": "The Central European Lab"
          }
        ],
        "category": [
          {
            "coding": [
              {
                "system": "http://terminology.hl7.org/CodeSystem/observation-category",
                "code": "laboratory"
              }
            ]
          }
        ],
        "code": {
          "coding": [
            {
              "code": "5811-5",
              "system": "http://loinc.org",
              "display": "Specific gravity of Urine by Test strip"
            }
          ],
          "text": "Specific gravity of Urine by Test strip"
        },
        "valueQuantity": {
          "system": "http://unitsofmeasure.org",
          "value": 1,
          "unit": "{nominal}",
          "code": "{nominal}"
        },
        "referenceRange": [
          {
            "low": {
              "value": 1.01,
              "code": "g/mL",
              "system": "http://unitsofmeasure.org"
            }
          },
          {
            "high": {
              "value": 1.03,
              "code": "g/mL",
              "system": "http://unitsofmeasure.org"
            }
          }
        ],
        "interpretation": [
          {
            "coding": [
              {
                "code": "L",
                "system": "http://terminology.hl7.org/CodeSystem/v3-ObservationInterpretation",
                "display": "Low"
              }
            ]
          }
        ],
        "text": {
          "status": "generated",
          "div": "<div xmlns=\"http://www.w3.org/1999/xhtml\"><table class=\"hl7__eu__lab__report\"><tr><th>Test</th><th>22-Sep-2023</th><th>Reference&#xA0;Range</th><th>Unit</th></tr><tr><td>Specific gravity of Urine by Test strip</td><td>1.0</td><td>1.01 - 1.03</td><td>L</td><td>{nominal}</td></tr></table></div>"
        },
        "status": "final",
        "subject": {
          "reference": "urn:uuid:c9d99684-e1c4-4447-b4db-3182d1deea46",
          "display": "Victor Lagarde"
        },
        "effectiveDateTime": "2023-09-22T04:48:18Z",
        "specimen": {
          "reference": "urn:uuid:2ddd2773-c3b7-407e-859e-209e1188dc6b"
        }
      }
    },
    {
      "fullUrl": "urn:uuid:42a15fd0-f360-4d37-b0ad-21ed1829a0c3",
      "resource": {
        "resourceType": "Observation",
        "id": "42a15fd0-f360-4d37-b0ad-21ed1829a0c3",
        "meta": {
          "profile": [
            "http://hl7.eu/fhir/laboratory/StructureDefinition/Observation-resultslab-eu-lab"
          ]
        },
        "performer": [
          {
            "display": "The Central European Lab"
          }
        ],
        "category": [
          {
            "coding": [
              {
                "system": "http://terminology.hl7.org/CodeSystem/observation-category",
                "code": "laboratory"
              }
            ]
          }
        ],
        "code": {
          "coding": [
            {
              "code": "5803-2",
              "system": "http://loinc.org",
              "display": "pH of Urine by Test strip"
            }
          ],
          "text": "pH of Urine by Test strip"
        },
        "valueQuantity": {
          "system": "http://unitsofmeasure.org",
          "value": 5.8,
          "unit": "pH",
          "code": "pH"
        },
        "referenceRange": [
          {
            "low": {
              "value": 4.5,
              "code": "pH",
              "system": "http://unitsofmeasure.org"
            }
          },
          {
            "high": {
              "value": 7.5,
              "code": "pH",
              "system": "http://unitsofmeasure.org"
            }
          }
        ],
        "text": {
          "status": "generated",
          "div": "<div xmlns=\"http://www.w3.org/1999/xhtml\"><table class=\"hl7__eu__lab__report\"><tr><th>Test</th><th>22-Sep-2023</th><th>Reference&#xA0;Range</th><th>Unit</th></tr><tr><td>pH of Urine by Test strip</td><td>5.8</td><td>4.5 - 7.5</td><td></td><td>pH</td></tr></table></div>"
        },
        "status": "final",
        "subject": {
          "reference": "urn:uuid:c9d99684-e1c4-4447-b4db-3182d1deea46",
          "display": "Victor Lagarde"
        },
        "effectiveDateTime": "2023-09-22T04:48:18Z",
        "specimen": {
          "reference": "urn:uuid:2ddd2773-c3b7-407e-859e-209e1188dc6b"
        }
      }
    },
    {
      "fullUrl": "urn:uuid:be6b01b8-4782-44f8-b172-7c971876ae06",
      "resource": {
        "resourceType": "Observation",
        "id": "be6b01b8-4782-44f8-b172-7c971876ae06",
        "meta": {
          "profile": [
            "http://hl7.eu/fhir/laboratory/StructureDefinition/Observation-resultslab-eu-lab"
          ]
        },
        "performer": [
          {
            "display": "The Central European Lab"
          }
        ],
        "category": [
          {
            "coding": [
              {
                "system": "http://terminology.hl7.org/CodeSystem/observation-category",
                "code": "laboratory"
              }
            ]
          }
        ],
        "code": {
          "coding": [
            {
              "code": "5804-0",
              "system": "http://loinc.org",
              "display": "Protein [Mass/volume] in Urine by Test strip"
            }
          ],
          "text": "Protein [Mass/volume] in Urine by Test strip"
        },
        "valueQuantity": {
          "system": "http://unitsofmeasure.org",
          "value": 360.8,
          "unit": "mg/dL",
          "code": "mg/dL"
        },
        "referenceRange": [
          {
            "low": {
              "value": 0,
              "code": "mg/dL",
              "system": "http://unitsofmeasure.org"
            }
          },
          {
            "high": {
              "value": 149,
              "code": "mg/dL",
              "system": "http://unitsofmeasure.org"
            }
          }
        ],
        "interpretation": [
          {
            "coding": [
              {
                "code": "H",
                "system": "http://terminology.hl7.org/CodeSystem/v3-ObservationInterpretation",
                "display": "High"
              }
            ]
          }
        ],
        "text": {
          "status": "generated",
          "div": "<div xmlns=\"http://www.w3.org/1999/xhtml\"><table class=\"hl7__eu__lab__report\"><tr><th>Test</th><th>22-Sep-2023</th><th>Reference&#xA0;Range</th><th>Unit</th></tr><tr><td>Protein [Mass/volume] in Urine by Test strip</td><td>360.8</td><td>0 - 149</td><td>H</td><td>mg/dL</td></tr></table></div>"
        },
        "status": "final",
        "subject": {
          "reference": "urn:uuid:c9d99684-e1c4-4447-b4db-3182d1deea46",
          "display": "Victor Lagarde"
        },
        "effectiveDateTime": "2023-09-22T04:48:18Z",
        "specimen": {
          "reference": "urn:uuid:2ddd2773-c3b7-407e-859e-209e1188dc6b"
        }
      }
    },
    {
      "fullUrl": "urn:uuid:9cab690a-a8ce-45b9-957d-08833bf6ff8a",
      "resource": {
        "resourceType": "Observation",
        "id": "9cab690a-a8ce-45b9-957d-08833bf6ff8a",
        "meta": {
          "profile": [
            "http://hl7.eu/fhir/laboratory/StructureDefinition/Observation-resultslab-eu-lab"
          ]
        },
        "performer": [
          {
            "display": "The Central European Lab"
          }
        ],
        "category": [
          {
            "coding": [
              {
                "system": "http://terminology.hl7.org/CodeSystem/observation-category",
                "code": "laboratory"
              }
            ]
          }
        ],
        "code": {
          "coding": [
            {
              "code": "20454-5",
              "system": "http://loinc.org",
              "display": "Protein [Presence] in Urine by Test strip"
            }
          ],
          "text": "Protein [Presence] in Urine by Test strip"
        },
        "text": {
          "status": "generated",
          "div": "<div xmlns=\"http://www.w3.org/1999/xhtml\"><table class=\"hl7__eu__lab__report\"><tr><th>Test</th><th>22-Sep-2023</th><th>Reference&#xA0;Range</th><th>Unit</th></tr><tr><td>Protein [Presence] in Urine by Test strip</td></tr></table></div>"
        },
        "status": "final",
        "subject": {
          "reference": "urn:uuid:c9d99684-e1c4-4447-b4db-3182d1deea46",
          "display": "Victor Lagarde"
        },
        "effectiveDateTime": "2023-09-22T04:48:18Z",
        "specimen": {
          "reference": "urn:uuid:2ddd2773-c3b7-407e-859e-209e1188dc6b"
        }
      }
    },
    {
      "fullUrl": "urn:uuid:e1bce0c4-bf89-48ae-bdcd-eb5c6f499a65",
      "resource": {
        "resourceType": "Observation",
        "id": "e1bce0c4-bf89-48ae-bdcd-eb5c6f499a65",
        "meta": {
          "profile": [
            "http://hl7.eu/fhir/laboratory/StructureDefinition/Observation-resultslab-eu-lab"
          ]
        },
        "performer": [
          {
            "display": "The Central European Lab"
          }
        ],
        "category": [
          {
            "coding": [
              {
                "system": "http://terminology.hl7.org/CodeSystem/observation-category",
                "code": "laboratory"
              }
            ]
          }
        ],
        "code": {
          "coding": [
            {
              "code": "5802-4",
              "system": "http://loinc.org",
              "display": "Nitrite [Presence] in Urine by Test strip"
            }
          ],
          "text": "Nitrite [Presence] in Urine by Test strip"
        },
        "text": {
          "status": "generated",
          "div": "<div xmlns=\"http://www.w3.org/1999/xhtml\"><table class=\"hl7__eu__lab__report\"><tr><th>Test</th><th>22-Sep-2023</th><th>Reference&#xA0;Range</th><th>Unit</th></tr><tr><td>Nitrite [Presence] in Urine by Test strip</td></tr></table></div>"
        },
        "status": "final",
        "subject": {
          "reference": "urn:uuid:c9d99684-e1c4-4447-b4db-3182d1deea46",
          "display": "Victor Lagarde"
        },
        "effectiveDateTime": "2023-09-22T04:48:18Z",
        "specimen": {
          "reference": "urn:uuid:2ddd2773-c3b7-407e-859e-209e1188dc6b"
        }
      }
    },
    {
      "fullUrl": "urn:uuid:aa208e84-7950-4229-9b66-52616ae1426a",
      "resource": {
        "resourceType": "Observation",
        "id": "aa208e84-7950-4229-9b66-52616ae1426a",
        "meta": {
          "profile": [
            "http://hl7.eu/fhir/laboratory/StructureDefinition/Observation-resultslab-eu-lab"
          ]
        },
        "performer": [
          {
            "display": "The Central European Lab"
          }
        ],
        "category": [
          {
            "coding": [
              {
                "system": "http://terminology.hl7.org/CodeSystem/observation-category",
                "code": "laboratory"
              }
            ]
          }
        ],
        "code": {
          "coding": [
            {
              "code": "5794-3",
              "system": "http://loinc.org",
              "display": "Hemoglobin [Presence] in Urine by Test strip"
            }
          ],
          "text": "Hemoglobin [Presence] in Urine by Test strip"
        },
        "text": {
          "status": "generated",
          "div": "<div xmlns=\"http://www.w3.org/1999/xhtml\"><table class=\"hl7__eu__lab__report\"><tr><th>Test</th><th>22-Sep-2023</th><th>Reference&#xA0;Range</th><th>Unit</th></tr><tr><td>Hemoglobin [Presence] in Urine by Test strip</td></tr></table></div>"
        },
        "status": "final",
        "subject": {
          "reference": "urn:uuid:c9d99684-e1c4-4447-b4db-3182d1deea46",
          "display": "Victor Lagarde"
        },
        "effectiveDateTime": "2023-09-22T04:48:18Z",
        "specimen": {
          "reference": "urn:uuid:2ddd2773-c3b7-407e-859e-209e1188dc6b"
        }
      }
    },
    {
      "fullUrl": "urn:uuid:d8e858f5-585b-4b1a-89ab-68c395387eb8",
      "resource": {
        "resourceType": "Observation",
        "id": "d8e858f5-585b-4b1a-89ab-68c395387eb8",
        "meta": {
          "profile": [
            "http://hl7.eu/fhir/laboratory/StructureDefinition/Observation-resultslab-eu-lab"
          ]
        },
        "performer": [
          {
            "display": "The Central European Lab"
          }
        ],
        "category": [
          {
            "coding": [
              {
                "system": "http://terminology.hl7.org/CodeSystem/observation-category",
                "code": "laboratory"
              }
            ]
          }
        ],
        "code": {
          "coding": [
            {
              "code": "5799-2",
              "system": "http://loinc.org",
              "display": "Leukocyte esterase [Presence] in Urine by Test strip"
            }
          ],
          "text": "Leukocyte esterase [Presence] in Urine by Test strip"
        },
        "text": {
          "status": "generated",
          "div": "<div xmlns=\"http://www.w3.org/1999/xhtml\"><table class=\"hl7__eu__lab__report\"><tr><th>Test</th><th>22-Sep-2023</th><th>Reference&#xA0;Range</th><th>Unit</th></tr><tr><td>Leukocyte esterase [Presence] in Urine by Test strip</td></tr></table></div>"
        },
        "status": "final",
        "subject": {
          "reference": "urn:uuid:c9d99684-e1c4-4447-b4db-3182d1deea46",
          "display": "Victor Lagarde"
        },
        "effectiveDateTime": "2023-09-22T04:48:18Z",
        "specimen": {
          "reference": "urn:uuid:2ddd2773-c3b7-407e-859e-209e1188dc6b"
        }
      }
    },
    {
      "fullUrl": "urn:uuid:8e820b62-08e5-45af-852d-f42cf1fb082b",
      "resource": {
        "resourceType": "Observation",
        "id": "8e820b62-08e5-45af-852d-f42cf1fb082b",
        "meta": {
          "profile": [
            "http://hl7.eu/fhir/laboratory/StructureDefinition/Observation-resultslab-eu-lab"
          ]
        },
        "performer": [
          {
            "display": "The Central European Lab"
          }
        ],
        "category": [
          {
            "coding": [
              {
                "system": "http://terminology.hl7.org/CodeSystem/observation-category",
                "code": "laboratory"
              }
            ]
          }
        ],
        "code": {
          "coding": [
            {
              "code": "4548-4",
              "system": "http://loinc.org",
              "display": "Hemoglobin A1c/Hemoglobin.total in Blood"
            }
          ],
          "text": "Hemoglobin A1c/Hemoglobin.total in Blood"
        },
        "valueQuantity": {
          "system": "http://unitsofmeasure.org",
          "value": 3.1,
          "unit": "%",
          "code": "%"
        },
        "referenceRange": [
          {
            "low": {
              "value": 4.3,
              "code": "%",
              "system": "http://unitsofmeasure.org"
            }
          },
          {
            "high": {
              "value": 6,
              "code": "%",
              "system": "http://unitsofmeasure.org"
            }
          }
        ],
        "interpretation": [
          {
            "coding": [
              {
                "code": "L",
                "system": "http://terminology.hl7.org/CodeSystem/v3-ObservationInterpretation",
                "display": "Low"
              }
            ]
          }
        ],
        "text": {
          "status": "generated",
          "div": "<div xmlns=\"http://www.w3.org/1999/xhtml\"><table class=\"hl7__eu__lab__report\"><tr><th>Test</th><th>22-Sep-2023</th><th>Reference&#xA0;Range</th><th>Unit</th></tr><tr><td>Hemoglobin A1c/Hemoglobin.total in Blood</td><td>3.1</td><td>4.3 - 6</td><td>L</td><td>%</td></tr></table></div>"
        },
        "status": "final",
        "subject": {
          "reference": "urn:uuid:c9d99684-e1c4-4447-b4db-3182d1deea46",
          "display": "Victor Lagarde"
        },
        "effectiveDateTime": "2023-09-22T04:48:18Z",
        "specimen": {
          "reference": "urn:uuid:1d5da3e8-edf7-4249-9e1a-901739592d16"
        }
      }
    },
    {
      "fullUrl": "urn:uuid:4b64207e-59d4-44ec-a9ff-75f23fcfb75d",
      "resource": {
        "resourceType": "Observation",
        "id": "4b64207e-59d4-44ec-a9ff-75f23fcfb75d",
        "meta": {
          "profile": [
            "http://hl7.eu/fhir/laboratory/StructureDefinition/Observation-resultslab-eu-lab"
          ]
        },
        "performer": [
          {
            "display": "The Central European Lab"
          }
        ],
        "category": [
          {
            "coding": [
              {
                "system": "http://terminology.hl7.org/CodeSystem/observation-category",
                "code": "laboratory"
              }
            ]
          }
        ],
        "code": {
          "coding": [
            {
              "code": "2339-0",
              "system": "http://loinc.org",
              "display": "Glucose [Mass/volume] in Blood"
            }
          ],
          "text": "Glucose [Mass/volume] in Blood"
        },
        "valueQuantity": {
          "system": "http://unitsofmeasure.org",
          "value": 97.1,
          "unit": "mg/dL",
          "code": "mg/dL"
        },
        "referenceRange": [
          {
            "low": {
              "value": 70,
              "code": "mg/dL",
              "system": "http://unitsofmeasure.org"
            }
          },
          {
            "high": {
              "value": 140,
              "code": "mg/dL",
              "system": "http://unitsofmeasure.org"
            }
          }
        ],
        "text": {
          "status": "generated",
          "div": "<div xmlns=\"http://www.w3.org/1999/xhtml\"><table class=\"hl7__eu__lab__report\"><tr><th>Test</th><th>22-Sep-2023</th><th>Reference&#xA0;Range</th><th>Unit</th></tr><tr><td>Glucose [Mass/volume] in Blood</td><td>97.1</td><td>70 - 140</td><td></td><td>mg/dL</td></tr></table></div>"
        },
        "status": "final",
        "subject": {
          "reference": "urn:uuid:c9d99684-e1c4-4447-b4db-3182d1deea46",
          "display": "Victor Lagarde"
        },
        "effectiveDateTime": "2023-09-22T04:48:18Z",
        "specimen": {
          "reference": "urn:uuid:1d5da3e8-edf7-4249-9e1a-901739592d16"
        }
      }
    },
    {
      "fullUrl": "urn:uuid:f54be759-406a-4056-b6f2-389e51c6c2de",
      "resource": {
        "resourceType": "Observation",
        "id": "f54be759-406a-4056-b6f2-389e51c6c2de",
        "meta": {
          "profile": [
            "http://hl7.eu/fhir/laboratory/StructureDefinition/Observation-resultslab-eu-lab"
          ]
        },
        "performer": [
          {
            "display": "The Central European Lab"
          }
        ],
        "category": [
          {
            "coding": [
              {
                "system": "http://terminology.hl7.org/CodeSystem/observation-category",
                "code": "laboratory"
              }
            ]
          }
        ],
        "code": {
          "coding": [
            {
              "code": "6299-2",
              "system": "http://loinc.org",
              "display": "Urea nitrogen [Mass/volume] in Blood"
            }
          ],
          "text": "Urea nitrogen [Mass/volume] in Blood"
        },
        "valueQuantity": {
          "system": "http://unitsofmeasure.org",
          "value": 14,
          "unit": "mg/dL",
          "code": "mg/dL"
        },
        "referenceRange": [
          {
            "low": {
              "value": 7,
              "code": "mg/dL",
              "system": "http://unitsofmeasure.org"
            }
          },
          {
            "high": {
              "value": 20,
              "code": "mg/dL",
              "system": "http://unitsofmeasure.org"
            }
          }
        ],
        "text": {
          "status": "generated",
          "div": "<div xmlns=\"http://www.w3.org/1999/xhtml\"><table class=\"hl7__eu__lab__report\"><tr><th>Test</th><th>22-Sep-2023</th><th>Reference&#xA0;Range</th><th>Unit</th></tr><tr><td>Urea nitrogen [Mass/volume] in Blood</td><td>14.0</td><td>7 - 20</td><td></td><td>mg/dL</td></tr></table></div>"
        },
        "status": "final",
        "subject": {
          "reference": "urn:uuid:c9d99684-e1c4-4447-b4db-3182d1deea46",
          "display": "Victor Lagarde"
        },
        "effectiveDateTime": "2023-09-22T04:48:18Z",
        "specimen": {
          "reference": "urn:uuid:1d5da3e8-edf7-4249-9e1a-901739592d16"
        }
      }
    },
    {
      "fullUrl": "urn:uuid:1d86754b-144c-480b-9d71-3e30f9369aea",
      "resource": {
        "resourceType": "Observation",
        "id": "1d86754b-144c-480b-9d71-3e30f9369aea",
        "meta": {
          "profile": [
            "http://hl7.eu/fhir/laboratory/StructureDefinition/Observation-resultslab-eu-lab"
          ]
        },
        "performer": [
          {
            "display": "The Central European Lab"
          }
        ],
        "category": [
          {
            "coding": [
              {
                "system": "http://terminology.hl7.org/CodeSystem/observation-category",
                "code": "laboratory"
              }
            ]
          }
        ],
        "code": {
          "coding": [
            {
              "code": "38483-4",
              "system": "http://loinc.org",
              "display": "Creatinine [Mass/volume] in Blood"
            }
          ],
          "text": "Creatinine [Mass/volume] in Blood"
        },
        "valueQuantity": {
          "system": "http://unitsofmeasure.org",
          "value": 4.5,
          "unit": "mg/dL",
          "code": "mg/dL"
        },
        "referenceRange": [
          {
            "low": {
              "value": 0.9,
              "code": "mg/dL",
              "system": "http://unitsofmeasure.org"
            }
          },
          {
            "high": {
              "value": 1.3,
              "code": "mg/dL",
              "system": "http://unitsofmeasure.org"
            }
          }
        ],
        "interpretation": [
          {
            "coding": [
              {
                "code": "H",
                "system": "http://terminology.hl7.org/CodeSystem/v3-ObservationInterpretation",
                "display": "High"
              }
            ]
          }
        ],
        "text": {
          "status": "generated",
          "div": "<div xmlns=\"http://www.w3.org/1999/xhtml\"><table class=\"hl7__eu__lab__report\"><tr><th>Test</th><th>22-Sep-2023</th><th>Reference&#xA0;Range</th><th>Unit</th></tr><tr><td>Creatinine [Mass/volume] in Blood</td><td>4.5</td><td>0.9 - 1.3</td><td>H</td><td>mg/dL</td></tr></table></div>"
        },
        "status": "final",
        "subject": {
          "reference": "urn:uuid:c9d99684-e1c4-4447-b4db-3182d1deea46",
          "display": "Victor Lagarde"
        },
        "effectiveDateTime": "2023-09-22T04:48:18Z",
        "specimen": {
          "reference": "urn:uuid:1d5da3e8-edf7-4249-9e1a-901739592d16"
        }
      }
    },
    {
      "fullUrl": "urn:uuid:28eac8d6-4f42-4f3a-b0a7-27b7230ae883",
      "resource": {
        "resourceType": "Observation",
        "id": "28eac8d6-4f42-4f3a-b0a7-27b7230ae883",
        "meta": {
          "profile": [
            "http://hl7.eu/fhir/laboratory/StructureDefinition/Observation-resultslab-eu-lab"
          ]
        },
        "performer": [
          {
            "display": "The Central European Lab"
          }
        ],
        "category": [
          {
            "coding": [
              {
                "system": "http://terminology.hl7.org/CodeSystem/observation-category",
                "code": "laboratory"
              }
            ]
          }
        ],
        "code": {
          "coding": [
            {
              "code": "49765-1",
              "system": "http://loinc.org",
              "display": "Calcium [Mass/volume] in Blood"
            }
          ],
          "text": "Calcium [Mass/volume] in Blood"
        },
        "valueQuantity": {
          "system": "http://unitsofmeasure.org",
          "value": 10.1,
          "unit": "mg/dL",
          "code": "mg/dL"
        },
        "referenceRange": [
          {
            "low": {
              "value": 8.5,
              "code": "mg/dL",
              "system": "http://unitsofmeasure.org"
            }
          },
          {
            "high": {
              "value": 10.5,
              "code": "mg/dL",
              "system": "http://unitsofmeasure.org"
            }
          }
        ],
        "text": {
          "status": "generated",
          "div": "<div xmlns=\"http://www.w3.org/1999/xhtml\"><table class=\"hl7__eu__lab__report\"><tr><th>Test</th><th>22-Sep-2023</th><th>Reference&#xA0;Range</th><th>Unit</th></tr><tr><td>Calcium [Mass/volume] in Blood</td><td>10.1</td><td>8.5 - 10.5</td><td></td><td>mg/dL</td></tr></table></div>"
        },
        "status": "final",
        "subject": {
          "reference": "urn:uuid:c9d99684-e1c4-4447-b4db-3182d1deea46",
          "display": "Victor Lagarde"
        },
        "effectiveDateTime": "2023-09-22T04:48:18Z",
        "specimen": {
          "reference": "urn:uuid:1d5da3e8-edf7-4249-9e1a-901739592d16"
        }
      }
    },
    {
      "fullUrl": "urn:uuid:f8fc09ba-c034-4fe3-a044-4f086626ece3",
      "resource": {
        "resourceType": "Observation",
        "id": "f8fc09ba-c034-4fe3-a044-4f086626ece3",
        "meta": {
          "profile": [
            "http://hl7.eu/fhir/laboratory/StructureDefinition/Observation-resultslab-eu-lab"
          ]
        },
        "performer": [
          {
            "display": "The Central European Lab"
          }
        ],
        "category": [
          {
            "coding": [
              {
                "system": "http://terminology.hl7.org/CodeSystem/observation-category",
                "code": "laboratory"
              }
            ]
          }
        ],
        "code": {
          "coding": [
            {
              "code": "2947-0",
              "system": "http://loinc.org",
              "display": "Sodium [Moles/volume] in Blood"
            }
          ],
          "text": "Sodium [Moles/volume] in Blood"
        },
        "valueQuantity": {
          "system": "http://unitsofmeasure.org",
          "value": 137.4,
          "unit": "mmol/L",
          "code": "mmol/L"
        },
        "referenceRange": [
          {
            "low": {
              "value": 135,
              "code": "mmol/L",
              "system": "http://unitsofmeasure.org"
            }
          },
          {
            "high": {
              "value": 145,
              "code": "mmol/L",
              "system": "http://unitsofmeasure.org"
            }
          }
        ],
        "text": {
          "status": "generated",
          "div": "<div xmlns=\"http://www.w3.org/1999/xhtml\"><table class=\"hl7__eu__lab__report\"><tr><th>Test</th><th>22-Sep-2023</th><th>Reference&#xA0;Range</th><th>Unit</th></tr><tr><td>Sodium [Moles/volume] in Blood</td><td>137.4</td><td>135 - 145</td><td></td><td>mmol/L</td></tr></table></div>"
        },
        "status": "final",
        "subject": {
          "reference": "urn:uuid:c9d99684-e1c4-4447-b4db-3182d1deea46",
          "display": "Victor Lagarde"
        },
        "effectiveDateTime": "2023-09-22T04:48:18Z",
        "specimen": {
          "reference": "urn:uuid:1d5da3e8-edf7-4249-9e1a-901739592d16"
        }
      }
    },
    {
      "fullUrl": "urn:uuid:f40f50e8-0df7-43fc-8b09-5c061b6efa73",
      "resource": {
        "resourceType": "Observation",
        "id": "f40f50e8-0df7-43fc-8b09-5c061b6efa73",
        "meta": {
          "profile": [
            "http://hl7.eu/fhir/laboratory/StructureDefinition/Observation-resultslab-eu-lab"
          ]
        },
        "performer": [
          {
            "display": "The Central European Lab"
          }
        ],
        "category": [
          {
            "coding": [
              {
                "system": "http://terminology.hl7.org/CodeSystem/observation-category",
                "code": "laboratory"
              }
            ]
          }
        ],
        "code": {
          "coding": [
            {
              "code": "6298-4",
              "system": "http://loinc.org",
              "display": "Potassium [Moles/volume] in Blood"
            }
          ],
          "text": "Potassium [Moles/volume] in Blood"
        },
        "valueQuantity": {
          "system": "http://unitsofmeasure.org",
          "value": 4.8,
          "unit": "mmol/L",
          "code": "mmol/L"
        },
        "referenceRange": [
          {
            "low": {
              "value": 3.5,
              "code": "mmol/L",
              "system": "http://unitsofmeasure.org"
            }
          },
          {
            "high": {
              "value": 5.1,
              "code": "mmol/L",
              "system": "http://unitsofmeasure.org"
            }
          }
        ],
        "text": {
          "status": "generated",
          "div": "<div xmlns=\"http://www.w3.org/1999/xhtml\"><table class=\"hl7__eu__lab__report\"><tr><th>Test</th><th>22-Sep-2023</th><th>Reference&#xA0;Range</th><th>Unit</th></tr><tr><td>Potassium [Moles/volume] in Blood</td><td>4.8</td><td>3.5 - 5.1</td><td></td><td>mmol/L</td></tr></table></div>"
        },
        "status": "final",
        "subject": {
          "reference": "urn:uuid:c9d99684-e1c4-4447-b4db-3182d1deea46",
          "display": "Victor Lagarde"
        },
        "effectiveDateTime": "2023-09-22T04:48:18Z",
        "specimen": {
          "reference": "urn:uuid:1d5da3e8-edf7-4249-9e1a-901739592d16"
        }
      }
    },
    {
      "fullUrl": "urn:uuid:3caca635-871a-4fc7-acdf-34719f15126e",
      "resource": {
        "resourceType": "Observation",
        "id": "3caca635-871a-4fc7-acdf-34719f15126e",
        "meta": {
          "profile": [
            "http://hl7.eu/fhir/laboratory/StructureDefinition/Observation-resultslab-eu-lab"
          ]
        },
        "performer": [
          {
            "display": "The Central European Lab"
          }
        ],
        "category": [
          {
            "coding": [
              {
                "system": "http://terminology.hl7.org/CodeSystem/observation-category",
                "code": "laboratory"
              }
            ]
          }
        ],
        "code": {
          "coding": [
            {
              "code": "2069-3",
              "system": "http://loinc.org",
              "display": "Chloride [Moles/volume] in Blood"
            }
          ],
          "text": "Chloride [Moles/volume] in Blood"
        },
        "valueQuantity": {
          "system": "http://unitsofmeasure.org",
          "value": 107.7,
          "unit": "mmol/L",
          "code": "mmol/L"
        },
        "referenceRange": [
          {
            "low": {
              "value": 98,
              "code": "mmol/L",
              "system": "http://unitsofmeasure.org"
            }
          },
          {
            "high": {
              "value": 108,
              "code": "mmol/L",
              "system": "http://unitsofmeasure.org"
            }
          }
        ],
        "text": {
          "status": "generated",
          "div": "<div xmlns=\"http://www.w3.org/1999/xhtml\"><table class=\"hl7__eu__lab__report\"><tr><th>Test</th><th>22-Sep-2023</th><th>Reference&#xA0;Range</th><th>Unit</th></tr><tr><td>Chloride [Moles/volume] in Blood</td><td>107.7</td><td>98 - 108</td><td></td><td>mmol/L</td></tr></table></div>"
        },
        "status": "final",
        "subject": {
          "reference": "urn:uuid:c9d99684-e1c4-4447-b4db-3182d1deea46",
          "display": "Victor Lagarde"
        },
        "effectiveDateTime": "2023-09-22T04:48:18Z",
        "specimen": {
          "reference": "urn:uuid:1d5da3e8-edf7-4249-9e1a-901739592d16"
        }
      }
    },
    {
      "fullUrl": "urn:uuid:281d82c7-0140-4a7d-9c34-6803c17b1950",
      "resource": {
        "resourceType": "Observation",
        "id": "281d82c7-0140-4a7d-9c34-6803c17b1950",
        "meta": {
          "profile": [
            "http://hl7.eu/fhir/laboratory/StructureDefinition/Observation-resultslab-eu-lab"
          ]
        },
        "performer": [
          {
            "display": "The Central European Lab"
          }
        ],
        "category": [
          {
            "coding": [
              {
                "system": "http://terminology.hl7.org/CodeSystem/observation-category",
                "code": "laboratory"
              }
            ]
          }
        ],
        "code": {
          "coding": [
            {
              "code": "20565-8",
              "system": "http://loinc.org",
              "display": "Carbon dioxide, total [Moles/volume] in Blood"
            }
          ],
          "text": "Carbon dioxide, total [Moles/volume] in Blood"
        },
        "valueQuantity": {
          "system": "http://unitsofmeasure.org",
          "value": 23.1,
          "unit": "mmol/L",
          "code": "mmol/L"
        },
        "referenceRange": [
          {
            "low": {
              "value": 22,
              "code": "mmol/L",
              "system": "http://unitsofmeasure.org"
            }
          },
          {
            "high": {
              "value": 29,
              "code": "mmol/L",
              "system": "http://unitsofmeasure.org"
            }
          }
        ],
        "text": {
          "status": "generated",
          "div": "<div xmlns=\"http://www.w3.org/1999/xhtml\"><table class=\"hl7__eu__lab__report\"><tr><th>Test</th><th>22-Sep-2023</th><th>Reference&#xA0;Range</th><th>Unit</th></tr><tr><td>Carbon dioxide, total [Moles/volume] in Blood</td><td>23.1</td><td>22 - 29</td><td></td><td>mmol/L</td></tr></table></div>"
        },
        "status": "final",
        "subject": {
          "reference": "urn:uuid:c9d99684-e1c4-4447-b4db-3182d1deea46",
          "display": "Victor Lagarde"
        },
        "effectiveDateTime": "2023-09-22T04:48:18Z",
        "specimen": {
          "reference": "urn:uuid:1d5da3e8-edf7-4249-9e1a-901739592d16"
        }
      }
    },
    {
      "fullUrl": "urn:uuid:2f4bf525-fbd8-48d8-a631-dfe0afb35d5c",
      "resource": {
        "resourceType": "Device",
        "id": "2f4bf525-fbd8-48d8-a631-dfe0afb35d5c",
        "deviceName": [
          {
            "name": "SYNDERAI Synthetic Generator",
            "type": "manufacturer-name"
          }
        ],
        "version": [
          {
            "value": "5.0"
          }
        ],
        "text": {
          "status": "generated",
          "div": "<div xmlns=\"http://www.w3.org/1999/xhtml\">SYNDERAI Synthetic Generator v5.0</div>"
        },
        "status": "active\"",
        "distinctIdentifier": "synderai-generator-50",
        "manufacturer": "SYNDERAI Project"
      }
    },
    {
      "fullUrl": "urn:uuid:e05d9ff6-90fb-4e66-9c26-ad2105e0cb50",
      "resource": {
        "resourceType": "Provenance",
        "id": "e05d9ff6-90fb-4e66-9c26-ad2105e0cb50",
        "target": [
          {
            "reference": "Patient/c9d99684-e1c4-4447-b4db-3182d1deea46"
          },
          {
            "reference": "Bundle/7bb76612-42b2-4e2f-b876-1347e2d6d8e8"
          },
          {
            "reference": "Composition/0343a799-c420-49f4-8853-53bafd2e6d69"
          },
          {
            "reference": "PractitionerRole/be850fc9-0920-4c5a-9cad-b919646fb6ca"
          },
          {
            "reference": "Practitioner/2877bf67-641b-40e9-91c8-c3b22fcb01b3"
          },
          {
            "reference": "PractitionerRole/2397a7fd-a148-46c3-accf-36e565962927"
          },
          {
            "reference": "Organization/2a54d389-d75d-473d-beaf-72439fd1bebf"
          }
        ],
        "activity": {
          "text": "Synthetic Example Data Generation"
        },
        "policy": [
          "https://synderai.net/synderai-synthetic-data-policy"
        ],
        "agent": [
          {
            "type": {
              "text": "author"
            },
            "who": {
              "reference": "Device/2f4bf525-fbd8-48d8-a631-dfe0afb35d5c"
            }
          }
        ],
        "reason": [
          {
            "text": "Interoperability Testing and Training (non-clinical use)"
          }
        ],
        "text": {
          "status": "generated",
          "div": "<div xmlns=\"http://www.w3.org/1999/xhtml\">Provenance for SYNDERAI Synthetic Example Data Resource</div>"
        },
        "recorded": "2023-09-22T06:48:18Z"
      }
    },
    {
      "fullUrl": "urn:uuid:be850fc9-0920-4c5a-9cad-b919646fb6ca",
      "resource": {
        "resourceType": "PractitionerRole",
        "id": "be850fc9-0920-4c5a-9cad-b919646fb6ca",
        "meta": {
          "profile": [
            "http://hl7.eu/fhir/base/StructureDefinition/practitionerRole-eu"
          ]
        },
        "text": {
          "status": "generated",
          "div": "<div xmlns=\"http://www.w3.org/1999/xhtml\">Laboratory Role Id: be850fc9-0920-4c5a-9cad-b919646fb6ca</div>"
        },
        "practitioner": {
          "reference": "urn:uuid:2877bf67-641b-40e9-91c8-c3b22fcb01b3"
        }
      }
    },
    {
      "fullUrl": "urn:uuid:2877bf67-641b-40e9-91c8-c3b22fcb01b3",
      "resource": {
        "resourceType": "Practitioner",
        "id": "2877bf67-641b-40e9-91c8-c3b22fcb01b3",
        "meta": {
          "profile": [
            "http://hl7.eu/fhir/base/StructureDefinition/practitioner-eu"
          ]
        },
        "identifier": [
          {
            "assigner": {
              "display": "HL7 Europe"
            },
            "system": "urn:oid:2.16.840.1.113883.2.51.999",
            "value": "33269e64-fcf6-4b8f-a813-c84ac22cfd25"
          }
        ],
        "name": [
          {
            "prefix": [
              "dr"
            ],
            "given": [
              "Ex"
            ],
            "family": "Ample"
          }
        ],
        "address": [
          {
            "line": [
              "Laboratoire Central Européenne",
              "Boulevard du Jardin Botanique 32"
            ],
            "postalCode": "1000",
            "city": "Brussels",
            "country": "Belgium"
          }
        ],
        "text": {
          "status": "generated",
          "div": "<div xmlns=\"http://www.w3.org/1999/xhtml\">Laboratory: Laboratoire Central Européenne, 1000 Brussels, Belgium</div>"
        }
      }
    }
  ],
  "type": "document",
  "timestamp": "2023-09-22T06:48:18Z"
}
