{
  "resourceType": "Bundle",
  "id": "3158fd87-d15a-4b75-adc1-573ee6a0afa2",
  "meta": {
    "profile": [
      "http://hl7.eu/fhir/laboratory/StructureDefinition/Bundle-eu-lab"
    ]
  },
  "identifier": {
    "assigner": {
      "display": "HL7 Europe"
    },
    "system": "urn:oid:2.16.840.1.113883.2.51.999",
    "value": "3ef1b1e0-a856-404b-87cd-31000bf696d7"
  },
  "entry": [
    {
      "fullUrl": "urn:uuid:b6723eb7-8c68-4a6b-9a9f-f4700ee377f7",
      "resource": {
        "resourceType": "Composition",
        "id": "b6723eb7-8c68-4a6b-9a9f-f4700ee377f7",
        "meta": {
          "profile": [
            "http://hl7.eu/fhir/laboratory/StructureDefinition/Composition-eu-lab"
          ]
        },
        "identifier": {
          "assigner": {
            "display": "HL7 Europe"
          },
          "system": "urn:oid:2.16.840.1.113883.2.51.999",
          "value": "7237eae2-bc5a-44b3-bb45-47b2da783025"
        },
        "author": [
          {
            "reference": "urn:uuid:786d4681-e41d-45d7-830b-80a877873038"
          }
        ],
        "category": [
          {
            "coding": [
              {
                "code": "26436-6",
                "system": "http://loinc.org",
                "display": "Laboratory studies (set)"
              }
            ]
          }
        ],
        "type": {
          "coding": [
            {
              "code": "11502-2",
              "system": "http://loinc.org",
              "display": "Laboratory report"
            }
          ],
          "text": "Laboratory Report"
        },
        "section": [
          {
            "code": {
              "coding": [
                {
                  "code": "26436-6",
                  "system": "http://loinc.org",
                  "display": "Laboratory studies (set)"
                }
              ],
              "text": "Laboratory studies"
            },
            "section": [
              {
                "code": {
                  "coding": [
                    {
                      "code": "$18719-5",
                      "system": "http://loinc.org",
                      "display": "Chemistry studies (set)"
                    }
                  ],
                  "text": "Chemistry"
                },
                "entry": [
                  {
                    "reference": "urn:uuid:a4011118-249a-4882-8a8b-9ff3fc6f66cd"
                  },
                  {
                    "reference": "urn:uuid:297a3bed-7a1a-4c6e-a394-6cad12ab3fd8"
                  },
                  {
                    "reference": "urn:uuid:43d4ae11-e6d4-42b3-b67c-e09fd9b6dd05"
                  },
                  {
                    "reference": "urn:uuid:75efcf0d-7b41-40e5-87bf-23a2e4601c8b"
                  },
                  {
                    "reference": "urn:uuid:9e5650d5-d347-4c79-9ead-36c2befad428"
                  },
                  {
                    "reference": "urn:uuid:166d4968-179b-489f-a43a-a27121648b33"
                  },
                  {
                    "reference": "urn:uuid:43ab8779-c66d-459b-b7b7-dc427004bb46"
                  },
                  {
                    "reference": "urn:uuid:c433ce53-1514-4a24-ad2d-fbab49f46a68"
                  },
                  {
                    "reference": "urn:uuid:259f240e-0154-43c9-9efb-91a6cc810ad3"
                  },
                  {
                    "reference": "urn:uuid:b9c5dc07-844a-4eee-8108-958c8f1299af"
                  },
                  {
                    "reference": "urn:uuid:ebd2aaea-73be-4252-818e-dd611ae195df"
                  },
                  {
                    "reference": "urn:uuid:4230cf9a-9693-44be-8d5c-f974bb10e760"
                  },
                  {
                    "reference": "urn:uuid:8efd05e5-1bc5-4acd-bf5a-12d387cf619b"
                  },
                  {
                    "reference": "urn:uuid:bf7a9fe7-5a01-4dd9-ab34-08ffa24a1841"
                  },
                  {
                    "reference": "urn:uuid:e3a3db05-c4fa-4eb5-ba6d-b8e99b16a9ec"
                  },
                  {
                    "reference": "urn:uuid:b61e85a4-118e-43cb-8f40-c6e89a77120b"
                  },
                  {
                    "reference": "urn:uuid:616e414c-14db-488f-a4dd-b203320b5554"
                  },
                  {
                    "reference": "urn:uuid:03d3386d-dd4f-4288-9e84-9f5d416f7012"
                  }
                ],
                "text": {
                  "status": "generated",
                  "div": "<div xmlns=\"http://www.w3.org/1999/xhtml\"><h3>Chemistry</h3><table class=\"hl7__eu__lab__report\"><thead><tr><th>Test</th><th>19-FEB-2020</th><th>Reference&#xA0;Range</th><th>Unit</th></tr></thead><tbody><tr><td>Glucose [Mass/volume] in Serum or Plasma</td><td>81.2</td><td>70 - 140</td><td>mg/dL</td></tr><tr><td>Urea nitrogen [Mass/volume] in Serum or Plasma</td><td>18.7</td><td>7 - 20</td><td>mg/dL</td></tr><tr><td>Creatinine [Mass/volume] in Serum or Plasma</td><td><strong>2.0 H</strong></td><td>0.9 - 1.3</td><td>mg/dL</td></tr><tr><td>Calcium [Mass/volume] in Serum or Plasma</td><td>8.7</td><td>8.5 - 10.5</td><td>mg/dL</td></tr><tr><td>Sodium [Moles/volume] in Serum or Plasma</td><td>142.2</td><td>135 - 145</td><td>mmol/L</td></tr><tr><td>Potassium [Moles/volume] in Serum or Plasma</td><td>4.8</td><td>3.5 - 5</td><td>mmol/L</td></tr><tr><td>Chloride [Moles/volume] in Serum or Plasma</td><td>101.1</td><td>98 - 108</td><td>mmol/L</td></tr><tr><td>Carbon dioxide, total [Moles/volume] in Serum or Plasma</td><td><strong>21.0 L</strong></td><td>22 - 29</td><td>mmol/L</td></tr><tr><td>Ketones [Presence] in Urine by Test strip</td><td>Urine ketone test = ++</td><td></td><td></td></tr><tr><td>Hemoglobin A1c/Hemoglobin.total in Blood</td><td><strong>3.2 L</strong></td><td>4.3 - 6.4</td><td>%</td></tr><tr><td>Glucose [Mass/volume] in Blood</td><td>81.2</td><td>70 - 140</td><td>mg/dL</td></tr><tr><td>Urea nitrogen [Mass/volume] in Blood</td><td>18.7</td><td>7 - 20</td><td>mg/dL</td></tr><tr><td>Creatinine [Mass/volume] in Blood</td><td><strong>7.2 H</strong></td><td>0.6 - 1.3</td><td>mg/dL</td></tr><tr><td>Calcium [Mass/volume] in Blood</td><td>8.7</td><td>8.5 - 10.5</td><td>mg/dL</td></tr><tr><td>Sodium [Moles/volume] in Blood</td><td>142.2</td><td>135 - 145</td><td>mmol/L</td></tr><tr><td>Potassium [Moles/volume] in Blood</td><td>4.8</td><td>3.5 - 5.3</td><td>mmol/L</td></tr><tr><td>Chloride [Moles/volume] in Blood</td><td>101.1</td><td>98 - 110</td><td>mmol/L</td></tr><tr><td>Carbon dioxide, total [Moles/volume] in Blood</td><td><strong>21.0 L</strong></td><td>22 - 29</td><td>mmol/L</td></tr></tbody></table></div>"
                },
                "title": "Chemistry"
              },
              {
                "code": {
                  "coding": [
                    {
                      "code": "$18729-4",
                      "system": "http://loinc.org",
                      "display": "Urinalysis studies (set)"
                    }
                  ],
                  "text": "Urinalysis"
                },
                "entry": [
                  {
                    "reference": "urn:uuid:8564458a-7130-423e-8c1c-863d020d6008"
                  },
                  {
                    "reference": "urn:uuid:2a78e332-af8d-4302-9ff1-df823426e5ac"
                  },
                  {
                    "reference": "urn:uuid:540d9380-7a9b-4956-a0b1-1a597c3b1fc7"
                  },
                  {
                    "reference": "urn:uuid:69a764ec-9dc0-47a0-9470-a0115dae298e"
                  },
                  {
                    "reference": "urn:uuid:0cf1e65c-05a5-4f1d-9258-94bf7a46edea"
                  },
                  {
                    "reference": "urn:uuid:21662230-156c-4808-9c02-5547428109e2"
                  },
                  {
                    "reference": "urn:uuid:493af834-96ad-4a20-843f-0b3465428436"
                  },
                  {
                    "reference": "urn:uuid:9b6becf7-48a1-4839-a57c-f94ffedcfaef"
                  },
                  {
                    "reference": "urn:uuid:14fc6094-8188-4370-ac6a-65126f2396a7"
                  },
                  {
                    "reference": "urn:uuid:6d880908-87ad-41ad-b2f0-e5a9f1df42aa"
                  },
                  {
                    "reference": "urn:uuid:63c0dd29-0741-4f44-b2ec-ebe4a83c7bf3"
                  },
                  {
                    "reference": "urn:uuid:4ea87bc4-5dc6-4dd5-ba37-9a3739ef6e95"
                  }
                ],
                "text": {
                  "status": "generated",
                  "div": "<div xmlns=\"http://www.w3.org/1999/xhtml\"><h3>Urinalysis</h3><table class=\"hl7__eu__lab__report\"><thead><tr><th>Test</th><th>19-FEB-2020</th><th>Reference&#xA0;Range</th><th>Unit</th></tr></thead><tbody><tr><td>Glucose [Mass/volume] in Urine by Test strip</td><td>0.7</td><td>0 - 0.8</td><td>mg/dL</td></tr><tr><td>Glucose [Presence] in Urine by Test strip</td><td>++</td><td></td><td></td></tr><tr><td>Bilirubin.total [Mass/volume] in Urine by Test strip</td><td>0.5</td><td>0.2 - 1</td><td>mg/dL</td></tr><tr><td>Bilirubin.total [Presence] in Urine by Test strip</td><td>Finding of bilirubin in urine</td><td></td><td></td></tr><tr><td>Ketones [Mass/volume] in Urine by Test strip</td><td>0.0</td><td>0 - 5</td><td>mg/dL</td></tr><tr><td>Specific gravity of Urine by Test strip</td><td><strong>1.0 L</strong></td><td>1.005 - 1.03</td><td>{nominal}</td></tr><tr><td>pH of Urine by Test strip</td><td>7.0</td><td>4.6 - 7</td><td>pH</td></tr><tr><td>Protein [Mass/volume] in Urine by Test strip</td><td><strong>291.4 H</strong></td><td>0 - 150</td><td>mg/dL</td></tr><tr><td>Protein [Presence] in Urine by Test strip</td><td>Urine protein test = ++</td><td></td><td></td></tr><tr><td>Nitrite [Presence] in Urine by Test strip</td><td>Urine nitrite negative</td><td></td><td></td></tr><tr><td>Hemoglobin [Presence] in Urine by Test strip</td><td>Urine blood test = negative</td><td></td><td></td></tr><tr><td>Leukocyte esterase [Presence] in Urine by Test strip</td><td>Urine leukocyte test negative</td><td></td><td></td></tr></tbody></table></div>"
                },
                "title": "Urinalysis"
              },
              {
                "code": {
                  "coding": [
                    {
                      "code": "$LP7846-1",
                      "system": "http://loinc.org",
                      "display": "Specimen information"
                    }
                  ],
                  "text": "Specimen information"
                },
                "entry": [
                  {
                    "reference": "urn:uuid:0eabbdbb-bd63-47c1-8f69-6f0d8bf516dc"
                  },
                  {
                    "reference": "urn:uuid:d84c8cee-600d-4d6d-9abe-55b62a832034"
                  },
                  {
                    "reference": "urn:uuid:2f61081e-cc5b-4a06-811a-b57a98db9d7d"
                  },
                  {
                    "reference": "urn:uuid:2a44bdc6-87b0-418f-a042-163b37269969"
                  }
                ],
                "text": {
                  "status": "generated",
                  "div": "<div xmlns=\"http://www.w3.org/1999/xhtml\"><h3>Specimen information</h3><table class=\"hl7__eu__lab__report\"><thead><tr><th>Test</th><th>19-FEB-2020</th><th>Specimen</th><th></th></tr></thead><tbody><tr><td>Appearance of Urine</td><td>Cloudy urine</td><td>Urine</td><td></td></tr><tr><td>Odor of Urine</td><td>Urine smell ammoniacal</td><td>Urine</td><td></td></tr><tr><td>Clarity of Urine</td><td>Translucent</td><td>Urine</td><td></td></tr><tr><td>Color of Urine</td><td>Brown color</td><td>Urine</td><td></td></tr></tbody></table></div>"
                },
                "title": "Specimen information"
              }
            ],
            "title": "Laboratory Report"
          },
          {
            "text": {
              "status": "generated",
              "div": "<div xmlns=\"http://www.w3.org/1999/xhtml\"><h3>Annotation</h3><table class=\"hl7__eu__lab__report\"><tr><th>Conclusion and Recommendations based on this report and previous findings known to us</th></tr><tr><td>The patient shows markedly elevated creatinine, proteinuria, low urine specific gravity, and abnormal urine appearance, suggesting significant renal impairment. Low total CO₂ may indicate metabolic acidosis. Urine findings (glucose, ketones, protein) and low HbA1c are unusual together; consider possible acute kidney injury with impaired filtration. Prompt nephrology evaluation is recommended. No evidence of urinary tract infection.</td></tr></table></div>"
            },
            "code": {
              "coding": [
                {
                  "system": "http://loinc.org",
                  "code": "48767-8",
                  "display": "Annotation comment"
                }
              ]
            },
            "title": "Annotation comment"
          }
        ],
        "status": "final",
        "subject": {
          "reference": "urn:uuid:c89d800f-0977-4ef2-9912-cbe6d2de5fa8",
          "display": "Θεμιστοκλής Λιναρδάκη"
        },
        "date": "2020-02-19T07:16:00Z",
        "title": "Laboratory Report",
        "confidentiality": "N"
      }
    },
    {
      "fullUrl": "urn:uuid:e63fbf4a-ffe4-4021-a6d6-b9e8fc27cd9f",
      "resource": {
        "resourceType": "DiagnosticReport",
        "id": "e63fbf4a-ffe4-4021-a6d6-b9e8fc27cd9f",
        "meta": {
          "profile": [
            "http://hl7.eu/fhir/laboratory/StructureDefinition/DiagnosticReport-eu-lab"
          ]
        },
        "identifier": [
          {
            "assigner": {
              "display": "HL7 Europe"
            },
            "system": "urn:oid:2.16.840.1.113883.2.51.999",
            "value": "1f00147d-7276-4707-a553-63876bb1b612"
          }
        ],
        "extension": [
          {
            "url": "http://hl7.org/fhir/5.0/StructureDefinition/extension-DiagnosticReport.composition",
            "valueReference": {
              "reference": "urn:uuid:7237eae2-bc5a-44b3-bb45-47b2da783025"
            }
          }
        ],
        "category": [
          {
            "coding": [
              {
                "code": "26436-6",
                "system": "http://loinc.org",
                "display": "Laboratory studies (set)"
              }
            ]
          }
        ],
        "specimen": [
          {
            "reference": "urn:uuid:e007e741-0aaf-4cd6-9dbd-68d07adb03fe"
          },
          {
            "reference": "urn:uuid:0f8eb652-558d-45b3-99ef-692a94d5f8e0"
          },
          {
            "reference": "urn:uuid:800c5993-838d-4150-a599-b021b9fa438f"
          }
        ],
        "result": [
          {
            "reference": "urn:uuid:a4011118-249a-4882-8a8b-9ff3fc6f66cd"
          },
          {
            "reference": "urn:uuid:297a3bed-7a1a-4c6e-a394-6cad12ab3fd8"
          },
          {
            "reference": "urn:uuid:43d4ae11-e6d4-42b3-b67c-e09fd9b6dd05"
          },
          {
            "reference": "urn:uuid:75efcf0d-7b41-40e5-87bf-23a2e4601c8b"
          },
          {
            "reference": "urn:uuid:9e5650d5-d347-4c79-9ead-36c2befad428"
          },
          {
            "reference": "urn:uuid:166d4968-179b-489f-a43a-a27121648b33"
          },
          {
            "reference": "urn:uuid:43ab8779-c66d-459b-b7b7-dc427004bb46"
          },
          {
            "reference": "urn:uuid:c433ce53-1514-4a24-ad2d-fbab49f46a68"
          },
          {
            "reference": "urn:uuid:0eabbdbb-bd63-47c1-8f69-6f0d8bf516dc"
          },
          {
            "reference": "urn:uuid:d84c8cee-600d-4d6d-9abe-55b62a832034"
          },
          {
            "reference": "urn:uuid:2f61081e-cc5b-4a06-811a-b57a98db9d7d"
          },
          {
            "reference": "urn:uuid:2a44bdc6-87b0-418f-a042-163b37269969"
          },
          {
            "reference": "urn:uuid:8564458a-7130-423e-8c1c-863d020d6008"
          },
          {
            "reference": "urn:uuid:2a78e332-af8d-4302-9ff1-df823426e5ac"
          },
          {
            "reference": "urn:uuid:540d9380-7a9b-4956-a0b1-1a597c3b1fc7"
          },
          {
            "reference": "urn:uuid:69a764ec-9dc0-47a0-9470-a0115dae298e"
          },
          {
            "reference": "urn:uuid:0cf1e65c-05a5-4f1d-9258-94bf7a46edea"
          },
          {
            "reference": "urn:uuid:259f240e-0154-43c9-9efb-91a6cc810ad3"
          },
          {
            "reference": "urn:uuid:21662230-156c-4808-9c02-5547428109e2"
          },
          {
            "reference": "urn:uuid:493af834-96ad-4a20-843f-0b3465428436"
          },
          {
            "reference": "urn:uuid:9b6becf7-48a1-4839-a57c-f94ffedcfaef"
          },
          {
            "reference": "urn:uuid:14fc6094-8188-4370-ac6a-65126f2396a7"
          },
          {
            "reference": "urn:uuid:6d880908-87ad-41ad-b2f0-e5a9f1df42aa"
          },
          {
            "reference": "urn:uuid:63c0dd29-0741-4f44-b2ec-ebe4a83c7bf3"
          },
          {
            "reference": "urn:uuid:4ea87bc4-5dc6-4dd5-ba37-9a3739ef6e95"
          },
          {
            "reference": "urn:uuid:b9c5dc07-844a-4eee-8108-958c8f1299af"
          },
          {
            "reference": "urn:uuid:ebd2aaea-73be-4252-818e-dd611ae195df"
          },
          {
            "reference": "urn:uuid:4230cf9a-9693-44be-8d5c-f974bb10e760"
          },
          {
            "reference": "urn:uuid:8efd05e5-1bc5-4acd-bf5a-12d387cf619b"
          },
          {
            "reference": "urn:uuid:bf7a9fe7-5a01-4dd9-ab34-08ffa24a1841"
          },
          {
            "reference": "urn:uuid:e3a3db05-c4fa-4eb5-ba6d-b8e99b16a9ec"
          },
          {
            "reference": "urn:uuid:b61e85a4-118e-43cb-8f40-c6e89a77120b"
          },
          {
            "reference": "urn:uuid:616e414c-14db-488f-a4dd-b203320b5554"
          },
          {
            "reference": "urn:uuid:03d3386d-dd4f-4288-9e84-9f5d416f7012"
          }
        ],
        "status": "registered",
        "code": {
          "coding": [
            {
              "code": "11502-2",
              "system": "http://loinc.org",
              "display": "Laboratory report"
            }
          ]
        },
        "subject": {
          "reference": "urn:uuid:c89d800f-0977-4ef2-9912-cbe6d2de5fa8",
          "display": "Θεμιστοκλής Λιναρδάκη"
        }
      }
    },
    {
      "fullUrl": "urn:uuid:c89d800f-0977-4ef2-9912-cbe6d2de5fa8",
      "resource": {
        "resourceType": "Patient",
        "id": "c89d800f-0977-4ef2-9912-cbe6d2de5fa8",
        "meta": {
          "security": [
            {
              "system": "http://terminology.hl7.org/CodeSystem/v3-ActReason",
              "code": "HTEST"
            },
            {
              "system": "http://terminology.hl7.org/CodeSystem/v3-ActReason",
              "code": "TRAIN"
            }
          ],
          "tag": [
            {
              "system": "https://synderai.net/fhir/CodeSystem/tags",
              "code": "synthetic",
              "display": "SYNDERAI Synthetic data"
            }
          ],
          "profile": [
            "http://hl7.eu/fhir/base/StructureDefinition/patient-eu-core"
          ]
        },
        "identifier": [
          {
            "type": {
              "coding": [
                {
                  "code": "PT",
                  "system": "http://terminology.hl7.org/CodeSystem/v2-0203"
                }
              ]
            },
            "system": "http://ec.europa.eu/identifier/eci",
            "value": "5962-476889-7"
          },
          {
            "type": {
              "coding": [
                {
                  "code": "MR",
                  "system": "http://terminology.hl7.org/CodeSystem/v2-0203"
                }
              ]
            },
            "system": "http://local.setting.eu/identifier",
            "value": "925e2603-2ef9-6bdf-1330-2ebf526636c4"
          }
        ],
        "name": [
          {
            "family": "Λιναρδάκη"
          },
          {
            "given": [
              "Θεμιστοκλής"
            ]
          },
          {
            "text": "Θεμιστοκλής Λιναρδάκη"
          }
        ],
        "address": [
          {
            "line": [
              "Αμαρύνθου 54-58"
            ],
            "use": "home",
            "type": "physical",
            "postalCode": "262 21",
            "city": "Πάτρα",
            "country": "Greece"
          }
        ],
        "telecom": [
          {
            "system": "phone",
            "value": "+302226364480"
          }
        ],
        "extension": [
          {
            "url": "http://hl7.org/fhir/StructureDefinition/patient-nationality",
            "valueCodeableConcept": {
              "coding": [
                {
                  "code": "GR",
                  "system": "http://hl7.org/fhir/ValueSet/country"
                }
              ]
            }
          }
        ],
        "text": {
          "status": "generated",
          "div": "<div xmlns=\"http://www.w3.org/1999/xhtml\"><table class=\"hl7__ips\"><tr><td>Θεμιστοκλής Λιναρδάκη</td><td>male</td><td>21-Jan-1974</td></tr></table></div>"
        },
        "gender": "male",
        "birthDate": "1974-01-21"
      }
    },
    {
      "fullUrl": "urn:uuid:3739c89d-1380-4b2f-855b-ddb1c34780ad",
      "resource": {
        "resourceType": "ServiceRequest",
        "id": "3739c89d-1380-4b2f-855b-ddb1c34780ad",
        "meta": {
          "profile": [
            "http://hl7.eu/fhir/laboratory/StructureDefinition/ServiceRequest-eu-lab"
          ]
        },
        "identifier": [
          {
            "system": "http://example.org",
            "value": "c700046c-8176-4e73-ac95-2497885991cd"
          }
        ],
        "specimen": [
          {
            "reference": "urn:uuid:e007e741-0aaf-4cd6-9dbd-68d07adb03fe"
          },
          {
            "reference": "urn:uuid:0f8eb652-558d-45b3-99ef-692a94d5f8e0"
          },
          {
            "reference": "urn:uuid:800c5993-838d-4150-a599-b021b9fa438f"
          }
        ],
        "reasonCode": [
          {
            "coding": [
              {
                "code": "237602007",
                "system": "http://snomed.info/sct",
                "display": "Metabolic syndrome X"
              }
            ]
          },
          {
            "coding": [
              {
                "code": "433144002",
                "system": "http://snomed.info/sct",
                "display": "Chronic kidney disease stage 3"
              }
            ]
          },
          {
            "coding": [
              {
                "code": "157141000119108",
                "system": "http://snomed.info/sct",
                "display": "Proteinuria due to type 2 diabetes mellitus"
              }
            ]
          },
          {
            "coding": [
              {
                "code": "431856006",
                "system": "http://snomed.info/sct",
                "display": "Chronic kidney disease stage 2"
              }
            ]
          },
          {
            "coding": [
              {
                "code": "90781000119102",
                "system": "http://snomed.info/sct",
                "display": "Microalbuminuria due to type 2 diabetes mellitus"
              }
            ]
          },
          {
            "coding": [
              {
                "code": "127013003",
                "system": "http://snomed.info/sct",
                "display": "Disorder of kidney due to diabetes mellitus"
              }
            ]
          },
          {
            "coding": [
              {
                "code": "431855005",
                "system": "http://snomed.info/sct",
                "display": "Chronic kidney disease stage 1"
              }
            ]
          },
          {
            "coding": [
              {
                "code": "59621000",
                "system": "http://snomed.info/sct",
                "display": "Essential hypertension"
              }
            ]
          },
          {
            "coding": [
              {
                "code": "15777000",
                "system": "http://snomed.info/sct",
                "display": "Prediabetes"
              }
            ]
          },
          {
            "coding": [
              {
                "code": "271737000",
                "system": "http://snomed.info/sct",
                "display": "Anemia"
              }
            ]
          }
        ],
        "status": "active",
        "intent": "order",
        "code": {
          "coding": [
            {
              "code": "108252007",
              "system": "http://snomed.info/sct",
              "display": "Laboratory procedure"
            }
          ]
        },
        "subject": {
          "reference": "urn:uuid:c89d800f-0977-4ef2-9912-cbe6d2de5fa8",
          "display": "Θεμιστοκλής Λιναρδάκη"
        },
        "requester": {
          "reference": "urn:uuid:11d64c22-def3-490f-b09e-35f0158f0985"
        }
      }
    },
    {
      "fullUrl": "urn:uuid:11d64c22-def3-490f-b09e-35f0158f0985",
      "resource": {
        "resourceType": "PractitionerRole",
        "id": "11d64c22-def3-490f-b09e-35f0158f0985",
        "meta": {
          "profile": [
            "http://hl7.eu/fhir/base/StructureDefinition/practitionerRole-eu"
          ]
        },
        "text": {
          "status": "generated",
          "div": "<div xmlns=\"http://www.w3.org/1999/xhtml\">Provider Role Id: 11d64c22-def3-490f-b09e-35f0158f0985</div>"
        },
        "organization": {
          "reference": "urn:uuid:5e53186d-3603-41c8-9469-004ea2973c4c"
        }
      }
    },
    {
      "fullUrl": "urn:uuid:5e53186d-3603-41c8-9469-004ea2973c4c",
      "resource": {
        "resourceType": "Organization",
        "id": "5e53186d-3603-41c8-9469-004ea2973c4c",
        "meta": {
          "profile": [
            "http://hl7.eu/fhir/base/StructureDefinition/organization-eu"
          ]
        },
        "identifier": [
          {
            "assigner": {
              "display": "HL7 Europe"
            },
            "system": "urn:oid:2.16.840.1.113883.2.51.999",
            "value": "ddcc1a90-4afe-45b4-b0e0-8ed78084c2b0"
          }
        ],
        "address": [
          {
            "line": [
              "211 Odós Filellinon"
            ],
            "city": "Patras",
            "postalCode": "262 21",
            "country": "Greece"
          }
        ],
        "text": {
          "status": "generated",
          "div": "<div xmlns=\"http://www.w3.org/1999/xhtml\">Provider Organization: Dr. Dimitris Economou</div>"
        },
        "name": "Dr. Dimitris Economou"
      }
    },
    {
      "fullUrl": "urn:uuid:e007e741-0aaf-4cd6-9dbd-68d07adb03fe",
      "resource": {
        "resourceType": "Specimen",
        "id": "e007e741-0aaf-4cd6-9dbd-68d07adb03fe",
        "meta": {
          "profile": [
            "http://hl7.eu/fhir/laboratory/StructureDefinition/Specimen-eu-lab"
          ]
        },
        "collection": {
          "collectedDateTime": "2020-02-19"
        },
        "text": {
          "status": "generated",
          "div": "<div xmlns=\"http://www.w3.org/1999/xhtml\"><table class=\"hl7__eu__lab__report\"><tr><th>Specimen</th><th>Collection Date</th></tr><tr><td>Acellular blood (serum or plasma) specimen</td><td><span class=\"nb\">19-Feb-2020</span></td></tr></table></div>"
        },
        "type": {
          "coding": [
            {
              "code": "122592007",
              "system": "http://snomed.info/sct",
              "display": "Acellular blood (serum or plasma) specimen"
            }
          ]
        }
      }
    },
    {
      "fullUrl": "urn:uuid:0f8eb652-558d-45b3-99ef-692a94d5f8e0",
      "resource": {
        "resourceType": "Specimen",
        "id": "0f8eb652-558d-45b3-99ef-692a94d5f8e0",
        "meta": {
          "profile": [
            "http://hl7.eu/fhir/laboratory/StructureDefinition/Specimen-eu-lab"
          ]
        },
        "collection": {
          "collectedDateTime": "2020-02-19"
        },
        "text": {
          "status": "generated",
          "div": "<div xmlns=\"http://www.w3.org/1999/xhtml\"><table class=\"hl7__eu__lab__report\"><tr><th>Specimen</th><th>Collection Date</th></tr><tr><td>Urine specimen</td><td><span class=\"nb\">19-Feb-2020</span></td></tr></table></div>"
        },
        "type": {
          "coding": [
            {
              "code": "122575003",
              "system": "http://snomed.info/sct",
              "display": "Urine specimen"
            }
          ]
        }
      }
    },
    {
      "fullUrl": "urn:uuid:800c5993-838d-4150-a599-b021b9fa438f",
      "resource": {
        "resourceType": "Specimen",
        "id": "800c5993-838d-4150-a599-b021b9fa438f",
        "meta": {
          "profile": [
            "http://hl7.eu/fhir/laboratory/StructureDefinition/Specimen-eu-lab"
          ]
        },
        "collection": {
          "collectedDateTime": "2020-02-19"
        },
        "text": {
          "status": "generated",
          "div": "<div xmlns=\"http://www.w3.org/1999/xhtml\"><table class=\"hl7__eu__lab__report\"><tr><th>Specimen</th><th>Collection Date</th></tr><tr><td>Whole blood specimen (specimen)</td><td><span class=\"nb\">19-Feb-2020</span></td></tr></table></div>"
        },
        "type": {
          "coding": [
            {
              "code": "258580003",
              "system": "http://snomed.info/sct",
              "display": "Whole blood specimen (specimen)"
            }
          ]
        }
      }
    },
    {
      "fullUrl": "urn:uuid:a4011118-249a-4882-8a8b-9ff3fc6f66cd",
      "resource": {
        "resourceType": "Observation",
        "id": "a4011118-249a-4882-8a8b-9ff3fc6f66cd",
        "meta": {
          "profile": [
            "http://hl7.eu/fhir/laboratory/StructureDefinition/Observation-resultslab-eu-lab"
          ]
        },
        "performer": [
          {
            "display": "The Central European Lab"
          }
        ],
        "category": [
          {
            "coding": [
              {
                "system": "http://terminology.hl7.org/CodeSystem/observation-category",
                "code": "laboratory"
              }
            ]
          }
        ],
        "code": {
          "coding": [
            {
              "code": "2345-7",
              "system": "http://loinc.org",
              "display": "Glucose [Mass/volume] in Serum or Plasma"
            }
          ],
          "text": "Glucose [Mass/volume] in Serum or Plasma"
        },
        "valueQuantity": {
          "system": "http://unitsofmeasure.org",
          "value": 81.2,
          "unit": "mg/dL",
          "code": "mg/dL"
        },
        "referenceRange": [
          {
            "low": {
              "value": 70,
              "code": "mg/dL",
              "system": "http://unitsofmeasure.org"
            }
          },
          {
            "high": {
              "value": 140,
              "code": "mg/dL",
              "system": "http://unitsofmeasure.org"
            }
          }
        ],
        "text": {
          "status": "generated",
          "div": "<div xmlns=\"http://www.w3.org/1999/xhtml\"><table class=\"hl7__eu__lab__report\"><tr><th>Test</th><th>19-Feb-2020</th><th>Reference&#xA0;Range</th><th>Unit</th></tr><tr><td>Glucose [Mass/volume] in Serum or Plasma</td><td>81.2</td><td>70 - 140</td><td></td><td>mg/dL</td></tr></table></div>"
        },
        "status": "final",
        "subject": {
          "reference": "urn:uuid:c89d800f-0977-4ef2-9912-cbe6d2de5fa8",
          "display": "Θεμιστοκλής Λιναρδάκη"
        },
        "effectiveDateTime": "2020-02-19T06:16:00Z",
        "specimen": {
          "reference": "urn:uuid:e007e741-0aaf-4cd6-9dbd-68d07adb03fe"
        }
      }
    },
    {
      "fullUrl": "urn:uuid:297a3bed-7a1a-4c6e-a394-6cad12ab3fd8",
      "resource": {
        "resourceType": "Observation",
        "id": "297a3bed-7a1a-4c6e-a394-6cad12ab3fd8",
        "meta": {
          "profile": [
            "http://hl7.eu/fhir/laboratory/StructureDefinition/Observation-resultslab-eu-lab"
          ]
        },
        "performer": [
          {
            "display": "The Central European Lab"
          }
        ],
        "category": [
          {
            "coding": [
              {
                "system": "http://terminology.hl7.org/CodeSystem/observation-category",
                "code": "laboratory"
              }
            ]
          }
        ],
        "code": {
          "coding": [
            {
              "code": "3094-0",
              "system": "http://loinc.org",
              "display": "Urea nitrogen [Mass/volume] in Serum or Plasma"
            }
          ],
          "text": "Urea nitrogen [Mass/volume] in Serum or Plasma"
        },
        "valueQuantity": {
          "system": "http://unitsofmeasure.org",
          "value": 18.7,
          "unit": "mg/dL",
          "code": "mg/dL"
        },
        "referenceRange": [
          {
            "low": {
              "value": 7,
              "code": "mg/dL",
              "system": "http://unitsofmeasure.org"
            }
          },
          {
            "high": {
              "value": 20,
              "code": "mg/dL",
              "system": "http://unitsofmeasure.org"
            }
          }
        ],
        "text": {
          "status": "generated",
          "div": "<div xmlns=\"http://www.w3.org/1999/xhtml\"><table class=\"hl7__eu__lab__report\"><tr><th>Test</th><th>19-Feb-2020</th><th>Reference&#xA0;Range</th><th>Unit</th></tr><tr><td>Urea nitrogen [Mass/volume] in Serum or Plasma</td><td>18.7</td><td>7 - 20</td><td></td><td>mg/dL</td></tr></table></div>"
        },
        "status": "final",
        "subject": {
          "reference": "urn:uuid:c89d800f-0977-4ef2-9912-cbe6d2de5fa8",
          "display": "Θεμιστοκλής Λιναρδάκη"
        },
        "effectiveDateTime": "2020-02-19T06:16:00Z",
        "specimen": {
          "reference": "urn:uuid:e007e741-0aaf-4cd6-9dbd-68d07adb03fe"
        }
      }
    },
    {
      "fullUrl": "urn:uuid:43d4ae11-e6d4-42b3-b67c-e09fd9b6dd05",
      "resource": {
        "resourceType": "Observation",
        "id": "43d4ae11-e6d4-42b3-b67c-e09fd9b6dd05",
        "meta": {
          "profile": [
            "http://hl7.eu/fhir/laboratory/StructureDefinition/Observation-resultslab-eu-lab"
          ]
        },
        "performer": [
          {
            "display": "The Central European Lab"
          }
        ],
        "category": [
          {
            "coding": [
              {
                "system": "http://terminology.hl7.org/CodeSystem/observation-category",
                "code": "laboratory"
              }
            ]
          }
        ],
        "code": {
          "coding": [
            {
              "code": "2160-0",
              "system": "http://loinc.org",
              "display": "Creatinine [Mass/volume] in Serum or Plasma"
            }
          ],
          "text": "Creatinine [Mass/volume] in Serum or Plasma"
        },
        "valueQuantity": {
          "system": "http://unitsofmeasure.org",
          "value": 2,
          "unit": "mg/dL",
          "code": "mg/dL"
        },
        "referenceRange": [
          {
            "low": {
              "value": 0.9,
              "code": "mg/dL",
              "system": "http://unitsofmeasure.org"
            }
          },
          {
            "high": {
              "value": 1.3,
              "code": "mg/dL",
              "system": "http://unitsofmeasure.org"
            }
          }
        ],
        "interpretation": [
          {
            "coding": [
              {
                "code": "H",
                "system": "http://terminology.hl7.org/CodeSystem/v3-ObservationInterpretation",
                "display": "High"
              }
            ]
          }
        ],
        "text": {
          "status": "generated",
          "div": "<div xmlns=\"http://www.w3.org/1999/xhtml\"><table class=\"hl7__eu__lab__report\"><tr><th>Test</th><th>19-Feb-2020</th><th>Reference&#xA0;Range</th><th>Unit</th></tr><tr><td>Creatinine [Mass/volume] in Serum or Plasma</td><td>2.0</td><td>0.9 - 1.3</td><td>H</td><td>mg/dL</td></tr></table></div>"
        },
        "status": "final",
        "subject": {
          "reference": "urn:uuid:c89d800f-0977-4ef2-9912-cbe6d2de5fa8",
          "display": "Θεμιστοκλής Λιναρδάκη"
        },
        "effectiveDateTime": "2020-02-19T06:16:00Z",
        "specimen": {
          "reference": "urn:uuid:e007e741-0aaf-4cd6-9dbd-68d07adb03fe"
        }
      }
    },
    {
      "fullUrl": "urn:uuid:75efcf0d-7b41-40e5-87bf-23a2e4601c8b",
      "resource": {
        "resourceType": "Observation",
        "id": "75efcf0d-7b41-40e5-87bf-23a2e4601c8b",
        "meta": {
          "profile": [
            "http://hl7.eu/fhir/laboratory/StructureDefinition/Observation-resultslab-eu-lab"
          ]
        },
        "performer": [
          {
            "display": "The Central European Lab"
          }
        ],
        "category": [
          {
            "coding": [
              {
                "system": "http://terminology.hl7.org/CodeSystem/observation-category",
                "code": "laboratory"
              }
            ]
          }
        ],
        "code": {
          "coding": [
            {
              "code": "17861-6",
              "system": "http://loinc.org",
              "display": "Calcium [Mass/volume] in Serum or Plasma"
            }
          ],
          "text": "Calcium [Mass/volume] in Serum or Plasma"
        },
        "valueQuantity": {
          "system": "http://unitsofmeasure.org",
          "value": 8.7,
          "unit": "mg/dL",
          "code": "mg/dL"
        },
        "referenceRange": [
          {
            "low": {
              "value": 8.5,
              "code": "mg/dL",
              "system": "http://unitsofmeasure.org"
            }
          },
          {
            "high": {
              "value": 10.5,
              "code": "mg/dL",
              "system": "http://unitsofmeasure.org"
            }
          }
        ],
        "text": {
          "status": "generated",
          "div": "<div xmlns=\"http://www.w3.org/1999/xhtml\"><table class=\"hl7__eu__lab__report\"><tr><th>Test</th><th>19-Feb-2020</th><th>Reference&#xA0;Range</th><th>Unit</th></tr><tr><td>Calcium [Mass/volume] in Serum or Plasma</td><td>8.7</td><td>8.5 - 10.5</td><td></td><td>mg/dL</td></tr></table></div>"
        },
        "status": "final",
        "subject": {
          "reference": "urn:uuid:c89d800f-0977-4ef2-9912-cbe6d2de5fa8",
          "display": "Θεμιστοκλής Λιναρδάκη"
        },
        "effectiveDateTime": "2020-02-19T06:16:00Z",
        "specimen": {
          "reference": "urn:uuid:e007e741-0aaf-4cd6-9dbd-68d07adb03fe"
        }
      }
    },
    {
      "fullUrl": "urn:uuid:9e5650d5-d347-4c79-9ead-36c2befad428",
      "resource": {
        "resourceType": "Observation",
        "id": "9e5650d5-d347-4c79-9ead-36c2befad428",
        "meta": {
          "profile": [
            "http://hl7.eu/fhir/laboratory/StructureDefinition/Observation-resultslab-eu-lab"
          ]
        },
        "performer": [
          {
            "display": "The Central European Lab"
          }
        ],
        "category": [
          {
            "coding": [
              {
                "system": "http://terminology.hl7.org/CodeSystem/observation-category",
                "code": "laboratory"
              }
            ]
          }
        ],
        "code": {
          "coding": [
            {
              "code": "2951-2",
              "system": "http://loinc.org",
              "display": "Sodium [Moles/volume] in Serum or Plasma"
            }
          ],
          "text": "Sodium [Moles/volume] in Serum or Plasma"
        },
        "valueQuantity": {
          "system": "http://unitsofmeasure.org",
          "value": 142.2,
          "unit": "mmol/L",
          "code": "mmol/L"
        },
        "referenceRange": [
          {
            "low": {
              "value": 135,
              "code": "mmol/L",
              "system": "http://unitsofmeasure.org"
            }
          },
          {
            "high": {
              "value": 145,
              "code": "mmol/L",
              "system": "http://unitsofmeasure.org"
            }
          }
        ],
        "text": {
          "status": "generated",
          "div": "<div xmlns=\"http://www.w3.org/1999/xhtml\"><table class=\"hl7__eu__lab__report\"><tr><th>Test</th><th>19-Feb-2020</th><th>Reference&#xA0;Range</th><th>Unit</th></tr><tr><td>Sodium [Moles/volume] in Serum or Plasma</td><td>142.2</td><td>135 - 145</td><td></td><td>mmol/L</td></tr></table></div>"
        },
        "status": "final",
        "subject": {
          "reference": "urn:uuid:c89d800f-0977-4ef2-9912-cbe6d2de5fa8",
          "display": "Θεμιστοκλής Λιναρδάκη"
        },
        "effectiveDateTime": "2020-02-19T06:16:00Z",
        "specimen": {
          "reference": "urn:uuid:e007e741-0aaf-4cd6-9dbd-68d07adb03fe"
        }
      }
    },
    {
      "fullUrl": "urn:uuid:166d4968-179b-489f-a43a-a27121648b33",
      "resource": {
        "resourceType": "Observation",
        "id": "166d4968-179b-489f-a43a-a27121648b33",
        "meta": {
          "profile": [
            "http://hl7.eu/fhir/laboratory/StructureDefinition/Observation-resultslab-eu-lab"
          ]
        },
        "performer": [
          {
            "display": "The Central European Lab"
          }
        ],
        "category": [
          {
            "coding": [
              {
                "system": "http://terminology.hl7.org/CodeSystem/observation-category",
                "code": "laboratory"
              }
            ]
          }
        ],
        "code": {
          "coding": [
            {
              "code": "2823-3",
              "system": "http://loinc.org",
              "display": "Potassium [Moles/volume] in Serum or Plasma"
            }
          ],
          "text": "Potassium [Moles/volume] in Serum or Plasma"
        },
        "valueQuantity": {
          "system": "http://unitsofmeasure.org",
          "value": 4.8,
          "unit": "mmol/L",
          "code": "mmol/L"
        },
        "referenceRange": [
          {
            "low": {
              "value": 3.5,
              "code": "mmol/L",
              "system": "http://unitsofmeasure.org"
            }
          },
          {
            "high": {
              "value": 5,
              "code": "mmol/L",
              "system": "http://unitsofmeasure.org"
            }
          }
        ],
        "text": {
          "status": "generated",
          "div": "<div xmlns=\"http://www.w3.org/1999/xhtml\"><table class=\"hl7__eu__lab__report\"><tr><th>Test</th><th>19-Feb-2020</th><th>Reference&#xA0;Range</th><th>Unit</th></tr><tr><td>Potassium [Moles/volume] in Serum or Plasma</td><td>4.8</td><td>3.5 - 5</td><td></td><td>mmol/L</td></tr></table></div>"
        },
        "status": "final",
        "subject": {
          "reference": "urn:uuid:c89d800f-0977-4ef2-9912-cbe6d2de5fa8",
          "display": "Θεμιστοκλής Λιναρδάκη"
        },
        "effectiveDateTime": "2020-02-19T06:16:00Z",
        "specimen": {
          "reference": "urn:uuid:e007e741-0aaf-4cd6-9dbd-68d07adb03fe"
        }
      }
    },
    {
      "fullUrl": "urn:uuid:43ab8779-c66d-459b-b7b7-dc427004bb46",
      "resource": {
        "resourceType": "Observation",
        "id": "43ab8779-c66d-459b-b7b7-dc427004bb46",
        "meta": {
          "profile": [
            "http://hl7.eu/fhir/laboratory/StructureDefinition/Observation-resultslab-eu-lab"
          ]
        },
        "performer": [
          {
            "display": "The Central European Lab"
          }
        ],
        "category": [
          {
            "coding": [
              {
                "system": "http://terminology.hl7.org/CodeSystem/observation-category",
                "code": "laboratory"
              }
            ]
          }
        ],
        "code": {
          "coding": [
            {
              "code": "2075-0",
              "system": "http://loinc.org",
              "display": "Chloride [Moles/volume] in Serum or Plasma"
            }
          ],
          "text": "Chloride [Moles/volume] in Serum or Plasma"
        },
        "valueQuantity": {
          "system": "http://unitsofmeasure.org",
          "value": 101.1,
          "unit": "mmol/L",
          "code": "mmol/L"
        },
        "referenceRange": [
          {
            "low": {
              "value": 98,
              "code": "mmol/L",
              "system": "http://unitsofmeasure.org"
            }
          },
          {
            "high": {
              "value": 108,
              "code": "mmol/L",
              "system": "http://unitsofmeasure.org"
            }
          }
        ],
        "text": {
          "status": "generated",
          "div": "<div xmlns=\"http://www.w3.org/1999/xhtml\"><table class=\"hl7__eu__lab__report\"><tr><th>Test</th><th>19-Feb-2020</th><th>Reference&#xA0;Range</th><th>Unit</th></tr><tr><td>Chloride [Moles/volume] in Serum or Plasma</td><td>101.1</td><td>98 - 108</td><td></td><td>mmol/L</td></tr></table></div>"
        },
        "status": "final",
        "subject": {
          "reference": "urn:uuid:c89d800f-0977-4ef2-9912-cbe6d2de5fa8",
          "display": "Θεμιστοκλής Λιναρδάκη"
        },
        "effectiveDateTime": "2020-02-19T06:16:00Z",
        "specimen": {
          "reference": "urn:uuid:e007e741-0aaf-4cd6-9dbd-68d07adb03fe"
        }
      }
    },
    {
      "fullUrl": "urn:uuid:c433ce53-1514-4a24-ad2d-fbab49f46a68",
      "resource": {
        "resourceType": "Observation",
        "id": "c433ce53-1514-4a24-ad2d-fbab49f46a68",
        "meta": {
          "profile": [
            "http://hl7.eu/fhir/laboratory/StructureDefinition/Observation-resultslab-eu-lab"
          ]
        },
        "performer": [
          {
            "display": "The Central European Lab"
          }
        ],
        "category": [
          {
            "coding": [
              {
                "system": "http://terminology.hl7.org/CodeSystem/observation-category",
                "code": "laboratory"
              }
            ]
          }
        ],
        "code": {
          "coding": [
            {
              "code": "2028-9",
              "system": "http://loinc.org",
              "display": "Carbon dioxide, total [Moles/volume] in Serum or Plasma"
            }
          ],
          "text": "Carbon dioxide, total [Moles/volume] in Serum or Plasma"
        },
        "valueQuantity": {
          "system": "http://unitsofmeasure.org",
          "value": 21,
          "unit": "mmol/L",
          "code": "mmol/L"
        },
        "referenceRange": [
          {
            "low": {
              "value": 22,
              "code": "mmol/L",
              "system": "http://unitsofmeasure.org"
            }
          },
          {
            "high": {
              "value": 29,
              "code": "mmol/L",
              "system": "http://unitsofmeasure.org"
            }
          }
        ],
        "interpretation": [
          {
            "coding": [
              {
                "code": "L",
                "system": "http://terminology.hl7.org/CodeSystem/v3-ObservationInterpretation",
                "display": "Low"
              }
            ]
          }
        ],
        "text": {
          "status": "generated",
          "div": "<div xmlns=\"http://www.w3.org/1999/xhtml\"><table class=\"hl7__eu__lab__report\"><tr><th>Test</th><th>19-Feb-2020</th><th>Reference&#xA0;Range</th><th>Unit</th></tr><tr><td>Carbon dioxide, total [Moles/volume] in Serum or Plasma</td><td>21.0</td><td>22 - 29</td><td>L</td><td>mmol/L</td></tr></table></div>"
        },
        "status": "final",
        "subject": {
          "reference": "urn:uuid:c89d800f-0977-4ef2-9912-cbe6d2de5fa8",
          "display": "Θεμιστοκλής Λιναρδάκη"
        },
        "effectiveDateTime": "2020-02-19T06:16:00Z",
        "specimen": {
          "reference": "urn:uuid:e007e741-0aaf-4cd6-9dbd-68d07adb03fe"
        }
      }
    },
    {
      "fullUrl": "urn:uuid:0eabbdbb-bd63-47c1-8f69-6f0d8bf516dc",
      "resource": {
        "resourceType": "Observation",
        "id": "0eabbdbb-bd63-47c1-8f69-6f0d8bf516dc",
        "meta": {
          "profile": [
            "http://hl7.eu/fhir/laboratory/StructureDefinition/Observation-resultslab-eu-lab"
          ]
        },
        "performer": [
          {
            "display": "The Central European Lab"
          }
        ],
        "category": [
          {
            "coding": [
              {
                "system": "http://terminology.hl7.org/CodeSystem/observation-category",
                "code": "laboratory"
              }
            ]
          }
        ],
        "code": {
          "coding": [
            {
              "code": "5767-9",
              "system": "http://loinc.org",
              "display": "Appearance of Urine"
            }
          ],
          "text": "Appearance of Urine"
        },
        "text": {
          "status": "generated",
          "div": "<div xmlns=\"http://www.w3.org/1999/xhtml\"><table class=\"hl7__eu__lab__report\"><tr><th>Test</th><th>19-Feb-2020</th><th>Reference&#xA0;Range</th><th>Unit</th></tr><tr><td>Appearance of Urine</td></tr></table></div>"
        },
        "status": "final",
        "subject": {
          "reference": "urn:uuid:c89d800f-0977-4ef2-9912-cbe6d2de5fa8",
          "display": "Θεμιστοκλής Λιναρδάκη"
        },
        "effectiveDateTime": "2020-02-19T06:16:00Z",
        "specimen": {
          "reference": "urn:uuid:0f8eb652-558d-45b3-99ef-692a94d5f8e0"
        }
      }
    },
    {
      "fullUrl": "urn:uuid:d84c8cee-600d-4d6d-9abe-55b62a832034",
      "resource": {
        "resourceType": "Observation",
        "id": "d84c8cee-600d-4d6d-9abe-55b62a832034",
        "meta": {
          "profile": [
            "http://hl7.eu/fhir/laboratory/StructureDefinition/Observation-resultslab-eu-lab"
          ]
        },
        "performer": [
          {
            "display": "The Central European Lab"
          }
        ],
        "category": [
          {
            "coding": [
              {
                "system": "http://terminology.hl7.org/CodeSystem/observation-category",
                "code": "laboratory"
              }
            ]
          }
        ],
        "code": {
          "coding": [
            {
              "code": "34533-0",
              "system": "http://loinc.org",
              "display": "Odor of Urine"
            }
          ],
          "text": "Odor of Urine"
        },
        "text": {
          "status": "generated",
          "div": "<div xmlns=\"http://www.w3.org/1999/xhtml\"><table class=\"hl7__eu__lab__report\"><tr><th>Test</th><th>19-Feb-2020</th><th>Reference&#xA0;Range</th><th>Unit</th></tr><tr><td>Odor of Urine</td></tr></table></div>"
        },
        "status": "final",
        "subject": {
          "reference": "urn:uuid:c89d800f-0977-4ef2-9912-cbe6d2de5fa8",
          "display": "Θεμιστοκλής Λιναρδάκη"
        },
        "effectiveDateTime": "2020-02-19T06:16:00Z",
        "specimen": {
          "reference": "urn:uuid:0f8eb652-558d-45b3-99ef-692a94d5f8e0"
        }
      }
    },
    {
      "fullUrl": "urn:uuid:2f61081e-cc5b-4a06-811a-b57a98db9d7d",
      "resource": {
        "resourceType": "Observation",
        "id": "2f61081e-cc5b-4a06-811a-b57a98db9d7d",
        "meta": {
          "profile": [
            "http://hl7.eu/fhir/laboratory/StructureDefinition/Observation-resultslab-eu-lab"
          ]
        },
        "performer": [
          {
            "display": "The Central European Lab"
          }
        ],
        "category": [
          {
            "coding": [
              {
                "system": "http://terminology.hl7.org/CodeSystem/observation-category",
                "code": "laboratory"
              }
            ]
          }
        ],
        "code": {
          "coding": [
            {
              "code": "32167-9",
              "system": "http://loinc.org",
              "display": "Clarity of Urine"
            }
          ],
          "text": "Clarity of Urine"
        },
        "text": {
          "status": "generated",
          "div": "<div xmlns=\"http://www.w3.org/1999/xhtml\"><table class=\"hl7__eu__lab__report\"><tr><th>Test</th><th>19-Feb-2020</th><th>Reference&#xA0;Range</th><th>Unit</th></tr><tr><td>Clarity of Urine</td></tr></table></div>"
        },
        "status": "final",
        "subject": {
          "reference": "urn:uuid:c89d800f-0977-4ef2-9912-cbe6d2de5fa8",
          "display": "Θεμιστοκλής Λιναρδάκη"
        },
        "effectiveDateTime": "2020-02-19T06:16:00Z",
        "specimen": {
          "reference": "urn:uuid:0f8eb652-558d-45b3-99ef-692a94d5f8e0"
        }
      }
    },
    {
      "fullUrl": "urn:uuid:2a44bdc6-87b0-418f-a042-163b37269969",
      "resource": {
        "resourceType": "Observation",
        "id": "2a44bdc6-87b0-418f-a042-163b37269969",
        "meta": {
          "profile": [
            "http://hl7.eu/fhir/laboratory/StructureDefinition/Observation-resultslab-eu-lab"
          ]
        },
        "performer": [
          {
            "display": "The Central European Lab"
          }
        ],
        "category": [
          {
            "coding": [
              {
                "system": "http://terminology.hl7.org/CodeSystem/observation-category",
                "code": "laboratory"
              }
            ]
          }
        ],
        "code": {
          "coding": [
            {
              "code": "5778-6",
              "system": "http://loinc.org",
              "display": "Color of Urine"
            }
          ],
          "text": "Color of Urine"
        },
        "text": {
          "status": "generated",
          "div": "<div xmlns=\"http://www.w3.org/1999/xhtml\"><table class=\"hl7__eu__lab__report\"><tr><th>Test</th><th>19-Feb-2020</th><th>Reference&#xA0;Range</th><th>Unit</th></tr><tr><td>Color of Urine</td></tr></table></div>"
        },
        "status": "final",
        "subject": {
          "reference": "urn:uuid:c89d800f-0977-4ef2-9912-cbe6d2de5fa8",
          "display": "Θεμιστοκλής Λιναρδάκη"
        },
        "effectiveDateTime": "2020-02-19T06:16:00Z",
        "specimen": {
          "reference": "urn:uuid:0f8eb652-558d-45b3-99ef-692a94d5f8e0"
        }
      }
    },
    {
      "fullUrl": "urn:uuid:8564458a-7130-423e-8c1c-863d020d6008",
      "resource": {
        "resourceType": "Observation",
        "id": "8564458a-7130-423e-8c1c-863d020d6008",
        "meta": {
          "profile": [
            "http://hl7.eu/fhir/laboratory/StructureDefinition/Observation-resultslab-eu-lab"
          ]
        },
        "performer": [
          {
            "display": "The Central European Lab"
          }
        ],
        "category": [
          {
            "coding": [
              {
                "system": "http://terminology.hl7.org/CodeSystem/observation-category",
                "code": "laboratory"
              }
            ]
          }
        ],
        "code": {
          "coding": [
            {
              "code": "5792-7",
              "system": "http://loinc.org",
              "display": "Glucose [Mass/volume] in Urine by Test strip"
            }
          ],
          "text": "Glucose [Mass/volume] in Urine by Test strip"
        },
        "valueQuantity": {
          "system": "http://unitsofmeasure.org",
          "value": 0.7,
          "unit": "mg/dL",
          "code": "mg/dL"
        },
        "referenceRange": [
          {
            "low": {
              "value": 0,
              "code": "mg/dL",
              "system": "http://unitsofmeasure.org"
            }
          },
          {
            "high": {
              "value": 0.8,
              "code": "mg/dL",
              "system": "http://unitsofmeasure.org"
            }
          }
        ],
        "text": {
          "status": "generated",
          "div": "<div xmlns=\"http://www.w3.org/1999/xhtml\"><table class=\"hl7__eu__lab__report\"><tr><th>Test</th><th>19-Feb-2020</th><th>Reference&#xA0;Range</th><th>Unit</th></tr><tr><td>Glucose [Mass/volume] in Urine by Test strip</td><td>0.7</td><td>0 - 0.8</td><td></td><td>mg/dL</td></tr></table></div>"
        },
        "status": "final",
        "subject": {
          "reference": "urn:uuid:c89d800f-0977-4ef2-9912-cbe6d2de5fa8",
          "display": "Θεμιστοκλής Λιναρδάκη"
        },
        "effectiveDateTime": "2020-02-19T06:16:00Z",
        "specimen": {
          "reference": "urn:uuid:0f8eb652-558d-45b3-99ef-692a94d5f8e0"
        }
      }
    },
    {
      "fullUrl": "urn:uuid:2a78e332-af8d-4302-9ff1-df823426e5ac",
      "resource": {
        "resourceType": "Observation",
        "id": "2a78e332-af8d-4302-9ff1-df823426e5ac",
        "meta": {
          "profile": [
            "http://hl7.eu/fhir/laboratory/StructureDefinition/Observation-resultslab-eu-lab"
          ]
        },
        "performer": [
          {
            "display": "The Central European Lab"
          }
        ],
        "category": [
          {
            "coding": [
              {
                "system": "http://terminology.hl7.org/CodeSystem/observation-category",
                "code": "laboratory"
              }
            ]
          }
        ],
        "code": {
          "coding": [
            {
              "code": "25428-4",
              "system": "http://loinc.org",
              "display": "Glucose [Presence] in Urine by Test strip"
            }
          ],
          "text": "Glucose [Presence] in Urine by Test strip"
        },
        "text": {
          "status": "generated",
          "div": "<div xmlns=\"http://www.w3.org/1999/xhtml\"><table class=\"hl7__eu__lab__report\"><tr><th>Test</th><th>19-Feb-2020</th><th>Reference&#xA0;Range</th><th>Unit</th></tr><tr><td>Glucose [Presence] in Urine by Test strip</td></tr></table></div>"
        },
        "status": "final",
        "subject": {
          "reference": "urn:uuid:c89d800f-0977-4ef2-9912-cbe6d2de5fa8",
          "display": "Θεμιστοκλής Λιναρδάκη"
        },
        "effectiveDateTime": "2020-02-19T06:16:00Z",
        "specimen": {
          "reference": "urn:uuid:0f8eb652-558d-45b3-99ef-692a94d5f8e0"
        }
      }
    },
    {
      "fullUrl": "urn:uuid:540d9380-7a9b-4956-a0b1-1a597c3b1fc7",
      "resource": {
        "resourceType": "Observation",
        "id": "540d9380-7a9b-4956-a0b1-1a597c3b1fc7",
        "meta": {
          "profile": [
            "http://hl7.eu/fhir/laboratory/StructureDefinition/Observation-resultslab-eu-lab"
          ]
        },
        "performer": [
          {
            "display": "The Central European Lab"
          }
        ],
        "category": [
          {
            "coding": [
              {
                "system": "http://terminology.hl7.org/CodeSystem/observation-category",
                "code": "laboratory"
              }
            ]
          }
        ],
        "code": {
          "coding": [
            {
              "code": "20505-4",
              "system": "http://loinc.org",
              "display": "Bilirubin.total [Mass/volume] in Urine by Test strip"
            }
          ],
          "text": "Bilirubin.total [Mass/volume] in Urine by Test strip"
        },
        "valueQuantity": {
          "system": "http://unitsofmeasure.org",
          "value": 0.5,
          "unit": "mg/dL",
          "code": "mg/dL"
        },
        "referenceRange": [
          {
            "low": {
              "value": 0.2,
              "code": "mg/dL",
              "system": "http://unitsofmeasure.org"
            }
          },
          {
            "high": {
              "value": 1,
              "code": "mg/dL",
              "system": "http://unitsofmeasure.org"
            }
          }
        ],
        "text": {
          "status": "generated",
          "div": "<div xmlns=\"http://www.w3.org/1999/xhtml\"><table class=\"hl7__eu__lab__report\"><tr><th>Test</th><th>19-Feb-2020</th><th>Reference&#xA0;Range</th><th>Unit</th></tr><tr><td>Bilirubin.total [Mass/volume] in Urine by Test strip</td><td>0.5</td><td>0.2 - 1</td><td></td><td>mg/dL</td></tr></table></div>"
        },
        "status": "final",
        "subject": {
          "reference": "urn:uuid:c89d800f-0977-4ef2-9912-cbe6d2de5fa8",
          "display": "Θεμιστοκλής Λιναρδάκη"
        },
        "effectiveDateTime": "2020-02-19T06:16:00Z",
        "specimen": {
          "reference": "urn:uuid:0f8eb652-558d-45b3-99ef-692a94d5f8e0"
        }
      }
    },
    {
      "fullUrl": "urn:uuid:69a764ec-9dc0-47a0-9470-a0115dae298e",
      "resource": {
        "resourceType": "Observation",
        "id": "69a764ec-9dc0-47a0-9470-a0115dae298e",
        "meta": {
          "profile": [
            "http://hl7.eu/fhir/laboratory/StructureDefinition/Observation-resultslab-eu-lab"
          ]
        },
        "performer": [
          {
            "display": "The Central European Lab"
          }
        ],
        "category": [
          {
            "coding": [
              {
                "system": "http://terminology.hl7.org/CodeSystem/observation-category",
                "code": "laboratory"
              }
            ]
          }
        ],
        "code": {
          "coding": [
            {
              "code": "5770-3",
              "system": "http://loinc.org",
              "display": "Bilirubin.total [Presence] in Urine by Test strip"
            }
          ],
          "text": "Bilirubin.total [Presence] in Urine by Test strip"
        },
        "text": {
          "status": "generated",
          "div": "<div xmlns=\"http://www.w3.org/1999/xhtml\"><table class=\"hl7__eu__lab__report\"><tr><th>Test</th><th>19-Feb-2020</th><th>Reference&#xA0;Range</th><th>Unit</th></tr><tr><td>Bilirubin.total [Presence] in Urine by Test strip</td></tr></table></div>"
        },
        "status": "final",
        "subject": {
          "reference": "urn:uuid:c89d800f-0977-4ef2-9912-cbe6d2de5fa8",
          "display": "Θεμιστοκλής Λιναρδάκη"
        },
        "effectiveDateTime": "2020-02-19T06:16:00Z",
        "specimen": {
          "reference": "urn:uuid:0f8eb652-558d-45b3-99ef-692a94d5f8e0"
        }
      }
    },
    {
      "fullUrl": "urn:uuid:0cf1e65c-05a5-4f1d-9258-94bf7a46edea",
      "resource": {
        "resourceType": "Observation",
        "id": "0cf1e65c-05a5-4f1d-9258-94bf7a46edea",
        "meta": {
          "profile": [
            "http://hl7.eu/fhir/laboratory/StructureDefinition/Observation-resultslab-eu-lab"
          ]
        },
        "performer": [
          {
            "display": "The Central European Lab"
          }
        ],
        "category": [
          {
            "coding": [
              {
                "system": "http://terminology.hl7.org/CodeSystem/observation-category",
                "code": "laboratory"
              }
            ]
          }
        ],
        "code": {
          "coding": [
            {
              "code": "5797-6",
              "system": "http://loinc.org",
              "display": "Ketones [Mass/volume] in Urine by Test strip"
            }
          ],
          "text": "Ketones [Mass/volume] in Urine by Test strip"
        },
        "valueQuantity": {
          "system": "http://unitsofmeasure.org",
          "value": 0,
          "unit": "mg/dL",
          "code": "mg/dL"
        },
        "referenceRange": [
          {
            "low": {
              "value": 0,
              "code": "mg/dL",
              "system": "http://unitsofmeasure.org"
            }
          },
          {
            "high": {
              "value": 5,
              "code": "mg/dL",
              "system": "http://unitsofmeasure.org"
            }
          }
        ],
        "text": {
          "status": "generated",
          "div": "<div xmlns=\"http://www.w3.org/1999/xhtml\"><table class=\"hl7__eu__lab__report\"><tr><th>Test</th><th>19-Feb-2020</th><th>Reference&#xA0;Range</th><th>Unit</th></tr><tr><td>Ketones [Mass/volume] in Urine by Test strip</td><td>0.0</td><td>0 - 5</td><td></td><td>mg/dL</td></tr></table></div>"
        },
        "status": "final",
        "subject": {
          "reference": "urn:uuid:c89d800f-0977-4ef2-9912-cbe6d2de5fa8",
          "display": "Θεμιστοκλής Λιναρδάκη"
        },
        "effectiveDateTime": "2020-02-19T06:16:00Z",
        "specimen": {
          "reference": "urn:uuid:0f8eb652-558d-45b3-99ef-692a94d5f8e0"
        }
      }
    },
    {
      "fullUrl": "urn:uuid:259f240e-0154-43c9-9efb-91a6cc810ad3",
      "resource": {
        "resourceType": "Observation",
        "id": "259f240e-0154-43c9-9efb-91a6cc810ad3",
        "meta": {
          "profile": [
            "http://hl7.eu/fhir/laboratory/StructureDefinition/Observation-resultslab-eu-lab"
          ]
        },
        "performer": [
          {
            "display": "The Central European Lab"
          }
        ],
        "category": [
          {
            "coding": [
              {
                "system": "http://terminology.hl7.org/CodeSystem/observation-category",
                "code": "laboratory"
              }
            ]
          }
        ],
        "code": {
          "coding": [
            {
              "code": "2514-8",
              "system": "http://loinc.org",
              "display": "Ketones [Presence] in Urine by Test strip"
            }
          ],
          "text": "Ketones [Presence] in Urine by Test strip"
        },
        "text": {
          "status": "generated",
          "div": "<div xmlns=\"http://www.w3.org/1999/xhtml\"><table class=\"hl7__eu__lab__report\"><tr><th>Test</th><th>19-Feb-2020</th><th>Reference&#xA0;Range</th><th>Unit</th></tr><tr><td>Ketones [Presence] in Urine by Test strip</td></tr></table></div>"
        },
        "status": "final",
        "subject": {
          "reference": "urn:uuid:c89d800f-0977-4ef2-9912-cbe6d2de5fa8",
          "display": "Θεμιστοκλής Λιναρδάκη"
        },
        "effectiveDateTime": "2020-02-19T06:16:00Z",
        "specimen": {
          "reference": "urn:uuid:0f8eb652-558d-45b3-99ef-692a94d5f8e0"
        }
      }
    },
    {
      "fullUrl": "urn:uuid:21662230-156c-4808-9c02-5547428109e2",
      "resource": {
        "resourceType": "Observation",
        "id": "21662230-156c-4808-9c02-5547428109e2",
        "meta": {
          "profile": [
            "http://hl7.eu/fhir/laboratory/StructureDefinition/Observation-resultslab-eu-lab"
          ]
        },
        "performer": [
          {
            "display": "The Central European Lab"
          }
        ],
        "category": [
          {
            "coding": [
              {
                "system": "http://terminology.hl7.org/CodeSystem/observation-category",
                "code": "laboratory"
              }
            ]
          }
        ],
        "code": {
          "coding": [
            {
              "code": "5811-5",
              "system": "http://loinc.org",
              "display": "Specific gravity of Urine by Test strip"
            }
          ],
          "text": "Specific gravity of Urine by Test strip"
        },
        "valueQuantity": {
          "system": "http://unitsofmeasure.org",
          "value": 1,
          "unit": "{nominal}",
          "code": "{nominal}"
        },
        "referenceRange": [
          {
            "low": {
              "value": 1.005,
              "code": "g/mL",
              "system": "http://unitsofmeasure.org"
            }
          },
          {
            "high": {
              "value": 1.03,
              "code": "g/mL",
              "system": "http://unitsofmeasure.org"
            }
          }
        ],
        "interpretation": [
          {
            "coding": [
              {
                "code": "L",
                "system": "http://terminology.hl7.org/CodeSystem/v3-ObservationInterpretation",
                "display": "Low"
              }
            ]
          }
        ],
        "text": {
          "status": "generated",
          "div": "<div xmlns=\"http://www.w3.org/1999/xhtml\"><table class=\"hl7__eu__lab__report\"><tr><th>Test</th><th>19-Feb-2020</th><th>Reference&#xA0;Range</th><th>Unit</th></tr><tr><td>Specific gravity of Urine by Test strip</td><td>1.0</td><td>1.005 - 1.03</td><td>L</td><td>{nominal}</td></tr></table></div>"
        },
        "status": "final",
        "subject": {
          "reference": "urn:uuid:c89d800f-0977-4ef2-9912-cbe6d2de5fa8",
          "display": "Θεμιστοκλής Λιναρδάκη"
        },
        "effectiveDateTime": "2020-02-19T06:16:00Z",
        "specimen": {
          "reference": "urn:uuid:0f8eb652-558d-45b3-99ef-692a94d5f8e0"
        }
      }
    },
    {
      "fullUrl": "urn:uuid:493af834-96ad-4a20-843f-0b3465428436",
      "resource": {
        "resourceType": "Observation",
        "id": "493af834-96ad-4a20-843f-0b3465428436",
        "meta": {
          "profile": [
            "http://hl7.eu/fhir/laboratory/StructureDefinition/Observation-resultslab-eu-lab"
          ]
        },
        "performer": [
          {
            "display": "The Central European Lab"
          }
        ],
        "category": [
          {
            "coding": [
              {
                "system": "http://terminology.hl7.org/CodeSystem/observation-category",
                "code": "laboratory"
              }
            ]
          }
        ],
        "code": {
          "coding": [
            {
              "code": "5803-2",
              "system": "http://loinc.org",
              "display": "pH of Urine by Test strip"
            }
          ],
          "text": "pH of Urine by Test strip"
        },
        "valueQuantity": {
          "system": "http://unitsofmeasure.org",
          "value": 7,
          "unit": "pH",
          "code": "pH"
        },
        "referenceRange": [
          {
            "low": {
              "value": 4.6,
              "code": "pH",
              "system": "http://unitsofmeasure.org"
            }
          },
          {
            "high": {
              "value": 7,
              "code": "pH",
              "system": "http://unitsofmeasure.org"
            }
          }
        ],
        "text": {
          "status": "generated",
          "div": "<div xmlns=\"http://www.w3.org/1999/xhtml\"><table class=\"hl7__eu__lab__report\"><tr><th>Test</th><th>19-Feb-2020</th><th>Reference&#xA0;Range</th><th>Unit</th></tr><tr><td>pH of Urine by Test strip</td><td>7.0</td><td>4.6 - 7</td><td></td><td>pH</td></tr></table></div>"
        },
        "status": "final",
        "subject": {
          "reference": "urn:uuid:c89d800f-0977-4ef2-9912-cbe6d2de5fa8",
          "display": "Θεμιστοκλής Λιναρδάκη"
        },
        "effectiveDateTime": "2020-02-19T06:16:00Z",
        "specimen": {
          "reference": "urn:uuid:0f8eb652-558d-45b3-99ef-692a94d5f8e0"
        }
      }
    },
    {
      "fullUrl": "urn:uuid:9b6becf7-48a1-4839-a57c-f94ffedcfaef",
      "resource": {
        "resourceType": "Observation",
        "id": "9b6becf7-48a1-4839-a57c-f94ffedcfaef",
        "meta": {
          "profile": [
            "http://hl7.eu/fhir/laboratory/StructureDefinition/Observation-resultslab-eu-lab"
          ]
        },
        "performer": [
          {
            "display": "The Central European Lab"
          }
        ],
        "category": [
          {
            "coding": [
              {
                "system": "http://terminology.hl7.org/CodeSystem/observation-category",
                "code": "laboratory"
              }
            ]
          }
        ],
        "code": {
          "coding": [
            {
              "code": "5804-0",
              "system": "http://loinc.org",
              "display": "Protein [Mass/volume] in Urine by Test strip"
            }
          ],
          "text": "Protein [Mass/volume] in Urine by Test strip"
        },
        "valueQuantity": {
          "system": "http://unitsofmeasure.org",
          "value": 291.4,
          "unit": "mg/dL",
          "code": "mg/dL"
        },
        "referenceRange": [
          {
            "low": {
              "value": 0,
              "code": "mg/dL",
              "system": "http://unitsofmeasure.org"
            }
          },
          {
            "high": {
              "value": 150,
              "code": "mg/dL",
              "system": "http://unitsofmeasure.org"
            }
          }
        ],
        "interpretation": [
          {
            "coding": [
              {
                "code": "H",
                "system": "http://terminology.hl7.org/CodeSystem/v3-ObservationInterpretation",
                "display": "High"
              }
            ]
          }
        ],
        "text": {
          "status": "generated",
          "div": "<div xmlns=\"http://www.w3.org/1999/xhtml\"><table class=\"hl7__eu__lab__report\"><tr><th>Test</th><th>19-Feb-2020</th><th>Reference&#xA0;Range</th><th>Unit</th></tr><tr><td>Protein [Mass/volume] in Urine by Test strip</td><td>291.4</td><td>0 - 150</td><td>H</td><td>mg/dL</td></tr></table></div>"
        },
        "status": "final",
        "subject": {
          "reference": "urn:uuid:c89d800f-0977-4ef2-9912-cbe6d2de5fa8",
          "display": "Θεμιστοκλής Λιναρδάκη"
        },
        "effectiveDateTime": "2020-02-19T06:16:00Z",
        "specimen": {
          "reference": "urn:uuid:0f8eb652-558d-45b3-99ef-692a94d5f8e0"
        }
      }
    },
    {
      "fullUrl": "urn:uuid:14fc6094-8188-4370-ac6a-65126f2396a7",
      "resource": {
        "resourceType": "Observation",
        "id": "14fc6094-8188-4370-ac6a-65126f2396a7",
        "meta": {
          "profile": [
            "http://hl7.eu/fhir/laboratory/StructureDefinition/Observation-resultslab-eu-lab"
          ]
        },
        "performer": [
          {
            "display": "The Central European Lab"
          }
        ],
        "category": [
          {
            "coding": [
              {
                "system": "http://terminology.hl7.org/CodeSystem/observation-category",
                "code": "laboratory"
              }
            ]
          }
        ],
        "code": {
          "coding": [
            {
              "code": "20454-5",
              "system": "http://loinc.org",
              "display": "Protein [Presence] in Urine by Test strip"
            }
          ],
          "text": "Protein [Presence] in Urine by Test strip"
        },
        "text": {
          "status": "generated",
          "div": "<div xmlns=\"http://www.w3.org/1999/xhtml\"><table class=\"hl7__eu__lab__report\"><tr><th>Test</th><th>19-Feb-2020</th><th>Reference&#xA0;Range</th><th>Unit</th></tr><tr><td>Protein [Presence] in Urine by Test strip</td></tr></table></div>"
        },
        "status": "final",
        "subject": {
          "reference": "urn:uuid:c89d800f-0977-4ef2-9912-cbe6d2de5fa8",
          "display": "Θεμιστοκλής Λιναρδάκη"
        },
        "effectiveDateTime": "2020-02-19T06:16:00Z",
        "specimen": {
          "reference": "urn:uuid:0f8eb652-558d-45b3-99ef-692a94d5f8e0"
        }
      }
    },
    {
      "fullUrl": "urn:uuid:6d880908-87ad-41ad-b2f0-e5a9f1df42aa",
      "resource": {
        "resourceType": "Observation",
        "id": "6d880908-87ad-41ad-b2f0-e5a9f1df42aa",
        "meta": {
          "profile": [
            "http://hl7.eu/fhir/laboratory/StructureDefinition/Observation-resultslab-eu-lab"
          ]
        },
        "performer": [
          {
            "display": "The Central European Lab"
          }
        ],
        "category": [
          {
            "coding": [
              {
                "system": "http://terminology.hl7.org/CodeSystem/observation-category",
                "code": "laboratory"
              }
            ]
          }
        ],
        "code": {
          "coding": [
            {
              "code": "5802-4",
              "system": "http://loinc.org",
              "display": "Nitrite [Presence] in Urine by Test strip"
            }
          ],
          "text": "Nitrite [Presence] in Urine by Test strip"
        },
        "text": {
          "status": "generated",
          "div": "<div xmlns=\"http://www.w3.org/1999/xhtml\"><table class=\"hl7__eu__lab__report\"><tr><th>Test</th><th>19-Feb-2020</th><th>Reference&#xA0;Range</th><th>Unit</th></tr><tr><td>Nitrite [Presence] in Urine by Test strip</td></tr></table></div>"
        },
        "status": "final",
        "subject": {
          "reference": "urn:uuid:c89d800f-0977-4ef2-9912-cbe6d2de5fa8",
          "display": "Θεμιστοκλής Λιναρδάκη"
        },
        "effectiveDateTime": "2020-02-19T06:16:00Z",
        "specimen": {
          "reference": "urn:uuid:0f8eb652-558d-45b3-99ef-692a94d5f8e0"
        }
      }
    },
    {
      "fullUrl": "urn:uuid:63c0dd29-0741-4f44-b2ec-ebe4a83c7bf3",
      "resource": {
        "resourceType": "Observation",
        "id": "63c0dd29-0741-4f44-b2ec-ebe4a83c7bf3",
        "meta": {
          "profile": [
            "http://hl7.eu/fhir/laboratory/StructureDefinition/Observation-resultslab-eu-lab"
          ]
        },
        "performer": [
          {
            "display": "The Central European Lab"
          }
        ],
        "category": [
          {
            "coding": [
              {
                "system": "http://terminology.hl7.org/CodeSystem/observation-category",
                "code": "laboratory"
              }
            ]
          }
        ],
        "code": {
          "coding": [
            {
              "code": "5794-3",
              "system": "http://loinc.org",
              "display": "Hemoglobin [Presence] in Urine by Test strip"
            }
          ],
          "text": "Hemoglobin [Presence] in Urine by Test strip"
        },
        "text": {
          "status": "generated",
          "div": "<div xmlns=\"http://www.w3.org/1999/xhtml\"><table class=\"hl7__eu__lab__report\"><tr><th>Test</th><th>19-Feb-2020</th><th>Reference&#xA0;Range</th><th>Unit</th></tr><tr><td>Hemoglobin [Presence] in Urine by Test strip</td></tr></table></div>"
        },
        "status": "final",
        "subject": {
          "reference": "urn:uuid:c89d800f-0977-4ef2-9912-cbe6d2de5fa8",
          "display": "Θεμιστοκλής Λιναρδάκη"
        },
        "effectiveDateTime": "2020-02-19T06:16:00Z",
        "specimen": {
          "reference": "urn:uuid:0f8eb652-558d-45b3-99ef-692a94d5f8e0"
        }
      }
    },
    {
      "fullUrl": "urn:uuid:4ea87bc4-5dc6-4dd5-ba37-9a3739ef6e95",
      "resource": {
        "resourceType": "Observation",
        "id": "4ea87bc4-5dc6-4dd5-ba37-9a3739ef6e95",
        "meta": {
          "profile": [
            "http://hl7.eu/fhir/laboratory/StructureDefinition/Observation-resultslab-eu-lab"
          ]
        },
        "performer": [
          {
            "display": "The Central European Lab"
          }
        ],
        "category": [
          {
            "coding": [
              {
                "system": "http://terminology.hl7.org/CodeSystem/observation-category",
                "code": "laboratory"
              }
            ]
          }
        ],
        "code": {
          "coding": [
            {
              "code": "5799-2",
              "system": "http://loinc.org",
              "display": "Leukocyte esterase [Presence] in Urine by Test strip"
            }
          ],
          "text": "Leukocyte esterase [Presence] in Urine by Test strip"
        },
        "text": {
          "status": "generated",
          "div": "<div xmlns=\"http://www.w3.org/1999/xhtml\"><table class=\"hl7__eu__lab__report\"><tr><th>Test</th><th>19-Feb-2020</th><th>Reference&#xA0;Range</th><th>Unit</th></tr><tr><td>Leukocyte esterase [Presence] in Urine by Test strip</td></tr></table></div>"
        },
        "status": "final",
        "subject": {
          "reference": "urn:uuid:c89d800f-0977-4ef2-9912-cbe6d2de5fa8",
          "display": "Θεμιστοκλής Λιναρδάκη"
        },
        "effectiveDateTime": "2020-02-19T06:16:00Z",
        "specimen": {
          "reference": "urn:uuid:0f8eb652-558d-45b3-99ef-692a94d5f8e0"
        }
      }
    },
    {
      "fullUrl": "urn:uuid:b9c5dc07-844a-4eee-8108-958c8f1299af",
      "resource": {
        "resourceType": "Observation",
        "id": "b9c5dc07-844a-4eee-8108-958c8f1299af",
        "meta": {
          "profile": [
            "http://hl7.eu/fhir/laboratory/StructureDefinition/Observation-resultslab-eu-lab"
          ]
        },
        "performer": [
          {
            "display": "The Central European Lab"
          }
        ],
        "category": [
          {
            "coding": [
              {
                "system": "http://terminology.hl7.org/CodeSystem/observation-category",
                "code": "laboratory"
              }
            ]
          }
        ],
        "code": {
          "coding": [
            {
              "code": "4548-4",
              "system": "http://loinc.org",
              "display": "Hemoglobin A1c/Hemoglobin.total in Blood"
            }
          ],
          "text": "Hemoglobin A1c/Hemoglobin.total in Blood"
        },
        "valueQuantity": {
          "system": "http://unitsofmeasure.org",
          "value": 3.2,
          "unit": "%",
          "code": "%"
        },
        "referenceRange": [
          {
            "low": {
              "value": 4.3,
              "code": "%",
              "system": "http://unitsofmeasure.org"
            }
          },
          {
            "high": {
              "value": 6.4,
              "code": "%",
              "system": "http://unitsofmeasure.org"
            }
          }
        ],
        "interpretation": [
          {
            "coding": [
              {
                "code": "L",
                "system": "http://terminology.hl7.org/CodeSystem/v3-ObservationInterpretation",
                "display": "Low"
              }
            ]
          }
        ],
        "text": {
          "status": "generated",
          "div": "<div xmlns=\"http://www.w3.org/1999/xhtml\"><table class=\"hl7__eu__lab__report\"><tr><th>Test</th><th>19-Feb-2020</th><th>Reference&#xA0;Range</th><th>Unit</th></tr><tr><td>Hemoglobin A1c/Hemoglobin.total in Blood</td><td>3.2</td><td>4.3 - 6.4</td><td>L</td><td>%</td></tr></table></div>"
        },
        "status": "final",
        "subject": {
          "reference": "urn:uuid:c89d800f-0977-4ef2-9912-cbe6d2de5fa8",
          "display": "Θεμιστοκλής Λιναρδάκη"
        },
        "effectiveDateTime": "2020-02-19T06:16:00Z",
        "specimen": {
          "reference": "urn:uuid:800c5993-838d-4150-a599-b021b9fa438f"
        }
      }
    },
    {
      "fullUrl": "urn:uuid:ebd2aaea-73be-4252-818e-dd611ae195df",
      "resource": {
        "resourceType": "Observation",
        "id": "ebd2aaea-73be-4252-818e-dd611ae195df",
        "meta": {
          "profile": [
            "http://hl7.eu/fhir/laboratory/StructureDefinition/Observation-resultslab-eu-lab"
          ]
        },
        "performer": [
          {
            "display": "The Central European Lab"
          }
        ],
        "category": [
          {
            "coding": [
              {
                "system": "http://terminology.hl7.org/CodeSystem/observation-category",
                "code": "laboratory"
              }
            ]
          }
        ],
        "code": {
          "coding": [
            {
              "code": "2339-0",
              "system": "http://loinc.org",
              "display": "Glucose [Mass/volume] in Blood"
            }
          ],
          "text": "Glucose [Mass/volume] in Blood"
        },
        "valueQuantity": {
          "system": "http://unitsofmeasure.org",
          "value": 81.2,
          "unit": "mg/dL",
          "code": "mg/dL"
        },
        "referenceRange": [
          {
            "low": {
              "value": 70,
              "code": "mg/dL",
              "system": "http://unitsofmeasure.org"
            }
          },
          {
            "high": {
              "value": 140,
              "code": "mg/dL",
              "system": "http://unitsofmeasure.org"
            }
          }
        ],
        "text": {
          "status": "generated",
          "div": "<div xmlns=\"http://www.w3.org/1999/xhtml\"><table class=\"hl7__eu__lab__report\"><tr><th>Test</th><th>19-Feb-2020</th><th>Reference&#xA0;Range</th><th>Unit</th></tr><tr><td>Glucose [Mass/volume] in Blood</td><td>81.2</td><td>70 - 140</td><td></td><td>mg/dL</td></tr></table></div>"
        },
        "status": "final",
        "subject": {
          "reference": "urn:uuid:c89d800f-0977-4ef2-9912-cbe6d2de5fa8",
          "display": "Θεμιστοκλής Λιναρδάκη"
        },
        "effectiveDateTime": "2020-02-19T06:16:00Z",
        "specimen": {
          "reference": "urn:uuid:800c5993-838d-4150-a599-b021b9fa438f"
        }
      }
    },
    {
      "fullUrl": "urn:uuid:4230cf9a-9693-44be-8d5c-f974bb10e760",
      "resource": {
        "resourceType": "Observation",
        "id": "4230cf9a-9693-44be-8d5c-f974bb10e760",
        "meta": {
          "profile": [
            "http://hl7.eu/fhir/laboratory/StructureDefinition/Observation-resultslab-eu-lab"
          ]
        },
        "performer": [
          {
            "display": "The Central European Lab"
          }
        ],
        "category": [
          {
            "coding": [
              {
                "system": "http://terminology.hl7.org/CodeSystem/observation-category",
                "code": "laboratory"
              }
            ]
          }
        ],
        "code": {
          "coding": [
            {
              "code": "6299-2",
              "system": "http://loinc.org",
              "display": "Urea nitrogen [Mass/volume] in Blood"
            }
          ],
          "text": "Urea nitrogen [Mass/volume] in Blood"
        },
        "valueQuantity": {
          "system": "http://unitsofmeasure.org",
          "value": 18.7,
          "unit": "mg/dL",
          "code": "mg/dL"
        },
        "referenceRange": [
          {
            "low": {
              "value": 7,
              "code": "mg/dL",
              "system": "http://unitsofmeasure.org"
            }
          },
          {
            "high": {
              "value": 20,
              "code": "mg/dL",
              "system": "http://unitsofmeasure.org"
            }
          }
        ],
        "text": {
          "status": "generated",
          "div": "<div xmlns=\"http://www.w3.org/1999/xhtml\"><table class=\"hl7__eu__lab__report\"><tr><th>Test</th><th>19-Feb-2020</th><th>Reference&#xA0;Range</th><th>Unit</th></tr><tr><td>Urea nitrogen [Mass/volume] in Blood</td><td>18.7</td><td>7 - 20</td><td></td><td>mg/dL</td></tr></table></div>"
        },
        "status": "final",
        "subject": {
          "reference": "urn:uuid:c89d800f-0977-4ef2-9912-cbe6d2de5fa8",
          "display": "Θεμιστοκλής Λιναρδάκη"
        },
        "effectiveDateTime": "2020-02-19T06:16:00Z",
        "specimen": {
          "reference": "urn:uuid:800c5993-838d-4150-a599-b021b9fa438f"
        }
      }
    },
    {
      "fullUrl": "urn:uuid:8efd05e5-1bc5-4acd-bf5a-12d387cf619b",
      "resource": {
        "resourceType": "Observation",
        "id": "8efd05e5-1bc5-4acd-bf5a-12d387cf619b",
        "meta": {
          "profile": [
            "http://hl7.eu/fhir/laboratory/StructureDefinition/Observation-resultslab-eu-lab"
          ]
        },
        "performer": [
          {
            "display": "The Central European Lab"
          }
        ],
        "category": [
          {
            "coding": [
              {
                "system": "http://terminology.hl7.org/CodeSystem/observation-category",
                "code": "laboratory"
              }
            ]
          }
        ],
        "code": {
          "coding": [
            {
              "code": "38483-4",
              "system": "http://loinc.org",
              "display": "Creatinine [Mass/volume] in Blood"
            }
          ],
          "text": "Creatinine [Mass/volume] in Blood"
        },
        "valueQuantity": {
          "system": "http://unitsofmeasure.org",
          "value": 7.2,
          "unit": "mg/dL",
          "code": "mg/dL"
        },
        "referenceRange": [
          {
            "low": {
              "value": 0.6,
              "code": "mg/dL",
              "system": "http://unitsofmeasure.org"
            }
          },
          {
            "high": {
              "value": 1.3,
              "code": "mg/dL",
              "system": "http://unitsofmeasure.org"
            }
          }
        ],
        "interpretation": [
          {
            "coding": [
              {
                "code": "H",
                "system": "http://terminology.hl7.org/CodeSystem/v3-ObservationInterpretation",
                "display": "High"
              }
            ]
          }
        ],
        "text": {
          "status": "generated",
          "div": "<div xmlns=\"http://www.w3.org/1999/xhtml\"><table class=\"hl7__eu__lab__report\"><tr><th>Test</th><th>19-Feb-2020</th><th>Reference&#xA0;Range</th><th>Unit</th></tr><tr><td>Creatinine [Mass/volume] in Blood</td><td>7.2</td><td>0.6 - 1.3</td><td>H</td><td>mg/dL</td></tr></table></div>"
        },
        "status": "final",
        "subject": {
          "reference": "urn:uuid:c89d800f-0977-4ef2-9912-cbe6d2de5fa8",
          "display": "Θεμιστοκλής Λιναρδάκη"
        },
        "effectiveDateTime": "2020-02-19T06:16:00Z",
        "specimen": {
          "reference": "urn:uuid:800c5993-838d-4150-a599-b021b9fa438f"
        }
      }
    },
    {
      "fullUrl": "urn:uuid:bf7a9fe7-5a01-4dd9-ab34-08ffa24a1841",
      "resource": {
        "resourceType": "Observation",
        "id": "bf7a9fe7-5a01-4dd9-ab34-08ffa24a1841",
        "meta": {
          "profile": [
            "http://hl7.eu/fhir/laboratory/StructureDefinition/Observation-resultslab-eu-lab"
          ]
        },
        "performer": [
          {
            "display": "The Central European Lab"
          }
        ],
        "category": [
          {
            "coding": [
              {
                "system": "http://terminology.hl7.org/CodeSystem/observation-category",
                "code": "laboratory"
              }
            ]
          }
        ],
        "code": {
          "coding": [
            {
              "code": "49765-1",
              "system": "http://loinc.org",
              "display": "Calcium [Mass/volume] in Blood"
            }
          ],
          "text": "Calcium [Mass/volume] in Blood"
        },
        "valueQuantity": {
          "system": "http://unitsofmeasure.org",
          "value": 8.7,
          "unit": "mg/dL",
          "code": "mg/dL"
        },
        "referenceRange": [
          {
            "low": {
              "value": 8.5,
              "code": "mg/dL",
              "system": "http://unitsofmeasure.org"
            }
          },
          {
            "high": {
              "value": 10.5,
              "code": "mg/dL",
              "system": "http://unitsofmeasure.org"
            }
          }
        ],
        "text": {
          "status": "generated",
          "div": "<div xmlns=\"http://www.w3.org/1999/xhtml\"><table class=\"hl7__eu__lab__report\"><tr><th>Test</th><th>19-Feb-2020</th><th>Reference&#xA0;Range</th><th>Unit</th></tr><tr><td>Calcium [Mass/volume] in Blood</td><td>8.7</td><td>8.5 - 10.5</td><td></td><td>mg/dL</td></tr></table></div>"
        },
        "status": "final",
        "subject": {
          "reference": "urn:uuid:c89d800f-0977-4ef2-9912-cbe6d2de5fa8",
          "display": "Θεμιστοκλής Λιναρδάκη"
        },
        "effectiveDateTime": "2020-02-19T06:16:00Z",
        "specimen": {
          "reference": "urn:uuid:800c5993-838d-4150-a599-b021b9fa438f"
        }
      }
    },
    {
      "fullUrl": "urn:uuid:e3a3db05-c4fa-4eb5-ba6d-b8e99b16a9ec",
      "resource": {
        "resourceType": "Observation",
        "id": "e3a3db05-c4fa-4eb5-ba6d-b8e99b16a9ec",
        "meta": {
          "profile": [
            "http://hl7.eu/fhir/laboratory/StructureDefinition/Observation-resultslab-eu-lab"
          ]
        },
        "performer": [
          {
            "display": "The Central European Lab"
          }
        ],
        "category": [
          {
            "coding": [
              {
                "system": "http://terminology.hl7.org/CodeSystem/observation-category",
                "code": "laboratory"
              }
            ]
          }
        ],
        "code": {
          "coding": [
            {
              "code": "2947-0",
              "system": "http://loinc.org",
              "display": "Sodium [Moles/volume] in Blood"
            }
          ],
          "text": "Sodium [Moles/volume] in Blood"
        },
        "valueQuantity": {
          "system": "http://unitsofmeasure.org",
          "value": 142.2,
          "unit": "mmol/L",
          "code": "mmol/L"
        },
        "referenceRange": [
          {
            "low": {
              "value": 135,
              "code": "mmol/L",
              "system": "http://unitsofmeasure.org"
            }
          },
          {
            "high": {
              "value": 145,
              "code": "mmol/L",
              "system": "http://unitsofmeasure.org"
            }
          }
        ],
        "text": {
          "status": "generated",
          "div": "<div xmlns=\"http://www.w3.org/1999/xhtml\"><table class=\"hl7__eu__lab__report\"><tr><th>Test</th><th>19-Feb-2020</th><th>Reference&#xA0;Range</th><th>Unit</th></tr><tr><td>Sodium [Moles/volume] in Blood</td><td>142.2</td><td>135 - 145</td><td></td><td>mmol/L</td></tr></table></div>"
        },
        "status": "final",
        "subject": {
          "reference": "urn:uuid:c89d800f-0977-4ef2-9912-cbe6d2de5fa8",
          "display": "Θεμιστοκλής Λιναρδάκη"
        },
        "effectiveDateTime": "2020-02-19T06:16:00Z",
        "specimen": {
          "reference": "urn:uuid:800c5993-838d-4150-a599-b021b9fa438f"
        }
      }
    },
    {
      "fullUrl": "urn:uuid:b61e85a4-118e-43cb-8f40-c6e89a77120b",
      "resource": {
        "resourceType": "Observation",
        "id": "b61e85a4-118e-43cb-8f40-c6e89a77120b",
        "meta": {
          "profile": [
            "http://hl7.eu/fhir/laboratory/StructureDefinition/Observation-resultslab-eu-lab"
          ]
        },
        "performer": [
          {
            "display": "The Central European Lab"
          }
        ],
        "category": [
          {
            "coding": [
              {
                "system": "http://terminology.hl7.org/CodeSystem/observation-category",
                "code": "laboratory"
              }
            ]
          }
        ],
        "code": {
          "coding": [
            {
              "code": "6298-4",
              "system": "http://loinc.org",
              "display": "Potassium [Moles/volume] in Blood"
            }
          ],
          "text": "Potassium [Moles/volume] in Blood"
        },
        "valueQuantity": {
          "system": "http://unitsofmeasure.org",
          "value": 4.8,
          "unit": "mmol/L",
          "code": "mmol/L"
        },
        "referenceRange": [
          {
            "low": {
              "value": 3.5,
              "code": "mmol/L",
              "system": "http://unitsofmeasure.org"
            }
          },
          {
            "high": {
              "value": 5.3,
              "code": "mmol/L",
              "system": "http://unitsofmeasure.org"
            }
          }
        ],
        "text": {
          "status": "generated",
          "div": "<div xmlns=\"http://www.w3.org/1999/xhtml\"><table class=\"hl7__eu__lab__report\"><tr><th>Test</th><th>19-Feb-2020</th><th>Reference&#xA0;Range</th><th>Unit</th></tr><tr><td>Potassium [Moles/volume] in Blood</td><td>4.8</td><td>3.5 - 5.3</td><td></td><td>mmol/L</td></tr></table></div>"
        },
        "status": "final",
        "subject": {
          "reference": "urn:uuid:c89d800f-0977-4ef2-9912-cbe6d2de5fa8",
          "display": "Θεμιστοκλής Λιναρδάκη"
        },
        "effectiveDateTime": "2020-02-19T06:16:00Z",
        "specimen": {
          "reference": "urn:uuid:800c5993-838d-4150-a599-b021b9fa438f"
        }
      }
    },
    {
      "fullUrl": "urn:uuid:616e414c-14db-488f-a4dd-b203320b5554",
      "resource": {
        "resourceType": "Observation",
        "id": "616e414c-14db-488f-a4dd-b203320b5554",
        "meta": {
          "profile": [
            "http://hl7.eu/fhir/laboratory/StructureDefinition/Observation-resultslab-eu-lab"
          ]
        },
        "performer": [
          {
            "display": "The Central European Lab"
          }
        ],
        "category": [
          {
            "coding": [
              {
                "system": "http://terminology.hl7.org/CodeSystem/observation-category",
                "code": "laboratory"
              }
            ]
          }
        ],
        "code": {
          "coding": [
            {
              "code": "2069-3",
              "system": "http://loinc.org",
              "display": "Chloride [Moles/volume] in Blood"
            }
          ],
          "text": "Chloride [Moles/volume] in Blood"
        },
        "valueQuantity": {
          "system": "http://unitsofmeasure.org",
          "value": 101.1,
          "unit": "mmol/L",
          "code": "mmol/L"
        },
        "referenceRange": [
          {
            "low": {
              "value": 98,
              "code": "mmol/L",
              "system": "http://unitsofmeasure.org"
            }
          },
          {
            "high": {
              "value": 110,
              "code": "mmol/L",
              "system": "http://unitsofmeasure.org"
            }
          }
        ],
        "text": {
          "status": "generated",
          "div": "<div xmlns=\"http://www.w3.org/1999/xhtml\"><table class=\"hl7__eu__lab__report\"><tr><th>Test</th><th>19-Feb-2020</th><th>Reference&#xA0;Range</th><th>Unit</th></tr><tr><td>Chloride [Moles/volume] in Blood</td><td>101.1</td><td>98 - 110</td><td></td><td>mmol/L</td></tr></table></div>"
        },
        "status": "final",
        "subject": {
          "reference": "urn:uuid:c89d800f-0977-4ef2-9912-cbe6d2de5fa8",
          "display": "Θεμιστοκλής Λιναρδάκη"
        },
        "effectiveDateTime": "2020-02-19T06:16:00Z",
        "specimen": {
          "reference": "urn:uuid:800c5993-838d-4150-a599-b021b9fa438f"
        }
      }
    },
    {
      "fullUrl": "urn:uuid:03d3386d-dd4f-4288-9e84-9f5d416f7012",
      "resource": {
        "resourceType": "Observation",
        "id": "03d3386d-dd4f-4288-9e84-9f5d416f7012",
        "meta": {
          "profile": [
            "http://hl7.eu/fhir/laboratory/StructureDefinition/Observation-resultslab-eu-lab"
          ]
        },
        "performer": [
          {
            "display": "The Central European Lab"
          }
        ],
        "category": [
          {
            "coding": [
              {
                "system": "http://terminology.hl7.org/CodeSystem/observation-category",
                "code": "laboratory"
              }
            ]
          }
        ],
        "code": {
          "coding": [
            {
              "code": "20565-8",
              "system": "http://loinc.org",
              "display": "Carbon dioxide, total [Moles/volume] in Blood"
            }
          ],
          "text": "Carbon dioxide, total [Moles/volume] in Blood"
        },
        "valueQuantity": {
          "system": "http://unitsofmeasure.org",
          "value": 21,
          "unit": "mmol/L",
          "code": "mmol/L"
        },
        "referenceRange": [
          {
            "low": {
              "value": 22,
              "code": "mmol/L",
              "system": "http://unitsofmeasure.org"
            }
          },
          {
            "high": {
              "value": 29,
              "code": "mmol/L",
              "system": "http://unitsofmeasure.org"
            }
          }
        ],
        "interpretation": [
          {
            "coding": [
              {
                "code": "L",
                "system": "http://terminology.hl7.org/CodeSystem/v3-ObservationInterpretation",
                "display": "Low"
              }
            ]
          }
        ],
        "text": {
          "status": "generated",
          "div": "<div xmlns=\"http://www.w3.org/1999/xhtml\"><table class=\"hl7__eu__lab__report\"><tr><th>Test</th><th>19-Feb-2020</th><th>Reference&#xA0;Range</th><th>Unit</th></tr><tr><td>Carbon dioxide, total [Moles/volume] in Blood</td><td>21.0</td><td>22 - 29</td><td>L</td><td>mmol/L</td></tr></table></div>"
        },
        "status": "final",
        "subject": {
          "reference": "urn:uuid:c89d800f-0977-4ef2-9912-cbe6d2de5fa8",
          "display": "Θεμιστοκλής Λιναρδάκη"
        },
        "effectiveDateTime": "2020-02-19T06:16:00Z",
        "specimen": {
          "reference": "urn:uuid:800c5993-838d-4150-a599-b021b9fa438f"
        }
      }
    },
    {
      "fullUrl": "urn:uuid:ea40c547-de70-4696-9479-23a3d1cf8784",
      "resource": {
        "resourceType": "Device",
        "id": "ea40c547-de70-4696-9479-23a3d1cf8784",
        "deviceName": [
          {
            "name": "SYNDERAI Synthetic Generator",
            "type": "manufacturer-name"
          }
        ],
        "version": [
          {
            "value": "5.0"
          }
        ],
        "text": {
          "status": "generated",
          "div": "<div xmlns=\"http://www.w3.org/1999/xhtml\">SYNDERAI Synthetic Generator v5.0</div>"
        },
        "status": "active\"",
        "distinctIdentifier": "synderai-generator-50",
        "manufacturer": "SYNDERAI Project"
      }
    },
    {
      "fullUrl": "urn:uuid:661f570e-f32c-493e-906d-3b377b4c60e2",
      "resource": {
        "resourceType": "Provenance",
        "id": "661f570e-f32c-493e-906d-3b377b4c60e2",
        "target": [
          {
            "reference": "Patient/c89d800f-0977-4ef2-9912-cbe6d2de5fa8"
          },
          {
            "reference": "Bundle/3158fd87-d15a-4b75-adc1-573ee6a0afa2"
          },
          {
            "reference": "Composition/b6723eb7-8c68-4a6b-9a9f-f4700ee377f7"
          },
          {
            "reference": "PractitionerRole/786d4681-e41d-45d7-830b-80a877873038"
          },
          {
            "reference": "Practitioner/c700fb53-571e-4394-a954-a765e0320ce7"
          },
          {
            "reference": "PractitionerRole/11d64c22-def3-490f-b09e-35f0158f0985"
          },
          {
            "reference": "Organization/5e53186d-3603-41c8-9469-004ea2973c4c"
          }
        ],
        "activity": {
          "text": "Synthetic Example Data Generation"
        },
        "policy": [
          "https://synderai.net/synderai-synthetic-data-policy"
        ],
        "agent": [
          {
            "type": {
              "text": "author"
            },
            "who": {
              "reference": "Device/ea40c547-de70-4696-9479-23a3d1cf8784"
            }
          }
        ],
        "reason": [
          {
            "text": "Interoperability Testing and Training (non-clinical use)"
          }
        ],
        "text": {
          "status": "generated",
          "div": "<div xmlns=\"http://www.w3.org/1999/xhtml\">Provenance for SYNDERAI Synthetic Example Data Resource</div>"
        },
        "recorded": "2020-02-19T07:16:00Z"
      }
    },
    {
      "fullUrl": "urn:uuid:786d4681-e41d-45d7-830b-80a877873038",
      "resource": {
        "resourceType": "PractitionerRole",
        "id": "786d4681-e41d-45d7-830b-80a877873038",
        "meta": {
          "profile": [
            "http://hl7.eu/fhir/base/StructureDefinition/practitionerRole-eu"
          ]
        },
        "text": {
          "status": "generated",
          "div": "<div xmlns=\"http://www.w3.org/1999/xhtml\">Laboratory Role Id: 786d4681-e41d-45d7-830b-80a877873038</div>"
        },
        "practitioner": {
          "reference": "urn:uuid:c700fb53-571e-4394-a954-a765e0320ce7"
        }
      }
    },
    {
      "fullUrl": "urn:uuid:c700fb53-571e-4394-a954-a765e0320ce7",
      "resource": {
        "resourceType": "Practitioner",
        "id": "c700fb53-571e-4394-a954-a765e0320ce7",
        "meta": {
          "profile": [
            "http://hl7.eu/fhir/base/StructureDefinition/practitioner-eu"
          ]
        },
        "identifier": [
          {
            "assigner": {
              "display": "HL7 Europe"
            },
            "system": "urn:oid:2.16.840.1.113883.2.51.999",
            "value": "99860104-7553-4b9b-ae03-0acfd4e73f7f"
          }
        ],
        "name": [
          {
            "prefix": [
              "dr"
            ],
            "given": [
              "Ex"
            ],
            "family": "Ample"
          }
        ],
        "address": [
          {
            "line": [
              "Laboratoire Central Européenne",
              "Boulevard du Jardin Botanique 32"
            ],
            "postalCode": "1000",
            "city": "Brussels",
            "country": "Belgium"
          }
        ],
        "text": {
          "status": "generated",
          "div": "<div xmlns=\"http://www.w3.org/1999/xhtml\">Laboratory: Laboratoire Central Européenne, 1000 Brussels, Belgium</div>"
        }
      }
    }
  ],
  "type": "document",
  "timestamp": "2020-02-19T07:16:00Z"
}
