{
  "resourceType": "Bundle",
  "id": "ee8321b5-d26b-44af-8b9d-655b9e03e576",
  "meta": {
    "profile": [
      "http://hl7.eu/fhir/laboratory/StructureDefinition/Bundle-eu-lab"
    ]
  },
  "identifier": {
    "assigner": {
      "display": "HL7 Europe"
    },
    "system": "urn:oid:2.16.840.1.113883.2.51.999",
    "value": "e5bdcdfe-2650-4162-995e-315ad62393dd"
  },
  "entry": [
    {
      "fullUrl": "urn:uuid:aa1459a9-9e97-4881-b228-bcf263ccc3d3",
      "resource": {
        "resourceType": "Composition",
        "id": "aa1459a9-9e97-4881-b228-bcf263ccc3d3",
        "meta": {
          "profile": [
            "http://hl7.eu/fhir/laboratory/StructureDefinition/Composition-eu-lab"
          ]
        },
        "identifier": {
          "assigner": {
            "display": "HL7 Europe"
          },
          "system": "urn:oid:2.16.840.1.113883.2.51.999",
          "value": "2a2e4eef-2d41-4098-b470-3989869b3ea3"
        },
        "author": [
          {
            "reference": "urn:uuid:c38b7057-16a5-4aef-aeb4-c0f4f8b1e1f5"
          }
        ],
        "category": [
          {
            "coding": [
              {
                "code": "26436-6",
                "system": "http://loinc.org",
                "display": "Laboratory studies (set)"
              }
            ]
          }
        ],
        "type": {
          "coding": [
            {
              "code": "11502-2",
              "system": "http://loinc.org",
              "display": "Laboratory report"
            }
          ],
          "text": "Laboratory Report"
        },
        "section": [
          {
            "code": {
              "coding": [
                {
                  "code": "26436-6",
                  "system": "http://loinc.org",
                  "display": "Laboratory studies (set)"
                }
              ],
              "text": "Laboratory studies"
            },
            "section": [
              {
                "code": {
                  "coding": [
                    {
                      "code": "$18719-5",
                      "system": "http://loinc.org",
                      "display": "Chemistry studies (set)"
                    }
                  ],
                  "text": "Chemistry"
                },
                "entry": [
                  {
                    "reference": "urn:uuid:26281539-546a-4e1e-bbc9-de2b37939eef"
                  },
                  {
                    "reference": "urn:uuid:42948e4f-1044-4d7f-9226-2417e182d1df"
                  },
                  {
                    "reference": "urn:uuid:d365393e-1e14-43cd-8251-5c1495a34ca5"
                  },
                  {
                    "reference": "urn:uuid:6bc2f2ba-8e90-4ddb-bac4-d54520aed84b"
                  },
                  {
                    "reference": "urn:uuid:260a2617-7daa-4a51-8e5e-16145ba2b66c"
                  },
                  {
                    "reference": "urn:uuid:ddcc7110-fca4-4373-86cc-dbd63e0fbabe"
                  },
                  {
                    "reference": "urn:uuid:c38f5264-5c7f-4f58-b1cb-45998b0e9130"
                  },
                  {
                    "reference": "urn:uuid:3178b58d-a61f-4852-b7c3-117f4d7aba08"
                  },
                  {
                    "reference": "urn:uuid:40073ac3-bb5b-4abb-ad2e-8ef9c3387439"
                  }
                ],
                "text": {
                  "status": "generated",
                  "div": "<div xmlns=\"http://www.w3.org/1999/xhtml\"><h3>Chemistry</h3><table class=\"hl7__eu__lab__report\"><thead><tr><th>Test</th><th>27-MAY-2020</th><th>Reference&#xA0;Range</th><th>Unit</th></tr></thead><tbody><tr><td>Hemoglobin A1c/Hemoglobin.total in Blood</td><td>5.9</td><td>4.5 - 6.4</td><td>%</td></tr><tr><td>Glucose [Mass/volume] in Blood</td><td>72.6</td><td>70 - 140</td><td>mg/dL</td></tr><tr><td>Urea nitrogen [Mass/volume] in Blood</td><td>10.5</td><td>7 - 20</td><td>mg/dL</td></tr><tr><td>Creatinine [Mass/volume] in Blood</td><td>0.8</td><td>0.6 - 1.1</td><td>mg/dL</td></tr><tr><td>Calcium [Mass/volume] in Blood</td><td>9.7</td><td>8.5 - 10.4</td><td>mg/dL</td></tr><tr><td>Sodium [Moles/volume] in Blood</td><td>137.9</td><td>135 - 145</td><td>mmol/L</td></tr><tr><td>Potassium [Moles/volume] in Blood</td><td>5.1</td><td>3.5 - 5.1</td><td>mmol/L</td></tr><tr><td>Chloride [Moles/volume] in Blood</td><td>104.8</td><td>98 - 107</td><td>mmol/L</td></tr><tr><td>Carbon dioxide, total [Moles/volume] in Blood</td><td><strong>20.8 L</strong></td><td>22 - 29</td><td>mmol/L</td></tr></tbody></table></div>"
                },
                "title": "Chemistry"
              }
            ],
            "title": "Laboratory Report"
          },
          {
            "text": {
              "status": "generated",
              "div": "<div xmlns=\"http://www.w3.org/1999/xhtml\"><h3>Annotation</h3><table class=\"hl7__eu__lab__report\"><tr><th>Conclusion and Recommendations based on this report and previous findings known to us</th></tr><tr><td>All measured parameters are within or very close to normal limits for this age group. Mildly low total CO₂ may suggest a tendency toward mild metabolic acidosis, but without other abnormalities, this is likely not clinically significant. No evidence of renal dysfunction, electrolyte imbalance, or poor glycemic control. Recommend clinical correlation and repeat if clinically indicated.</td></tr></table></div>"
            },
            "code": {
              "coding": [
                {
                  "system": "http://loinc.org",
                  "code": "48767-8",
                  "display": "Annotation comment"
                }
              ]
            },
            "title": "Annotation comment"
          }
        ],
        "status": "final",
        "subject": {
          "reference": "urn:uuid:e8c0865f-dda4-4f90-a23e-cb1e54c06cbe",
          "display": "Magdolna Balog"
        },
        "date": "2020-05-27T15:34:16Z",
        "title": "Laboratory Report",
        "confidentiality": "N"
      }
    },
    {
      "fullUrl": "urn:uuid:3557ed64-e337-4838-b1f5-6472cc1ca5f2",
      "resource": {
        "resourceType": "DiagnosticReport",
        "id": "3557ed64-e337-4838-b1f5-6472cc1ca5f2",
        "meta": {
          "profile": [
            "http://hl7.eu/fhir/laboratory/StructureDefinition/DiagnosticReport-eu-lab"
          ]
        },
        "identifier": [
          {
            "assigner": {
              "display": "HL7 Europe"
            },
            "system": "urn:oid:2.16.840.1.113883.2.51.999",
            "value": "99df7ff3-4dc2-4232-95c7-2db8a10a9fdd"
          }
        ],
        "extension": [
          {
            "url": "http://hl7.org/fhir/5.0/StructureDefinition/extension-DiagnosticReport.composition",
            "valueReference": {
              "reference": "urn:uuid:2a2e4eef-2d41-4098-b470-3989869b3ea3"
            }
          }
        ],
        "category": [
          {
            "coding": [
              {
                "code": "26436-6",
                "system": "http://loinc.org",
                "display": "Laboratory studies (set)"
              }
            ]
          }
        ],
        "specimen": [
          {
            "reference": "urn:uuid:25d30ace-102f-460c-876a-be4bf51d9d30"
          }
        ],
        "result": [
          {
            "reference": "urn:uuid:26281539-546a-4e1e-bbc9-de2b37939eef"
          },
          {
            "reference": "urn:uuid:42948e4f-1044-4d7f-9226-2417e182d1df"
          },
          {
            "reference": "urn:uuid:d365393e-1e14-43cd-8251-5c1495a34ca5"
          },
          {
            "reference": "urn:uuid:6bc2f2ba-8e90-4ddb-bac4-d54520aed84b"
          },
          {
            "reference": "urn:uuid:260a2617-7daa-4a51-8e5e-16145ba2b66c"
          },
          {
            "reference": "urn:uuid:ddcc7110-fca4-4373-86cc-dbd63e0fbabe"
          },
          {
            "reference": "urn:uuid:c38f5264-5c7f-4f58-b1cb-45998b0e9130"
          },
          {
            "reference": "urn:uuid:3178b58d-a61f-4852-b7c3-117f4d7aba08"
          },
          {
            "reference": "urn:uuid:40073ac3-bb5b-4abb-ad2e-8ef9c3387439"
          }
        ],
        "status": "registered",
        "code": {
          "coding": [
            {
              "code": "11502-2",
              "system": "http://loinc.org",
              "display": "Laboratory report"
            }
          ]
        },
        "subject": {
          "reference": "urn:uuid:e8c0865f-dda4-4f90-a23e-cb1e54c06cbe",
          "display": "Magdolna Balog"
        }
      }
    },
    {
      "fullUrl": "urn:uuid:e8c0865f-dda4-4f90-a23e-cb1e54c06cbe",
      "resource": {
        "resourceType": "Patient",
        "id": "e8c0865f-dda4-4f90-a23e-cb1e54c06cbe",
        "meta": {
          "security": [
            {
              "system": "http://terminology.hl7.org/CodeSystem/v3-ActReason",
              "code": "HTEST"
            },
            {
              "system": "http://terminology.hl7.org/CodeSystem/v3-ActReason",
              "code": "TRAIN"
            }
          ],
          "tag": [
            {
              "system": "https://synderai.net/fhir/CodeSystem/tags",
              "code": "synthetic",
              "display": "SYNDERAI Synthetic data"
            }
          ],
          "profile": [
            "http://hl7.eu/fhir/base/StructureDefinition/patient-eu-core"
          ]
        },
        "identifier": [
          {
            "type": {
              "coding": [
                {
                  "code": "PT",
                  "system": "http://terminology.hl7.org/CodeSystem/v2-0203"
                }
              ]
            },
            "system": "http://ec.europa.eu/identifier/eci",
            "value": "2437-386280-4"
          },
          {
            "type": {
              "coding": [
                {
                  "code": "MR",
                  "system": "http://terminology.hl7.org/CodeSystem/v2-0203"
                }
              ]
            },
            "system": "http://local.setting.eu/identifier",
            "value": "1d8dc8c5-3a85-b1b5-4101-cca776d0be28"
          }
        ],
        "name": [
          {
            "family": "Balog"
          },
          {
            "given": [
              "Magdolna"
            ]
          },
          {
            "text": "Magdolna Balog"
          }
        ],
        "address": [
          {
            "line": [
              "Ady endre utca 160."
            ],
            "use": "home",
            "type": "physical",
            "postalCode": "3989",
            "city": "Némethídfa",
            "country": "Hungary"
          }
        ],
        "telecom": [
          {
            "system": "phone",
            "value": "+36 46 091-2914"
          }
        ],
        "extension": [
          {
            "url": "http://hl7.org/fhir/StructureDefinition/patient-nationality",
            "valueCodeableConcept": {
              "coding": [
                {
                  "code": "HU",
                  "system": "http://hl7.org/fhir/ValueSet/country"
                }
              ]
            }
          }
        ],
        "text": {
          "status": "generated",
          "div": "<div xmlns=\"http://www.w3.org/1999/xhtml\"><table class=\"hl7__ips\"><tr><td>Magdolna Balog</td><td>female</td><td>21-May-1946</td></tr></table></div>"
        },
        "gender": "female",
        "birthDate": "1946-05-21"
      }
    },
    {
      "fullUrl": "urn:uuid:846f4414-7f3f-4c70-8578-e09208fbeb74",
      "resource": {
        "resourceType": "ServiceRequest",
        "id": "846f4414-7f3f-4c70-8578-e09208fbeb74",
        "meta": {
          "profile": [
            "http://hl7.eu/fhir/laboratory/StructureDefinition/ServiceRequest-eu-lab"
          ]
        },
        "identifier": [
          {
            "system": "http://example.org",
            "value": "a0a59ce7-f9d4-41b9-a0c9-abdd5ea73cf8"
          }
        ],
        "specimen": [
          {
            "reference": "urn:uuid:25d30ace-102f-460c-876a-be4bf51d9d30"
          }
        ],
        "reasonCode": [
          {
            "coding": [
              {
                "code": "26929004",
                "system": "http://snomed.info/sct",
                "display": "Alzheimer&#039;s disease"
              }
            ]
          },
          {
            "coding": [
              {
                "code": "414545008",
                "system": "http://snomed.info/sct",
                "display": "Ischemic heart disease"
              }
            ]
          },
          {
            "coding": [
              {
                "code": "49436004",
                "system": "http://snomed.info/sct",
                "display": "Atrial fibrillation"
              }
            ]
          },
          {
            "coding": [
              {
                "code": "64859006",
                "system": "http://snomed.info/sct",
                "display": "Osteoporosis"
              }
            ]
          },
          {
            "coding": [
              {
                "code": "15777000",
                "system": "http://snomed.info/sct",
                "display": "Prediabetes"
              }
            ]
          },
          {
            "coding": [
              {
                "code": "271737000",
                "system": "http://snomed.info/sct",
                "display": "Anemia"
              }
            ]
          }
        ],
        "status": "active",
        "intent": "order",
        "code": {
          "coding": [
            {
              "code": "108252007",
              "system": "http://snomed.info/sct",
              "display": "Laboratory procedure"
            }
          ]
        },
        "subject": {
          "reference": "urn:uuid:e8c0865f-dda4-4f90-a23e-cb1e54c06cbe",
          "display": "Magdolna Balog"
        },
        "requester": {
          "reference": "urn:uuid:2e022ff4-56d3-45b2-bfcf-2b0a36416b28"
        }
      }
    },
    {
      "fullUrl": "urn:uuid:2e022ff4-56d3-45b2-bfcf-2b0a36416b28",
      "resource": {
        "resourceType": "PractitionerRole",
        "id": "2e022ff4-56d3-45b2-bfcf-2b0a36416b28",
        "meta": {
          "profile": [
            "http://hl7.eu/fhir/base/StructureDefinition/practitionerRole-eu"
          ]
        },
        "text": {
          "status": "generated",
          "div": "<div xmlns=\"http://www.w3.org/1999/xhtml\">Provider Role Id: 2e022ff4-56d3-45b2-bfcf-2b0a36416b28</div>"
        },
        "organization": {
          "reference": "urn:uuid:40577f69-6914-4b17-b5d5-5ca80eb3aa7b"
        }
      }
    },
    {
      "fullUrl": "urn:uuid:40577f69-6914-4b17-b5d5-5ca80eb3aa7b",
      "resource": {
        "resourceType": "Organization",
        "id": "40577f69-6914-4b17-b5d5-5ca80eb3aa7b",
        "meta": {
          "profile": [
            "http://hl7.eu/fhir/base/StructureDefinition/organization-eu"
          ]
        },
        "identifier": [
          {
            "assigner": {
              "display": "HL7 Europe"
            },
            "system": "urn:oid:2.16.840.1.113883.2.51.999",
            "value": "d09e72f2-4a00-4645-80f6-bd51e41ee7e9"
          }
        ],
        "address": [
          {
            "line": [
              "Csabai kapu 9-11"
            ],
            "city": "Miskolc",
            "postalCode": "3529",
            "country": "Hungary"
          }
        ],
        "text": {
          "status": "generated",
          "div": "<div xmlns=\"http://www.w3.org/1999/xhtml\">Provider Organization: Semmelweis Ignác Egészségügyi Központ és Egyetemi Oktató Kórház</div>"
        },
        "name": "Semmelweis Ignác Egészségügyi Központ és Egyetemi Oktató Kórház"
      }
    },
    {
      "fullUrl": "urn:uuid:25d30ace-102f-460c-876a-be4bf51d9d30",
      "resource": {
        "resourceType": "Specimen",
        "id": "25d30ace-102f-460c-876a-be4bf51d9d30",
        "meta": {
          "profile": [
            "http://hl7.eu/fhir/laboratory/StructureDefinition/Specimen-eu-lab"
          ]
        },
        "collection": {
          "collectedDateTime": "2020-05-27"
        },
        "text": {
          "status": "generated",
          "div": "<div xmlns=\"http://www.w3.org/1999/xhtml\"><table class=\"hl7__eu__lab__report\"><tr><th>Specimen</th><th>Collection Date</th></tr><tr><td>Whole blood specimen (specimen)</td><td><span class=\"nb\">27-May-2020</span></td></tr></table></div>"
        },
        "type": {
          "coding": [
            {
              "code": "258580003",
              "system": "http://snomed.info/sct",
              "display": "Whole blood specimen (specimen)"
            }
          ]
        }
      }
    },
    {
      "fullUrl": "urn:uuid:26281539-546a-4e1e-bbc9-de2b37939eef",
      "resource": {
        "resourceType": "Observation",
        "id": "26281539-546a-4e1e-bbc9-de2b37939eef",
        "meta": {
          "profile": [
            "http://hl7.eu/fhir/laboratory/StructureDefinition/Observation-resultslab-eu-lab"
          ]
        },
        "performer": [
          {
            "display": "The Central European Lab"
          }
        ],
        "category": [
          {
            "coding": [
              {
                "system": "http://terminology.hl7.org/CodeSystem/observation-category",
                "code": "laboratory"
              }
            ]
          }
        ],
        "code": {
          "coding": [
            {
              "code": "4548-4",
              "system": "http://loinc.org",
              "display": "Hemoglobin A1c/Hemoglobin.total in Blood"
            }
          ],
          "text": "Hemoglobin A1c/Hemoglobin.total in Blood"
        },
        "valueQuantity": {
          "system": "http://unitsofmeasure.org",
          "value": 5.9,
          "unit": "%",
          "code": "%"
        },
        "referenceRange": [
          {
            "low": {
              "value": 4.5,
              "code": "%",
              "system": "http://unitsofmeasure.org"
            }
          },
          {
            "high": {
              "value": 6.4,
              "code": "%",
              "system": "http://unitsofmeasure.org"
            }
          }
        ],
        "text": {
          "status": "generated",
          "div": "<div xmlns=\"http://www.w3.org/1999/xhtml\"><table class=\"hl7__eu__lab__report\"><tr><th>Test</th><th>27-May-2020</th><th>Reference&#xA0;Range</th><th>Unit</th></tr><tr><td>Hemoglobin A1c/Hemoglobin.total in Blood</td><td>5.9</td><td>4.5 - 6.4</td><td></td><td>%</td></tr></table></div>"
        },
        "status": "final",
        "subject": {
          "reference": "urn:uuid:e8c0865f-dda4-4f90-a23e-cb1e54c06cbe",
          "display": "Magdolna Balog"
        },
        "effectiveDateTime": "2020-05-27T13:34:16Z",
        "specimen": {
          "reference": "urn:uuid:25d30ace-102f-460c-876a-be4bf51d9d30"
        }
      }
    },
    {
      "fullUrl": "urn:uuid:42948e4f-1044-4d7f-9226-2417e182d1df",
      "resource": {
        "resourceType": "Observation",
        "id": "42948e4f-1044-4d7f-9226-2417e182d1df",
        "meta": {
          "profile": [
            "http://hl7.eu/fhir/laboratory/StructureDefinition/Observation-resultslab-eu-lab"
          ]
        },
        "performer": [
          {
            "display": "The Central European Lab"
          }
        ],
        "category": [
          {
            "coding": [
              {
                "system": "http://terminology.hl7.org/CodeSystem/observation-category",
                "code": "laboratory"
              }
            ]
          }
        ],
        "code": {
          "coding": [
            {
              "code": "2339-0",
              "system": "http://loinc.org",
              "display": "Glucose [Mass/volume] in Blood"
            }
          ],
          "text": "Glucose [Mass/volume] in Blood"
        },
        "valueQuantity": {
          "system": "http://unitsofmeasure.org",
          "value": 72.6,
          "unit": "mg/dL",
          "code": "mg/dL"
        },
        "referenceRange": [
          {
            "low": {
              "value": 70,
              "code": "mg/dL",
              "system": "http://unitsofmeasure.org"
            }
          },
          {
            "high": {
              "value": 140,
              "code": "mg/dL",
              "system": "http://unitsofmeasure.org"
            }
          }
        ],
        "text": {
          "status": "generated",
          "div": "<div xmlns=\"http://www.w3.org/1999/xhtml\"><table class=\"hl7__eu__lab__report\"><tr><th>Test</th><th>27-May-2020</th><th>Reference&#xA0;Range</th><th>Unit</th></tr><tr><td>Glucose [Mass/volume] in Blood</td><td>72.6</td><td>70 - 140</td><td></td><td>mg/dL</td></tr></table></div>"
        },
        "status": "final",
        "subject": {
          "reference": "urn:uuid:e8c0865f-dda4-4f90-a23e-cb1e54c06cbe",
          "display": "Magdolna Balog"
        },
        "effectiveDateTime": "2020-05-27T13:34:16Z",
        "specimen": {
          "reference": "urn:uuid:25d30ace-102f-460c-876a-be4bf51d9d30"
        }
      }
    },
    {
      "fullUrl": "urn:uuid:d365393e-1e14-43cd-8251-5c1495a34ca5",
      "resource": {
        "resourceType": "Observation",
        "id": "d365393e-1e14-43cd-8251-5c1495a34ca5",
        "meta": {
          "profile": [
            "http://hl7.eu/fhir/laboratory/StructureDefinition/Observation-resultslab-eu-lab"
          ]
        },
        "performer": [
          {
            "display": "The Central European Lab"
          }
        ],
        "category": [
          {
            "coding": [
              {
                "system": "http://terminology.hl7.org/CodeSystem/observation-category",
                "code": "laboratory"
              }
            ]
          }
        ],
        "code": {
          "coding": [
            {
              "code": "6299-2",
              "system": "http://loinc.org",
              "display": "Urea nitrogen [Mass/volume] in Blood"
            }
          ],
          "text": "Urea nitrogen [Mass/volume] in Blood"
        },
        "valueQuantity": {
          "system": "http://unitsofmeasure.org",
          "value": 10.5,
          "unit": "mg/dL",
          "code": "mg/dL"
        },
        "referenceRange": [
          {
            "low": {
              "value": 7,
              "code": "mg/dL",
              "system": "http://unitsofmeasure.org"
            }
          },
          {
            "high": {
              "value": 20,
              "code": "mg/dL",
              "system": "http://unitsofmeasure.org"
            }
          }
        ],
        "text": {
          "status": "generated",
          "div": "<div xmlns=\"http://www.w3.org/1999/xhtml\"><table class=\"hl7__eu__lab__report\"><tr><th>Test</th><th>27-May-2020</th><th>Reference&#xA0;Range</th><th>Unit</th></tr><tr><td>Urea nitrogen [Mass/volume] in Blood</td><td>10.5</td><td>7 - 20</td><td></td><td>mg/dL</td></tr></table></div>"
        },
        "status": "final",
        "subject": {
          "reference": "urn:uuid:e8c0865f-dda4-4f90-a23e-cb1e54c06cbe",
          "display": "Magdolna Balog"
        },
        "effectiveDateTime": "2020-05-27T13:34:16Z",
        "specimen": {
          "reference": "urn:uuid:25d30ace-102f-460c-876a-be4bf51d9d30"
        }
      }
    },
    {
      "fullUrl": "urn:uuid:6bc2f2ba-8e90-4ddb-bac4-d54520aed84b",
      "resource": {
        "resourceType": "Observation",
        "id": "6bc2f2ba-8e90-4ddb-bac4-d54520aed84b",
        "meta": {
          "profile": [
            "http://hl7.eu/fhir/laboratory/StructureDefinition/Observation-resultslab-eu-lab"
          ]
        },
        "performer": [
          {
            "display": "The Central European Lab"
          }
        ],
        "category": [
          {
            "coding": [
              {
                "system": "http://terminology.hl7.org/CodeSystem/observation-category",
                "code": "laboratory"
              }
            ]
          }
        ],
        "code": {
          "coding": [
            {
              "code": "38483-4",
              "system": "http://loinc.org",
              "display": "Creatinine [Mass/volume] in Blood"
            }
          ],
          "text": "Creatinine [Mass/volume] in Blood"
        },
        "valueQuantity": {
          "system": "http://unitsofmeasure.org",
          "value": 0.8,
          "unit": "mg/dL",
          "code": "mg/dL"
        },
        "referenceRange": [
          {
            "low": {
              "value": 0.6,
              "code": "mg/dL",
              "system": "http://unitsofmeasure.org"
            }
          },
          {
            "high": {
              "value": 1.1,
              "code": "mg/dL",
              "system": "http://unitsofmeasure.org"
            }
          }
        ],
        "text": {
          "status": "generated",
          "div": "<div xmlns=\"http://www.w3.org/1999/xhtml\"><table class=\"hl7__eu__lab__report\"><tr><th>Test</th><th>27-May-2020</th><th>Reference&#xA0;Range</th><th>Unit</th></tr><tr><td>Creatinine [Mass/volume] in Blood</td><td>0.8</td><td>0.6 - 1.1</td><td></td><td>mg/dL</td></tr></table></div>"
        },
        "status": "final",
        "subject": {
          "reference": "urn:uuid:e8c0865f-dda4-4f90-a23e-cb1e54c06cbe",
          "display": "Magdolna Balog"
        },
        "effectiveDateTime": "2020-05-27T13:34:16Z",
        "specimen": {
          "reference": "urn:uuid:25d30ace-102f-460c-876a-be4bf51d9d30"
        }
      }
    },
    {
      "fullUrl": "urn:uuid:260a2617-7daa-4a51-8e5e-16145ba2b66c",
      "resource": {
        "resourceType": "Observation",
        "id": "260a2617-7daa-4a51-8e5e-16145ba2b66c",
        "meta": {
          "profile": [
            "http://hl7.eu/fhir/laboratory/StructureDefinition/Observation-resultslab-eu-lab"
          ]
        },
        "performer": [
          {
            "display": "The Central European Lab"
          }
        ],
        "category": [
          {
            "coding": [
              {
                "system": "http://terminology.hl7.org/CodeSystem/observation-category",
                "code": "laboratory"
              }
            ]
          }
        ],
        "code": {
          "coding": [
            {
              "code": "49765-1",
              "system": "http://loinc.org",
              "display": "Calcium [Mass/volume] in Blood"
            }
          ],
          "text": "Calcium [Mass/volume] in Blood"
        },
        "valueQuantity": {
          "system": "http://unitsofmeasure.org",
          "value": 9.7,
          "unit": "mg/dL",
          "code": "mg/dL"
        },
        "referenceRange": [
          {
            "low": {
              "value": 8.5,
              "code": "mg/dL",
              "system": "http://unitsofmeasure.org"
            }
          },
          {
            "high": {
              "value": 10.4,
              "code": "mg/dL",
              "system": "http://unitsofmeasure.org"
            }
          }
        ],
        "text": {
          "status": "generated",
          "div": "<div xmlns=\"http://www.w3.org/1999/xhtml\"><table class=\"hl7__eu__lab__report\"><tr><th>Test</th><th>27-May-2020</th><th>Reference&#xA0;Range</th><th>Unit</th></tr><tr><td>Calcium [Mass/volume] in Blood</td><td>9.7</td><td>8.5 - 10.4</td><td></td><td>mg/dL</td></tr></table></div>"
        },
        "status": "final",
        "subject": {
          "reference": "urn:uuid:e8c0865f-dda4-4f90-a23e-cb1e54c06cbe",
          "display": "Magdolna Balog"
        },
        "effectiveDateTime": "2020-05-27T13:34:16Z",
        "specimen": {
          "reference": "urn:uuid:25d30ace-102f-460c-876a-be4bf51d9d30"
        }
      }
    },
    {
      "fullUrl": "urn:uuid:ddcc7110-fca4-4373-86cc-dbd63e0fbabe",
      "resource": {
        "resourceType": "Observation",
        "id": "ddcc7110-fca4-4373-86cc-dbd63e0fbabe",
        "meta": {
          "profile": [
            "http://hl7.eu/fhir/laboratory/StructureDefinition/Observation-resultslab-eu-lab"
          ]
        },
        "performer": [
          {
            "display": "The Central European Lab"
          }
        ],
        "category": [
          {
            "coding": [
              {
                "system": "http://terminology.hl7.org/CodeSystem/observation-category",
                "code": "laboratory"
              }
            ]
          }
        ],
        "code": {
          "coding": [
            {
              "code": "2947-0",
              "system": "http://loinc.org",
              "display": "Sodium [Moles/volume] in Blood"
            }
          ],
          "text": "Sodium [Moles/volume] in Blood"
        },
        "valueQuantity": {
          "system": "http://unitsofmeasure.org",
          "value": 137.9,
          "unit": "mmol/L",
          "code": "mmol/L"
        },
        "referenceRange": [
          {
            "low": {
              "value": 135,
              "code": "mmol/L",
              "system": "http://unitsofmeasure.org"
            }
          },
          {
            "high": {
              "value": 145,
              "code": "mmol/L",
              "system": "http://unitsofmeasure.org"
            }
          }
        ],
        "text": {
          "status": "generated",
          "div": "<div xmlns=\"http://www.w3.org/1999/xhtml\"><table class=\"hl7__eu__lab__report\"><tr><th>Test</th><th>27-May-2020</th><th>Reference&#xA0;Range</th><th>Unit</th></tr><tr><td>Sodium [Moles/volume] in Blood</td><td>137.9</td><td>135 - 145</td><td></td><td>mmol/L</td></tr></table></div>"
        },
        "status": "final",
        "subject": {
          "reference": "urn:uuid:e8c0865f-dda4-4f90-a23e-cb1e54c06cbe",
          "display": "Magdolna Balog"
        },
        "effectiveDateTime": "2020-05-27T13:34:16Z",
        "specimen": {
          "reference": "urn:uuid:25d30ace-102f-460c-876a-be4bf51d9d30"
        }
      }
    },
    {
      "fullUrl": "urn:uuid:c38f5264-5c7f-4f58-b1cb-45998b0e9130",
      "resource": {
        "resourceType": "Observation",
        "id": "c38f5264-5c7f-4f58-b1cb-45998b0e9130",
        "meta": {
          "profile": [
            "http://hl7.eu/fhir/laboratory/StructureDefinition/Observation-resultslab-eu-lab"
          ]
        },
        "performer": [
          {
            "display": "The Central European Lab"
          }
        ],
        "category": [
          {
            "coding": [
              {
                "system": "http://terminology.hl7.org/CodeSystem/observation-category",
                "code": "laboratory"
              }
            ]
          }
        ],
        "code": {
          "coding": [
            {
              "code": "6298-4",
              "system": "http://loinc.org",
              "display": "Potassium [Moles/volume] in Blood"
            }
          ],
          "text": "Potassium [Moles/volume] in Blood"
        },
        "valueQuantity": {
          "system": "http://unitsofmeasure.org",
          "value": 5.1,
          "unit": "mmol/L",
          "code": "mmol/L"
        },
        "referenceRange": [
          {
            "low": {
              "value": 3.5,
              "code": "mmol/L",
              "system": "http://unitsofmeasure.org"
            }
          },
          {
            "high": {
              "value": 5.1,
              "code": "mmol/L",
              "system": "http://unitsofmeasure.org"
            }
          }
        ],
        "text": {
          "status": "generated",
          "div": "<div xmlns=\"http://www.w3.org/1999/xhtml\"><table class=\"hl7__eu__lab__report\"><tr><th>Test</th><th>27-May-2020</th><th>Reference&#xA0;Range</th><th>Unit</th></tr><tr><td>Potassium [Moles/volume] in Blood</td><td>5.1</td><td>3.5 - 5.1</td><td></td><td>mmol/L</td></tr></table></div>"
        },
        "status": "final",
        "subject": {
          "reference": "urn:uuid:e8c0865f-dda4-4f90-a23e-cb1e54c06cbe",
          "display": "Magdolna Balog"
        },
        "effectiveDateTime": "2020-05-27T13:34:16Z",
        "specimen": {
          "reference": "urn:uuid:25d30ace-102f-460c-876a-be4bf51d9d30"
        }
      }
    },
    {
      "fullUrl": "urn:uuid:3178b58d-a61f-4852-b7c3-117f4d7aba08",
      "resource": {
        "resourceType": "Observation",
        "id": "3178b58d-a61f-4852-b7c3-117f4d7aba08",
        "meta": {
          "profile": [
            "http://hl7.eu/fhir/laboratory/StructureDefinition/Observation-resultslab-eu-lab"
          ]
        },
        "performer": [
          {
            "display": "The Central European Lab"
          }
        ],
        "category": [
          {
            "coding": [
              {
                "system": "http://terminology.hl7.org/CodeSystem/observation-category",
                "code": "laboratory"
              }
            ]
          }
        ],
        "code": {
          "coding": [
            {
              "code": "2069-3",
              "system": "http://loinc.org",
              "display": "Chloride [Moles/volume] in Blood"
            }
          ],
          "text": "Chloride [Moles/volume] in Blood"
        },
        "valueQuantity": {
          "system": "http://unitsofmeasure.org",
          "value": 104.8,
          "unit": "mmol/L",
          "code": "mmol/L"
        },
        "referenceRange": [
          {
            "low": {
              "value": 98,
              "code": "mmol/L",
              "system": "http://unitsofmeasure.org"
            }
          },
          {
            "high": {
              "value": 107,
              "code": "mmol/L",
              "system": "http://unitsofmeasure.org"
            }
          }
        ],
        "text": {
          "status": "generated",
          "div": "<div xmlns=\"http://www.w3.org/1999/xhtml\"><table class=\"hl7__eu__lab__report\"><tr><th>Test</th><th>27-May-2020</th><th>Reference&#xA0;Range</th><th>Unit</th></tr><tr><td>Chloride [Moles/volume] in Blood</td><td>104.8</td><td>98 - 107</td><td></td><td>mmol/L</td></tr></table></div>"
        },
        "status": "final",
        "subject": {
          "reference": "urn:uuid:e8c0865f-dda4-4f90-a23e-cb1e54c06cbe",
          "display": "Magdolna Balog"
        },
        "effectiveDateTime": "2020-05-27T13:34:16Z",
        "specimen": {
          "reference": "urn:uuid:25d30ace-102f-460c-876a-be4bf51d9d30"
        }
      }
    },
    {
      "fullUrl": "urn:uuid:40073ac3-bb5b-4abb-ad2e-8ef9c3387439",
      "resource": {
        "resourceType": "Observation",
        "id": "40073ac3-bb5b-4abb-ad2e-8ef9c3387439",
        "meta": {
          "profile": [
            "http://hl7.eu/fhir/laboratory/StructureDefinition/Observation-resultslab-eu-lab"
          ]
        },
        "performer": [
          {
            "display": "The Central European Lab"
          }
        ],
        "category": [
          {
            "coding": [
              {
                "system": "http://terminology.hl7.org/CodeSystem/observation-category",
                "code": "laboratory"
              }
            ]
          }
        ],
        "code": {
          "coding": [
            {
              "code": "20565-8",
              "system": "http://loinc.org",
              "display": "Carbon dioxide, total [Moles/volume] in Blood"
            }
          ],
          "text": "Carbon dioxide, total [Moles/volume] in Blood"
        },
        "valueQuantity": {
          "system": "http://unitsofmeasure.org",
          "value": 20.8,
          "unit": "mmol/L",
          "code": "mmol/L"
        },
        "referenceRange": [
          {
            "low": {
              "value": 22,
              "code": "mmol/L",
              "system": "http://unitsofmeasure.org"
            }
          },
          {
            "high": {
              "value": 29,
              "code": "mmol/L",
              "system": "http://unitsofmeasure.org"
            }
          }
        ],
        "interpretation": [
          {
            "coding": [
              {
                "code": "L",
                "system": "http://terminology.hl7.org/CodeSystem/v3-ObservationInterpretation",
                "display": "Low"
              }
            ]
          }
        ],
        "text": {
          "status": "generated",
          "div": "<div xmlns=\"http://www.w3.org/1999/xhtml\"><table class=\"hl7__eu__lab__report\"><tr><th>Test</th><th>27-May-2020</th><th>Reference&#xA0;Range</th><th>Unit</th></tr><tr><td>Carbon dioxide, total [Moles/volume] in Blood</td><td>20.8</td><td>22 - 29</td><td>L</td><td>mmol/L</td></tr></table></div>"
        },
        "status": "final",
        "subject": {
          "reference": "urn:uuid:e8c0865f-dda4-4f90-a23e-cb1e54c06cbe",
          "display": "Magdolna Balog"
        },
        "effectiveDateTime": "2020-05-27T13:34:16Z",
        "specimen": {
          "reference": "urn:uuid:25d30ace-102f-460c-876a-be4bf51d9d30"
        }
      }
    },
    {
      "fullUrl": "urn:uuid:6a8e37d5-993f-48e6-99e8-a1977ae0ef10",
      "resource": {
        "resourceType": "Device",
        "id": "6a8e37d5-993f-48e6-99e8-a1977ae0ef10",
        "deviceName": [
          {
            "name": "SYNDERAI Synthetic Generator",
            "type": "manufacturer-name"
          }
        ],
        "version": [
          {
            "value": "5.0"
          }
        ],
        "text": {
          "status": "generated",
          "div": "<div xmlns=\"http://www.w3.org/1999/xhtml\">SYNDERAI Synthetic Generator v5.0</div>"
        },
        "status": "active\"",
        "distinctIdentifier": "synderai-generator-50",
        "manufacturer": "SYNDERAI Project"
      }
    },
    {
      "fullUrl": "urn:uuid:11610876-a6c6-480f-94a4-f7fd0024147f",
      "resource": {
        "resourceType": "Provenance",
        "id": "11610876-a6c6-480f-94a4-f7fd0024147f",
        "target": [
          {
            "reference": "Patient/e8c0865f-dda4-4f90-a23e-cb1e54c06cbe"
          },
          {
            "reference": "Bundle/ee8321b5-d26b-44af-8b9d-655b9e03e576"
          },
          {
            "reference": "Composition/aa1459a9-9e97-4881-b228-bcf263ccc3d3"
          },
          {
            "reference": "PractitionerRole/c38b7057-16a5-4aef-aeb4-c0f4f8b1e1f5"
          },
          {
            "reference": "Practitioner/2c5f3508-2acb-45bf-93cd-2b342f5cac11"
          },
          {
            "reference": "PractitionerRole/2e022ff4-56d3-45b2-bfcf-2b0a36416b28"
          },
          {
            "reference": "Organization/40577f69-6914-4b17-b5d5-5ca80eb3aa7b"
          }
        ],
        "activity": {
          "text": "Synthetic Example Data Generation"
        },
        "policy": [
          "https://synderai.net/synderai-synthetic-data-policy"
        ],
        "agent": [
          {
            "type": {
              "text": "author"
            },
            "who": {
              "reference": "Device/6a8e37d5-993f-48e6-99e8-a1977ae0ef10"
            }
          }
        ],
        "reason": [
          {
            "text": "Interoperability Testing and Training (non-clinical use)"
          }
        ],
        "text": {
          "status": "generated",
          "div": "<div xmlns=\"http://www.w3.org/1999/xhtml\">Provenance for SYNDERAI Synthetic Example Data Resource</div>"
        },
        "recorded": "2020-05-27T15:34:16Z"
      }
    },
    {
      "fullUrl": "urn:uuid:c38b7057-16a5-4aef-aeb4-c0f4f8b1e1f5",
      "resource": {
        "resourceType": "PractitionerRole",
        "id": "c38b7057-16a5-4aef-aeb4-c0f4f8b1e1f5",
        "meta": {
          "profile": [
            "http://hl7.eu/fhir/base/StructureDefinition/practitionerRole-eu"
          ]
        },
        "text": {
          "status": "generated",
          "div": "<div xmlns=\"http://www.w3.org/1999/xhtml\">Laboratory Role Id: c38b7057-16a5-4aef-aeb4-c0f4f8b1e1f5</div>"
        },
        "practitioner": {
          "reference": "urn:uuid:2c5f3508-2acb-45bf-93cd-2b342f5cac11"
        }
      }
    },
    {
      "fullUrl": "urn:uuid:2c5f3508-2acb-45bf-93cd-2b342f5cac11",
      "resource": {
        "resourceType": "Practitioner",
        "id": "2c5f3508-2acb-45bf-93cd-2b342f5cac11",
        "meta": {
          "profile": [
            "http://hl7.eu/fhir/base/StructureDefinition/practitioner-eu"
          ]
        },
        "identifier": [
          {
            "assigner": {
              "display": "HL7 Europe"
            },
            "system": "urn:oid:2.16.840.1.113883.2.51.999",
            "value": "e587bf06-e724-4fc9-b1ab-d6be5b9c0a1c"
          }
        ],
        "name": [
          {
            "prefix": [
              "dr"
            ],
            "given": [
              "Ex"
            ],
            "family": "Ample"
          }
        ],
        "address": [
          {
            "line": [
              "Laboratoire Central Européenne",
              "Boulevard du Jardin Botanique 32"
            ],
            "postalCode": "1000",
            "city": "Brussels",
            "country": "Belgium"
          }
        ],
        "text": {
          "status": "generated",
          "div": "<div xmlns=\"http://www.w3.org/1999/xhtml\">Laboratory: Laboratoire Central Européenne, 1000 Brussels, Belgium</div>"
        }
      }
    }
  ],
  "type": "document",
  "timestamp": "2020-05-27T15:34:16Z"
}
