{
  "resourceType": "Bundle",
  "id": "fe2ef50f-5271-4688-93c8-d2631b8a8989",
  "meta": {
    "profile": [
      "http://hl7.eu/fhir/laboratory/StructureDefinition/Bundle-eu-lab"
    ]
  },
  "identifier": {
    "assigner": {
      "display": "HL7 Europe"
    },
    "system": "urn:oid:2.16.840.1.113883.2.51.999",
    "value": "4527e43a-abaf-41b6-8686-73581457f020"
  },
  "entry": [
    {
      "fullUrl": "urn:uuid:987995a5-4830-4047-8939-97c521579d2d",
      "resource": {
        "resourceType": "Composition",
        "id": "987995a5-4830-4047-8939-97c521579d2d",
        "meta": {
          "profile": [
            "http://hl7.eu/fhir/laboratory/StructureDefinition/Composition-eu-lab"
          ]
        },
        "identifier": {
          "assigner": {
            "display": "HL7 Europe"
          },
          "system": "urn:oid:2.16.840.1.113883.2.51.999",
          "value": "5c8f54c8-9b10-444d-9f95-5ce80e96e64b"
        },
        "author": [
          {
            "reference": "urn:uuid:8167ab75-5fb8-4416-aa06-ba1b2b1b8ad6"
          }
        ],
        "category": [
          {
            "coding": [
              {
                "code": "26436-6",
                "system": "http://loinc.org",
                "display": "Laboratory studies (set)"
              }
            ]
          }
        ],
        "type": {
          "coding": [
            {
              "code": "11502-2",
              "system": "http://loinc.org",
              "display": "Laboratory report"
            }
          ],
          "text": "Laboratory Report"
        },
        "section": [
          {
            "code": {
              "coding": [
                {
                  "code": "26436-6",
                  "system": "http://loinc.org",
                  "display": "Laboratory studies (set)"
                }
              ],
              "text": "Laboratory studies"
            },
            "section": [
              {
                "code": {
                  "coding": [
                    {
                      "code": "$18719-5",
                      "system": "http://loinc.org",
                      "display": "Chemistry studies (set)"
                    }
                  ],
                  "text": "Chemistry"
                },
                "entry": [
                  {
                    "reference": "urn:uuid:b7cb2b1c-d6b2-496c-af35-6220151e0ca1"
                  },
                  {
                    "reference": "urn:uuid:46bffed7-9e38-4faf-9791-6bb4ab5532de"
                  },
                  {
                    "reference": "urn:uuid:cc6b0932-e4db-4ffa-af7f-e7bfdbbf07cb"
                  },
                  {
                    "reference": "urn:uuid:f3f86d33-99a1-4a92-8f6b-5b096066fd31"
                  },
                  {
                    "reference": "urn:uuid:d928ac31-c69b-4390-ba03-4bd6fe6a4a9b"
                  },
                  {
                    "reference": "urn:uuid:9485e72b-dbaf-41c7-bd44-c92a72ededdd"
                  },
                  {
                    "reference": "urn:uuid:05e7dd28-bb05-4355-a435-a7572a6a3df6"
                  },
                  {
                    "reference": "urn:uuid:55019ec4-4e83-4f1a-908f-a9bcfac11ab9"
                  },
                  {
                    "reference": "urn:uuid:1ae16654-7c9b-45ee-8875-e63de5e8c446"
                  },
                  {
                    "reference": "urn:uuid:49c27105-cf8d-4e39-98e3-215b7e4919d2"
                  },
                  {
                    "reference": "urn:uuid:7a02cfa0-1639-4845-99a5-90b8c4e24b6d"
                  },
                  {
                    "reference": "urn:uuid:4f96d1f4-ee9a-4e76-aa0e-f461030182a8"
                  },
                  {
                    "reference": "urn:uuid:366b00b9-842e-44ec-9a58-727ab6592add"
                  },
                  {
                    "reference": "urn:uuid:57b71d0c-cb8a-4c20-aa3e-79dbf0535541"
                  },
                  {
                    "reference": "urn:uuid:b058230e-76a0-4b61-8bb1-7e9852c957b0"
                  },
                  {
                    "reference": "urn:uuid:29137d55-382c-486c-9001-e42808b1e938"
                  },
                  {
                    "reference": "urn:uuid:573b6e6a-5922-497c-ba28-20ce918afbde"
                  },
                  {
                    "reference": "urn:uuid:013b5c64-66e3-4f15-8434-d5d521de2905"
                  }
                ],
                "text": {
                  "status": "generated",
                  "div": "<div xmlns=\"http://www.w3.org/1999/xhtml\"><h3>Chemistry</h3><table class=\"hl7__eu__lab__report\"><thead><tr><th>Test</th><th>01-NOV-2021</th><th>Reference&#xA0;Range</th><th>Unit</th></tr></thead><tbody><tr><td>Glucose [Mass/volume] in Serum or Plasma</td><td>82.2</td><td>70 - 99</td><td>mg/dL</td></tr><tr><td>Urea nitrogen [Mass/volume] in Serum or Plasma</td><td>15.3</td><td>7 - 50</td><td>mg/dL</td></tr><tr><td>Creatinine [Mass/volume] in Serum or Plasma</td><td><strong>2.0 H</strong></td><td>0.6 - 1.1</td><td>mg/dL</td></tr><tr><td>Calcium [Mass/volume] in Serum or Plasma</td><td>10.2</td><td>8.6 - 10.4</td><td>mg/dL</td></tr><tr><td>Sodium [Moles/volume] in Serum or Plasma</td><td>141.8</td><td>135 - 145</td><td>mmol/L</td></tr><tr><td>Potassium [Moles/volume] in Serum or Plasma</td><td>4.6</td><td>3.5 - 5.1</td><td>mmol/L</td></tr><tr><td>Chloride [Moles/volume] in Serum or Plasma</td><td><strong>109.0 H</strong></td><td>98 - 108</td><td>mmol/L</td></tr><tr><td>Carbon dioxide, total [Moles/volume] in Serum or Plasma</td><td>24.1</td><td>22 - 32</td><td>mmol/L</td></tr><tr><td>Ketones [Presence] in Urine by Test strip</td><td>Urine ketone test = ++</td><td></td><td></td></tr><tr><td>Hemoglobin A1c/Hemoglobin.total in Blood</td><td><strong>2.9 L</strong></td><td>4 - 6.4</td><td>%</td></tr><tr><td>Glucose [Mass/volume] in Blood</td><td>82.2</td><td>70 - 100</td><td>mg/dL</td></tr><tr><td>Urea nitrogen [Mass/volume] in Blood</td><td>15.3</td><td>7 - 43</td><td>mg/dL</td></tr><tr><td>Creatinine [Mass/volume] in Blood</td><td><strong>3.0 H</strong></td><td>0.6 - 1.1</td><td>mg/dL</td></tr><tr><td>Calcium [Mass/volume] in Blood</td><td>10.2</td><td>8.5 - 10.5</td><td>mg/dL</td></tr><tr><td>Sodium [Moles/volume] in Blood</td><td>141.8</td><td>135 - 145</td><td>mmol/L</td></tr><tr><td>Potassium [Moles/volume] in Blood</td><td>4.6</td><td>3.5 - 5.1</td><td>mmol/L</td></tr><tr><td>Chloride [Moles/volume] in Blood</td><td><strong>109.0 H</strong></td><td>98 - 108</td><td>mmol/L</td></tr><tr><td>Carbon dioxide, total [Moles/volume] in Blood</td><td>24.1</td><td>22 - 29</td><td>mmol/L</td></tr></tbody></table></div>"
                },
                "title": "Chemistry"
              },
              {
                "code": {
                  "coding": [
                    {
                      "code": "$18729-4",
                      "system": "http://loinc.org",
                      "display": "Urinalysis studies (set)"
                    }
                  ],
                  "text": "Urinalysis"
                },
                "entry": [
                  {
                    "reference": "urn:uuid:6e00a47e-b256-4a20-80fa-1f6cac8e651b"
                  },
                  {
                    "reference": "urn:uuid:aed857a6-961e-447d-b112-71505bb23ed4"
                  },
                  {
                    "reference": "urn:uuid:5380e2af-658d-4e43-874f-ba9ae933bd06"
                  },
                  {
                    "reference": "urn:uuid:6a3d6cf4-d8cf-48db-9a0d-55ac33b1ac70"
                  },
                  {
                    "reference": "urn:uuid:03bfbf93-6cfa-4341-b333-bcba1bbed51c"
                  },
                  {
                    "reference": "urn:uuid:282d30d9-2777-4f73-8144-508025e9d277"
                  },
                  {
                    "reference": "urn:uuid:ebdf5e00-bed0-41ea-8861-ff0dd61d6dc8"
                  },
                  {
                    "reference": "urn:uuid:50145f41-0e72-49cf-9a36-1d0c31e2b0da"
                  },
                  {
                    "reference": "urn:uuid:b2b35706-fdaa-46a8-a4b6-65901200ed29"
                  },
                  {
                    "reference": "urn:uuid:5c3b1840-9b0b-48e3-aaf7-9b7bc616ce5f"
                  },
                  {
                    "reference": "urn:uuid:b19bc28d-50d7-4257-b3f9-c73be7e595be"
                  },
                  {
                    "reference": "urn:uuid:25aceafc-2db1-4f06-9e46-bc25ae377958"
                  }
                ],
                "text": {
                  "status": "generated",
                  "div": "<div xmlns=\"http://www.w3.org/1999/xhtml\"><h3>Urinalysis</h3><table class=\"hl7__eu__lab__report\"><thead><tr><th>Test</th><th>01-NOV-2021</th><th>Reference&#xA0;Range</th><th>Unit</th></tr></thead><tbody><tr><td>Glucose [Mass/volume] in Urine by Test strip</td><td><strong>1.3 H</strong></td><td>0.8 - 0</td><td>mg/dL</td></tr><tr><td>Glucose [Presence] in Urine by Test strip</td><td>++</td><td></td><td></td></tr><tr><td>Bilirubin.total [Mass/volume] in Urine by Test strip</td><td><strong>1.3 H</strong></td><td>0 - 1</td><td>mg/dL</td></tr><tr><td>Bilirubin.total [Presence] in Urine by Test strip</td><td>Finding of bilirubin in urine</td><td></td><td></td></tr><tr><td>Ketones [Mass/volume] in Urine by Test strip</td><td><strong>17.1 H</strong></td><td>0 - 4</td><td>mg/dL</td></tr><tr><td>Specific gravity of Urine by Test strip</td><td><strong>1.0 L</strong></td><td>1.005 - 1.03</td><td>{nominal}</td></tr><tr><td>pH of Urine by Test strip</td><td>6.3</td><td>4.6 - 7</td><td>pH</td></tr><tr><td>Protein [Mass/volume] in Urine by Test strip</td><td><strong>288.1 H</strong></td><td>0 - 14</td><td>mg/dL</td></tr><tr><td>Protein [Presence] in Urine by Test strip</td><td>Urine protein test = ++</td><td></td><td></td></tr><tr><td>Nitrite [Presence] in Urine by Test strip</td><td>Urine nitrite negative</td><td></td><td></td></tr><tr><td>Hemoglobin [Presence] in Urine by Test strip</td><td>Urine blood test = negative</td><td></td><td></td></tr><tr><td>Leukocyte esterase [Presence] in Urine by Test strip</td><td>Urine leukocyte test negative</td><td></td><td></td></tr></tbody></table></div>"
                },
                "title": "Urinalysis"
              },
              {
                "code": {
                  "coding": [
                    {
                      "code": "$LP7846-1",
                      "system": "http://loinc.org",
                      "display": "Specimen information"
                    }
                  ],
                  "text": "Specimen information"
                },
                "entry": [
                  {
                    "reference": "urn:uuid:49227459-bebe-4c9a-a3b6-913b7256267e"
                  },
                  {
                    "reference": "urn:uuid:662ef44b-8597-42e3-89a2-35a5066197cb"
                  },
                  {
                    "reference": "urn:uuid:8023822d-a162-4edf-9a58-dbb242721f8c"
                  },
                  {
                    "reference": "urn:uuid:a1ef4aa9-c7a7-4c45-aa85-e71ddaf36c83"
                  }
                ],
                "text": {
                  "status": "generated",
                  "div": "<div xmlns=\"http://www.w3.org/1999/xhtml\"><h3>Specimen information</h3><table class=\"hl7__eu__lab__report\"><thead><tr><th>Test</th><th>01-NOV-2021</th><th>Specimen</th><th></th></tr></thead><tbody><tr><td>Appearance of Urine</td><td>Cloudy urine</td><td>Urine</td><td></td></tr><tr><td>Odor of Urine</td><td>Urine smell ammoniacal</td><td>Urine</td><td></td></tr><tr><td>Clarity of Urine</td><td>Translucent</td><td>Urine</td><td></td></tr><tr><td>Color of Urine</td><td>Brown color</td><td>Urine</td><td></td></tr></tbody></table></div>"
                },
                "title": "Specimen information"
              }
            ],
            "title": "Laboratory Report"
          },
          {
            "text": {
              "status": "generated",
              "div": "<div xmlns=\"http://www.w3.org/1999/xhtml\"><h3>Annotation</h3><table class=\"hl7__eu__lab__report\"><tr><th>Conclusion and Recommendations based on this report and previous findings known to us</th></tr><tr><td>The patient shows significantly elevated creatinine, proteinuria, glucosuria, ketonuria, and bilirubinuria, with low urine specific gravity and low HbA1c. These findings suggest impaired renal function, possible nephrotic syndrome, and abnormal glucose/ketone handling not explained by diabetes. Urine appearance and color are abnormal, but no evidence of infection. Further nephrological evaluation and assessment for underlying metabolic or hepatic disorders are recommended.</td></tr></table></div>"
            },
            "code": {
              "coding": [
                {
                  "system": "http://loinc.org",
                  "code": "48767-8",
                  "display": "Annotation comment"
                }
              ]
            },
            "title": "Annotation comment"
          }
        ],
        "status": "final",
        "subject": {
          "reference": "urn:uuid:99e7935c-d836-4ea9-9547-ef91399b010f",
          "display": "Meaghan Neary"
        },
        "date": "2021-11-01T23:11:04Z",
        "title": "Laboratory Report",
        "confidentiality": "N"
      }
    },
    {
      "fullUrl": "urn:uuid:b86cc853-3d23-421a-811b-3639e0bdb3a0",
      "resource": {
        "resourceType": "DiagnosticReport",
        "id": "b86cc853-3d23-421a-811b-3639e0bdb3a0",
        "meta": {
          "profile": [
            "http://hl7.eu/fhir/laboratory/StructureDefinition/DiagnosticReport-eu-lab"
          ]
        },
        "identifier": [
          {
            "assigner": {
              "display": "HL7 Europe"
            },
            "system": "urn:oid:2.16.840.1.113883.2.51.999",
            "value": "35161826-4977-4525-80b2-2e156b04c4de"
          }
        ],
        "extension": [
          {
            "url": "http://hl7.org/fhir/5.0/StructureDefinition/extension-DiagnosticReport.composition",
            "valueReference": {
              "reference": "urn:uuid:5c8f54c8-9b10-444d-9f95-5ce80e96e64b"
            }
          }
        ],
        "category": [
          {
            "coding": [
              {
                "code": "26436-6",
                "system": "http://loinc.org",
                "display": "Laboratory studies (set)"
              }
            ]
          }
        ],
        "specimen": [
          {
            "reference": "urn:uuid:b1fee0ad-5768-4d5f-aac3-795efffd28d0"
          },
          {
            "reference": "urn:uuid:8360915e-4520-4bff-bf95-1322f17bf14f"
          },
          {
            "reference": "urn:uuid:a2d4b116-e13f-49cf-888f-daf8e391d840"
          }
        ],
        "result": [
          {
            "reference": "urn:uuid:b7cb2b1c-d6b2-496c-af35-6220151e0ca1"
          },
          {
            "reference": "urn:uuid:46bffed7-9e38-4faf-9791-6bb4ab5532de"
          },
          {
            "reference": "urn:uuid:cc6b0932-e4db-4ffa-af7f-e7bfdbbf07cb"
          },
          {
            "reference": "urn:uuid:f3f86d33-99a1-4a92-8f6b-5b096066fd31"
          },
          {
            "reference": "urn:uuid:d928ac31-c69b-4390-ba03-4bd6fe6a4a9b"
          },
          {
            "reference": "urn:uuid:9485e72b-dbaf-41c7-bd44-c92a72ededdd"
          },
          {
            "reference": "urn:uuid:05e7dd28-bb05-4355-a435-a7572a6a3df6"
          },
          {
            "reference": "urn:uuid:55019ec4-4e83-4f1a-908f-a9bcfac11ab9"
          },
          {
            "reference": "urn:uuid:49227459-bebe-4c9a-a3b6-913b7256267e"
          },
          {
            "reference": "urn:uuid:662ef44b-8597-42e3-89a2-35a5066197cb"
          },
          {
            "reference": "urn:uuid:8023822d-a162-4edf-9a58-dbb242721f8c"
          },
          {
            "reference": "urn:uuid:a1ef4aa9-c7a7-4c45-aa85-e71ddaf36c83"
          },
          {
            "reference": "urn:uuid:6e00a47e-b256-4a20-80fa-1f6cac8e651b"
          },
          {
            "reference": "urn:uuid:aed857a6-961e-447d-b112-71505bb23ed4"
          },
          {
            "reference": "urn:uuid:5380e2af-658d-4e43-874f-ba9ae933bd06"
          },
          {
            "reference": "urn:uuid:6a3d6cf4-d8cf-48db-9a0d-55ac33b1ac70"
          },
          {
            "reference": "urn:uuid:03bfbf93-6cfa-4341-b333-bcba1bbed51c"
          },
          {
            "reference": "urn:uuid:1ae16654-7c9b-45ee-8875-e63de5e8c446"
          },
          {
            "reference": "urn:uuid:282d30d9-2777-4f73-8144-508025e9d277"
          },
          {
            "reference": "urn:uuid:ebdf5e00-bed0-41ea-8861-ff0dd61d6dc8"
          },
          {
            "reference": "urn:uuid:50145f41-0e72-49cf-9a36-1d0c31e2b0da"
          },
          {
            "reference": "urn:uuid:b2b35706-fdaa-46a8-a4b6-65901200ed29"
          },
          {
            "reference": "urn:uuid:5c3b1840-9b0b-48e3-aaf7-9b7bc616ce5f"
          },
          {
            "reference": "urn:uuid:b19bc28d-50d7-4257-b3f9-c73be7e595be"
          },
          {
            "reference": "urn:uuid:25aceafc-2db1-4f06-9e46-bc25ae377958"
          },
          {
            "reference": "urn:uuid:49c27105-cf8d-4e39-98e3-215b7e4919d2"
          },
          {
            "reference": "urn:uuid:7a02cfa0-1639-4845-99a5-90b8c4e24b6d"
          },
          {
            "reference": "urn:uuid:4f96d1f4-ee9a-4e76-aa0e-f461030182a8"
          },
          {
            "reference": "urn:uuid:366b00b9-842e-44ec-9a58-727ab6592add"
          },
          {
            "reference": "urn:uuid:57b71d0c-cb8a-4c20-aa3e-79dbf0535541"
          },
          {
            "reference": "urn:uuid:b058230e-76a0-4b61-8bb1-7e9852c957b0"
          },
          {
            "reference": "urn:uuid:29137d55-382c-486c-9001-e42808b1e938"
          },
          {
            "reference": "urn:uuid:573b6e6a-5922-497c-ba28-20ce918afbde"
          },
          {
            "reference": "urn:uuid:013b5c64-66e3-4f15-8434-d5d521de2905"
          }
        ],
        "status": "registered",
        "code": {
          "coding": [
            {
              "code": "11502-2",
              "system": "http://loinc.org",
              "display": "Laboratory report"
            }
          ]
        },
        "subject": {
          "reference": "urn:uuid:99e7935c-d836-4ea9-9547-ef91399b010f",
          "display": "Meaghan Neary"
        }
      }
    },
    {
      "fullUrl": "urn:uuid:99e7935c-d836-4ea9-9547-ef91399b010f",
      "resource": {
        "resourceType": "Patient",
        "id": "99e7935c-d836-4ea9-9547-ef91399b010f",
        "meta": {
          "security": [
            {
              "system": "http://terminology.hl7.org/CodeSystem/v3-ActReason",
              "code": "HTEST"
            },
            {
              "system": "http://terminology.hl7.org/CodeSystem/v3-ActReason",
              "code": "TRAIN"
            }
          ],
          "tag": [
            {
              "system": "https://synderai.net/fhir/CodeSystem/tags",
              "code": "synthetic",
              "display": "SYNDERAI Synthetic data"
            }
          ],
          "profile": [
            "http://hl7.eu/fhir/base/StructureDefinition/patient-eu-core"
          ]
        },
        "identifier": [
          {
            "type": {
              "coding": [
                {
                  "code": "PT",
                  "system": "http://terminology.hl7.org/CodeSystem/v2-0203"
                }
              ]
            },
            "system": "http://ec.europa.eu/identifier/eci",
            "value": "1586-567257-8"
          },
          {
            "type": {
              "coding": [
                {
                  "code": "MR",
                  "system": "http://terminology.hl7.org/CodeSystem/v2-0203"
                }
              ]
            },
            "system": "http://local.setting.eu/identifier",
            "value": "443e6379-f231-b364-3ccb-644740a1aa2a"
          }
        ],
        "name": [
          {
            "family": "Neary"
          },
          {
            "given": [
              "Meaghan"
            ]
          },
          {
            "text": "Meaghan Neary"
          }
        ],
        "address": [
          {
            "line": [
              "64 Linskey Street"
            ],
            "use": "home",
            "type": "physical",
            "postalCode": "D02",
            "city": "Dublin",
            "country": "Ireland"
          }
        ],
        "telecom": [
          {
            "system": "phone",
            "value": "001-967-573-0911x465"
          }
        ],
        "extension": [
          {
            "url": "http://hl7.org/fhir/StructureDefinition/patient-nationality",
            "valueCodeableConcept": {
              "coding": [
                {
                  "code": "IE",
                  "system": "http://hl7.org/fhir/ValueSet/country"
                }
              ]
            }
          }
        ],
        "text": {
          "status": "generated",
          "div": "<div xmlns=\"http://www.w3.org/1999/xhtml\"><table class=\"hl7__ips\"><tr><td>Meaghan Neary</td><td>female</td><td>19-Dec-1960</td></tr></table></div>"
        },
        "gender": "female",
        "birthDate": "1960-12-19"
      }
    },
    {
      "fullUrl": "urn:uuid:5d4bee83-f6ed-4189-85b8-befb3216bd66",
      "resource": {
        "resourceType": "ServiceRequest",
        "id": "5d4bee83-f6ed-4189-85b8-befb3216bd66",
        "meta": {
          "profile": [
            "http://hl7.eu/fhir/laboratory/StructureDefinition/ServiceRequest-eu-lab"
          ]
        },
        "identifier": [
          {
            "system": "http://example.org",
            "value": "ed5becda-126b-4d14-8c1b-92e639b1a454"
          }
        ],
        "specimen": [
          {
            "reference": "urn:uuid:b1fee0ad-5768-4d5f-aac3-795efffd28d0"
          },
          {
            "reference": "urn:uuid:8360915e-4520-4bff-bf95-1322f17bf14f"
          },
          {
            "reference": "urn:uuid:a2d4b116-e13f-49cf-888f-daf8e391d840"
          }
        ],
        "reasonCode": [
          {
            "coding": [
              {
                "code": "55822004",
                "system": "http://snomed.info/sct",
                "display": "Hyperlipidemia"
              }
            ]
          },
          {
            "coding": [
              {
                "code": "433144002",
                "system": "http://snomed.info/sct",
                "display": "Chronic kidney disease stage 3"
              }
            ]
          },
          {
            "coding": [
              {
                "code": "157141000119108",
                "system": "http://snomed.info/sct",
                "display": "Proteinuria due to type 2 diabetes mellitus"
              }
            ]
          },
          {
            "coding": [
              {
                "code": "431856006",
                "system": "http://snomed.info/sct",
                "display": "Chronic kidney disease stage 2"
              }
            ]
          },
          {
            "coding": [
              {
                "code": "90781000119102",
                "system": "http://snomed.info/sct",
                "display": "Microalbuminuria due to type 2 diabetes mellitus"
              }
            ]
          },
          {
            "coding": [
              {
                "code": "127013003",
                "system": "http://snomed.info/sct",
                "display": "Disorder of kidney due to diabetes mellitus"
              }
            ]
          },
          {
            "coding": [
              {
                "code": "431855005",
                "system": "http://snomed.info/sct",
                "display": "Chronic kidney disease stage 1"
              }
            ]
          },
          {
            "coding": [
              {
                "code": "237602007",
                "system": "http://snomed.info/sct",
                "display": "Metabolic syndrome X"
              }
            ]
          },
          {
            "coding": [
              {
                "code": "271737000",
                "system": "http://snomed.info/sct",
                "display": "Anemia"
              }
            ]
          },
          {
            "coding": [
              {
                "code": "15777000",
                "system": "http://snomed.info/sct",
                "display": "Prediabetes"
              }
            ]
          },
          {
            "coding": [
              {
                "code": "59621000",
                "system": "http://snomed.info/sct",
                "display": "Essential hypertension"
              }
            ]
          }
        ],
        "status": "active",
        "intent": "order",
        "code": {
          "coding": [
            {
              "code": "108252007",
              "system": "http://snomed.info/sct",
              "display": "Laboratory procedure"
            }
          ]
        },
        "subject": {
          "reference": "urn:uuid:99e7935c-d836-4ea9-9547-ef91399b010f",
          "display": "Meaghan Neary"
        },
        "requester": {
          "reference": "urn:uuid:28456c48-e902-4f18-9b81-771a95577b64"
        }
      }
    },
    {
      "fullUrl": "urn:uuid:28456c48-e902-4f18-9b81-771a95577b64",
      "resource": {
        "resourceType": "PractitionerRole",
        "id": "28456c48-e902-4f18-9b81-771a95577b64",
        "meta": {
          "profile": [
            "http://hl7.eu/fhir/base/StructureDefinition/practitionerRole-eu"
          ]
        },
        "text": {
          "status": "generated",
          "div": "<div xmlns=\"http://www.w3.org/1999/xhtml\">Provider Role Id: 28456c48-e902-4f18-9b81-771a95577b64</div>"
        },
        "organization": {
          "reference": "urn:uuid:f744ae91-22bd-4630-92fa-878546d3a1e7"
        }
      }
    },
    {
      "fullUrl": "urn:uuid:f744ae91-22bd-4630-92fa-878546d3a1e7",
      "resource": {
        "resourceType": "Organization",
        "id": "f744ae91-22bd-4630-92fa-878546d3a1e7",
        "meta": {
          "profile": [
            "http://hl7.eu/fhir/base/StructureDefinition/organization-eu"
          ]
        },
        "identifier": [
          {
            "assigner": {
              "display": "HL7 Europe"
            },
            "system": "urn:oid:2.16.840.1.113883.2.51.999",
            "value": "d83ccae4-b56b-4d90-9f65-09964326470f"
          }
        ],
        "address": [
          {
            "line": [
              "Parnell Square West nan"
            ],
            "city": "Dublin",
            "postalCode": "D01",
            "country": "Ireland"
          }
        ],
        "text": {
          "status": "generated",
          "div": "<div xmlns=\"http://www.w3.org/1999/xhtml\">Provider Organization: Rotunda Hospital</div>"
        },
        "name": "Rotunda Hospital"
      }
    },
    {
      "fullUrl": "urn:uuid:b1fee0ad-5768-4d5f-aac3-795efffd28d0",
      "resource": {
        "resourceType": "Specimen",
        "id": "b1fee0ad-5768-4d5f-aac3-795efffd28d0",
        "meta": {
          "profile": [
            "http://hl7.eu/fhir/laboratory/StructureDefinition/Specimen-eu-lab"
          ]
        },
        "collection": {
          "collectedDateTime": "2021-11-01"
        },
        "text": {
          "status": "generated",
          "div": "<div xmlns=\"http://www.w3.org/1999/xhtml\"><table class=\"hl7__eu__lab__report\"><tr><th>Specimen</th><th>Collection Date</th></tr><tr><td>Acellular blood (serum or plasma) specimen</td><td><span class=\"nb\">01-Nov-2021</span></td></tr></table></div>"
        },
        "type": {
          "coding": [
            {
              "code": "122592007",
              "system": "http://snomed.info/sct",
              "display": "Acellular blood (serum or plasma) specimen"
            }
          ]
        }
      }
    },
    {
      "fullUrl": "urn:uuid:8360915e-4520-4bff-bf95-1322f17bf14f",
      "resource": {
        "resourceType": "Specimen",
        "id": "8360915e-4520-4bff-bf95-1322f17bf14f",
        "meta": {
          "profile": [
            "http://hl7.eu/fhir/laboratory/StructureDefinition/Specimen-eu-lab"
          ]
        },
        "collection": {
          "collectedDateTime": "2021-11-01"
        },
        "text": {
          "status": "generated",
          "div": "<div xmlns=\"http://www.w3.org/1999/xhtml\"><table class=\"hl7__eu__lab__report\"><tr><th>Specimen</th><th>Collection Date</th></tr><tr><td>Urine specimen</td><td><span class=\"nb\">01-Nov-2021</span></td></tr></table></div>"
        },
        "type": {
          "coding": [
            {
              "code": "122575003",
              "system": "http://snomed.info/sct",
              "display": "Urine specimen"
            }
          ]
        }
      }
    },
    {
      "fullUrl": "urn:uuid:a2d4b116-e13f-49cf-888f-daf8e391d840",
      "resource": {
        "resourceType": "Specimen",
        "id": "a2d4b116-e13f-49cf-888f-daf8e391d840",
        "meta": {
          "profile": [
            "http://hl7.eu/fhir/laboratory/StructureDefinition/Specimen-eu-lab"
          ]
        },
        "collection": {
          "collectedDateTime": "2021-11-01"
        },
        "text": {
          "status": "generated",
          "div": "<div xmlns=\"http://www.w3.org/1999/xhtml\"><table class=\"hl7__eu__lab__report\"><tr><th>Specimen</th><th>Collection Date</th></tr><tr><td>Whole blood specimen (specimen)</td><td><span class=\"nb\">01-Nov-2021</span></td></tr></table></div>"
        },
        "type": {
          "coding": [
            {
              "code": "258580003",
              "system": "http://snomed.info/sct",
              "display": "Whole blood specimen (specimen)"
            }
          ]
        }
      }
    },
    {
      "fullUrl": "urn:uuid:b7cb2b1c-d6b2-496c-af35-6220151e0ca1",
      "resource": {
        "resourceType": "Observation",
        "id": "b7cb2b1c-d6b2-496c-af35-6220151e0ca1",
        "meta": {
          "profile": [
            "http://hl7.eu/fhir/laboratory/StructureDefinition/Observation-resultslab-eu-lab"
          ]
        },
        "performer": [
          {
            "display": "The Central European Lab"
          }
        ],
        "category": [
          {
            "coding": [
              {
                "system": "http://terminology.hl7.org/CodeSystem/observation-category",
                "code": "laboratory"
              }
            ]
          }
        ],
        "code": {
          "coding": [
            {
              "code": "2345-7",
              "system": "http://loinc.org",
              "display": "Glucose [Mass/volume] in Serum or Plasma"
            }
          ],
          "text": "Glucose [Mass/volume] in Serum or Plasma"
        },
        "valueQuantity": {
          "system": "http://unitsofmeasure.org",
          "value": 82.2,
          "unit": "mg/dL",
          "code": "mg/dL"
        },
        "referenceRange": [
          {
            "low": {
              "value": 70,
              "code": "mg/dL",
              "system": "http://unitsofmeasure.org"
            }
          },
          {
            "high": {
              "value": 99,
              "code": "mg/dL",
              "system": "http://unitsofmeasure.org"
            }
          }
        ],
        "text": {
          "status": "generated",
          "div": "<div xmlns=\"http://www.w3.org/1999/xhtml\"><table class=\"hl7__eu__lab__report\"><tr><th>Test</th><th>01-Nov-2021</th><th>Reference&#xA0;Range</th><th>Unit</th></tr><tr><td>Glucose [Mass/volume] in Serum or Plasma</td><td>82.2</td><td>70 - 99</td><td></td><td>mg/dL</td></tr></table></div>"
        },
        "status": "final",
        "subject": {
          "reference": "urn:uuid:99e7935c-d836-4ea9-9547-ef91399b010f",
          "display": "Meaghan Neary"
        },
        "effectiveDateTime": "2021-11-01T22:11:04Z",
        "specimen": {
          "reference": "urn:uuid:b1fee0ad-5768-4d5f-aac3-795efffd28d0"
        }
      }
    },
    {
      "fullUrl": "urn:uuid:46bffed7-9e38-4faf-9791-6bb4ab5532de",
      "resource": {
        "resourceType": "Observation",
        "id": "46bffed7-9e38-4faf-9791-6bb4ab5532de",
        "meta": {
          "profile": [
            "http://hl7.eu/fhir/laboratory/StructureDefinition/Observation-resultslab-eu-lab"
          ]
        },
        "performer": [
          {
            "display": "The Central European Lab"
          }
        ],
        "category": [
          {
            "coding": [
              {
                "system": "http://terminology.hl7.org/CodeSystem/observation-category",
                "code": "laboratory"
              }
            ]
          }
        ],
        "code": {
          "coding": [
            {
              "code": "3094-0",
              "system": "http://loinc.org",
              "display": "Urea nitrogen [Mass/volume] in Serum or Plasma"
            }
          ],
          "text": "Urea nitrogen [Mass/volume] in Serum or Plasma"
        },
        "valueQuantity": {
          "system": "http://unitsofmeasure.org",
          "value": 15.3,
          "unit": "mg/dL",
          "code": "mg/dL"
        },
        "referenceRange": [
          {
            "low": {
              "value": 7,
              "code": "mg/dL",
              "system": "http://unitsofmeasure.org"
            }
          },
          {
            "high": {
              "value": 50,
              "code": "mg/dL",
              "system": "http://unitsofmeasure.org"
            }
          }
        ],
        "text": {
          "status": "generated",
          "div": "<div xmlns=\"http://www.w3.org/1999/xhtml\"><table class=\"hl7__eu__lab__report\"><tr><th>Test</th><th>01-Nov-2021</th><th>Reference&#xA0;Range</th><th>Unit</th></tr><tr><td>Urea nitrogen [Mass/volume] in Serum or Plasma</td><td>15.3</td><td>7 - 50</td><td></td><td>mg/dL</td></tr></table></div>"
        },
        "status": "final",
        "subject": {
          "reference": "urn:uuid:99e7935c-d836-4ea9-9547-ef91399b010f",
          "display": "Meaghan Neary"
        },
        "effectiveDateTime": "2021-11-01T22:11:04Z",
        "specimen": {
          "reference": "urn:uuid:b1fee0ad-5768-4d5f-aac3-795efffd28d0"
        }
      }
    },
    {
      "fullUrl": "urn:uuid:cc6b0932-e4db-4ffa-af7f-e7bfdbbf07cb",
      "resource": {
        "resourceType": "Observation",
        "id": "cc6b0932-e4db-4ffa-af7f-e7bfdbbf07cb",
        "meta": {
          "profile": [
            "http://hl7.eu/fhir/laboratory/StructureDefinition/Observation-resultslab-eu-lab"
          ]
        },
        "performer": [
          {
            "display": "The Central European Lab"
          }
        ],
        "category": [
          {
            "coding": [
              {
                "system": "http://terminology.hl7.org/CodeSystem/observation-category",
                "code": "laboratory"
              }
            ]
          }
        ],
        "code": {
          "coding": [
            {
              "code": "2160-0",
              "system": "http://loinc.org",
              "display": "Creatinine [Mass/volume] in Serum or Plasma"
            }
          ],
          "text": "Creatinine [Mass/volume] in Serum or Plasma"
        },
        "valueQuantity": {
          "system": "http://unitsofmeasure.org",
          "value": 2,
          "unit": "mg/dL",
          "code": "mg/dL"
        },
        "referenceRange": [
          {
            "low": {
              "value": 0.6,
              "code": "mg/dL",
              "system": "http://unitsofmeasure.org"
            }
          },
          {
            "high": {
              "value": 1.1,
              "code": "mg/dL",
              "system": "http://unitsofmeasure.org"
            }
          }
        ],
        "interpretation": [
          {
            "coding": [
              {
                "code": "H",
                "system": "http://terminology.hl7.org/CodeSystem/v3-ObservationInterpretation",
                "display": "High"
              }
            ]
          }
        ],
        "text": {
          "status": "generated",
          "div": "<div xmlns=\"http://www.w3.org/1999/xhtml\"><table class=\"hl7__eu__lab__report\"><tr><th>Test</th><th>01-Nov-2021</th><th>Reference&#xA0;Range</th><th>Unit</th></tr><tr><td>Creatinine [Mass/volume] in Serum or Plasma</td><td>2.0</td><td>0.6 - 1.1</td><td>H</td><td>mg/dL</td></tr></table></div>"
        },
        "status": "final",
        "subject": {
          "reference": "urn:uuid:99e7935c-d836-4ea9-9547-ef91399b010f",
          "display": "Meaghan Neary"
        },
        "effectiveDateTime": "2021-11-01T22:11:04Z",
        "specimen": {
          "reference": "urn:uuid:b1fee0ad-5768-4d5f-aac3-795efffd28d0"
        }
      }
    },
    {
      "fullUrl": "urn:uuid:f3f86d33-99a1-4a92-8f6b-5b096066fd31",
      "resource": {
        "resourceType": "Observation",
        "id": "f3f86d33-99a1-4a92-8f6b-5b096066fd31",
        "meta": {
          "profile": [
            "http://hl7.eu/fhir/laboratory/StructureDefinition/Observation-resultslab-eu-lab"
          ]
        },
        "performer": [
          {
            "display": "The Central European Lab"
          }
        ],
        "category": [
          {
            "coding": [
              {
                "system": "http://terminology.hl7.org/CodeSystem/observation-category",
                "code": "laboratory"
              }
            ]
          }
        ],
        "code": {
          "coding": [
            {
              "code": "17861-6",
              "system": "http://loinc.org",
              "display": "Calcium [Mass/volume] in Serum or Plasma"
            }
          ],
          "text": "Calcium [Mass/volume] in Serum or Plasma"
        },
        "valueQuantity": {
          "system": "http://unitsofmeasure.org",
          "value": 10.2,
          "unit": "mg/dL",
          "code": "mg/dL"
        },
        "referenceRange": [
          {
            "low": {
              "value": 8.6,
              "code": "mg/dL",
              "system": "http://unitsofmeasure.org"
            }
          },
          {
            "high": {
              "value": 10.4,
              "code": "mg/dL",
              "system": "http://unitsofmeasure.org"
            }
          }
        ],
        "text": {
          "status": "generated",
          "div": "<div xmlns=\"http://www.w3.org/1999/xhtml\"><table class=\"hl7__eu__lab__report\"><tr><th>Test</th><th>01-Nov-2021</th><th>Reference&#xA0;Range</th><th>Unit</th></tr><tr><td>Calcium [Mass/volume] in Serum or Plasma</td><td>10.2</td><td>8.6 - 10.4</td><td></td><td>mg/dL</td></tr></table></div>"
        },
        "status": "final",
        "subject": {
          "reference": "urn:uuid:99e7935c-d836-4ea9-9547-ef91399b010f",
          "display": "Meaghan Neary"
        },
        "effectiveDateTime": "2021-11-01T22:11:04Z",
        "specimen": {
          "reference": "urn:uuid:b1fee0ad-5768-4d5f-aac3-795efffd28d0"
        }
      }
    },
    {
      "fullUrl": "urn:uuid:d928ac31-c69b-4390-ba03-4bd6fe6a4a9b",
      "resource": {
        "resourceType": "Observation",
        "id": "d928ac31-c69b-4390-ba03-4bd6fe6a4a9b",
        "meta": {
          "profile": [
            "http://hl7.eu/fhir/laboratory/StructureDefinition/Observation-resultslab-eu-lab"
          ]
        },
        "performer": [
          {
            "display": "The Central European Lab"
          }
        ],
        "category": [
          {
            "coding": [
              {
                "system": "http://terminology.hl7.org/CodeSystem/observation-category",
                "code": "laboratory"
              }
            ]
          }
        ],
        "code": {
          "coding": [
            {
              "code": "2951-2",
              "system": "http://loinc.org",
              "display": "Sodium [Moles/volume] in Serum or Plasma"
            }
          ],
          "text": "Sodium [Moles/volume] in Serum or Plasma"
        },
        "valueQuantity": {
          "system": "http://unitsofmeasure.org",
          "value": 141.8,
          "unit": "mmol/L",
          "code": "mmol/L"
        },
        "referenceRange": [
          {
            "low": {
              "value": 135,
              "code": "mmol/L",
              "system": "http://unitsofmeasure.org"
            }
          },
          {
            "high": {
              "value": 145,
              "code": "mmol/L",
              "system": "http://unitsofmeasure.org"
            }
          }
        ],
        "text": {
          "status": "generated",
          "div": "<div xmlns=\"http://www.w3.org/1999/xhtml\"><table class=\"hl7__eu__lab__report\"><tr><th>Test</th><th>01-Nov-2021</th><th>Reference&#xA0;Range</th><th>Unit</th></tr><tr><td>Sodium [Moles/volume] in Serum or Plasma</td><td>141.8</td><td>135 - 145</td><td></td><td>mmol/L</td></tr></table></div>"
        },
        "status": "final",
        "subject": {
          "reference": "urn:uuid:99e7935c-d836-4ea9-9547-ef91399b010f",
          "display": "Meaghan Neary"
        },
        "effectiveDateTime": "2021-11-01T22:11:04Z",
        "specimen": {
          "reference": "urn:uuid:b1fee0ad-5768-4d5f-aac3-795efffd28d0"
        }
      }
    },
    {
      "fullUrl": "urn:uuid:9485e72b-dbaf-41c7-bd44-c92a72ededdd",
      "resource": {
        "resourceType": "Observation",
        "id": "9485e72b-dbaf-41c7-bd44-c92a72ededdd",
        "meta": {
          "profile": [
            "http://hl7.eu/fhir/laboratory/StructureDefinition/Observation-resultslab-eu-lab"
          ]
        },
        "performer": [
          {
            "display": "The Central European Lab"
          }
        ],
        "category": [
          {
            "coding": [
              {
                "system": "http://terminology.hl7.org/CodeSystem/observation-category",
                "code": "laboratory"
              }
            ]
          }
        ],
        "code": {
          "coding": [
            {
              "code": "2823-3",
              "system": "http://loinc.org",
              "display": "Potassium [Moles/volume] in Serum or Plasma"
            }
          ],
          "text": "Potassium [Moles/volume] in Serum or Plasma"
        },
        "valueQuantity": {
          "system": "http://unitsofmeasure.org",
          "value": 4.6,
          "unit": "mmol/L",
          "code": "mmol/L"
        },
        "referenceRange": [
          {
            "low": {
              "value": 3.5,
              "code": "mmol/L",
              "system": "http://unitsofmeasure.org"
            }
          },
          {
            "high": {
              "value": 5.1,
              "code": "mmol/L",
              "system": "http://unitsofmeasure.org"
            }
          }
        ],
        "text": {
          "status": "generated",
          "div": "<div xmlns=\"http://www.w3.org/1999/xhtml\"><table class=\"hl7__eu__lab__report\"><tr><th>Test</th><th>01-Nov-2021</th><th>Reference&#xA0;Range</th><th>Unit</th></tr><tr><td>Potassium [Moles/volume] in Serum or Plasma</td><td>4.6</td><td>3.5 - 5.1</td><td></td><td>mmol/L</td></tr></table></div>"
        },
        "status": "final",
        "subject": {
          "reference": "urn:uuid:99e7935c-d836-4ea9-9547-ef91399b010f",
          "display": "Meaghan Neary"
        },
        "effectiveDateTime": "2021-11-01T22:11:04Z",
        "specimen": {
          "reference": "urn:uuid:b1fee0ad-5768-4d5f-aac3-795efffd28d0"
        }
      }
    },
    {
      "fullUrl": "urn:uuid:05e7dd28-bb05-4355-a435-a7572a6a3df6",
      "resource": {
        "resourceType": "Observation",
        "id": "05e7dd28-bb05-4355-a435-a7572a6a3df6",
        "meta": {
          "profile": [
            "http://hl7.eu/fhir/laboratory/StructureDefinition/Observation-resultslab-eu-lab"
          ]
        },
        "performer": [
          {
            "display": "The Central European Lab"
          }
        ],
        "category": [
          {
            "coding": [
              {
                "system": "http://terminology.hl7.org/CodeSystem/observation-category",
                "code": "laboratory"
              }
            ]
          }
        ],
        "code": {
          "coding": [
            {
              "code": "2075-0",
              "system": "http://loinc.org",
              "display": "Chloride [Moles/volume] in Serum or Plasma"
            }
          ],
          "text": "Chloride [Moles/volume] in Serum or Plasma"
        },
        "valueQuantity": {
          "system": "http://unitsofmeasure.org",
          "value": 109,
          "unit": "mmol/L",
          "code": "mmol/L"
        },
        "referenceRange": [
          {
            "low": {
              "value": 98,
              "code": "mmol/L",
              "system": "http://unitsofmeasure.org"
            }
          },
          {
            "high": {
              "value": 108,
              "code": "mmol/L",
              "system": "http://unitsofmeasure.org"
            }
          }
        ],
        "interpretation": [
          {
            "coding": [
              {
                "code": "H",
                "system": "http://terminology.hl7.org/CodeSystem/v3-ObservationInterpretation",
                "display": "High"
              }
            ]
          }
        ],
        "text": {
          "status": "generated",
          "div": "<div xmlns=\"http://www.w3.org/1999/xhtml\"><table class=\"hl7__eu__lab__report\"><tr><th>Test</th><th>01-Nov-2021</th><th>Reference&#xA0;Range</th><th>Unit</th></tr><tr><td>Chloride [Moles/volume] in Serum or Plasma</td><td>109.0</td><td>98 - 108</td><td>H</td><td>mmol/L</td></tr></table></div>"
        },
        "status": "final",
        "subject": {
          "reference": "urn:uuid:99e7935c-d836-4ea9-9547-ef91399b010f",
          "display": "Meaghan Neary"
        },
        "effectiveDateTime": "2021-11-01T22:11:04Z",
        "specimen": {
          "reference": "urn:uuid:b1fee0ad-5768-4d5f-aac3-795efffd28d0"
        }
      }
    },
    {
      "fullUrl": "urn:uuid:55019ec4-4e83-4f1a-908f-a9bcfac11ab9",
      "resource": {
        "resourceType": "Observation",
        "id": "55019ec4-4e83-4f1a-908f-a9bcfac11ab9",
        "meta": {
          "profile": [
            "http://hl7.eu/fhir/laboratory/StructureDefinition/Observation-resultslab-eu-lab"
          ]
        },
        "performer": [
          {
            "display": "The Central European Lab"
          }
        ],
        "category": [
          {
            "coding": [
              {
                "system": "http://terminology.hl7.org/CodeSystem/observation-category",
                "code": "laboratory"
              }
            ]
          }
        ],
        "code": {
          "coding": [
            {
              "code": "2028-9",
              "system": "http://loinc.org",
              "display": "Carbon dioxide, total [Moles/volume] in Serum or Plasma"
            }
          ],
          "text": "Carbon dioxide, total [Moles/volume] in Serum or Plasma"
        },
        "valueQuantity": {
          "system": "http://unitsofmeasure.org",
          "value": 24.1,
          "unit": "mmol/L",
          "code": "mmol/L"
        },
        "referenceRange": [
          {
            "low": {
              "value": 22,
              "code": "mmol/L",
              "system": "http://unitsofmeasure.org"
            }
          },
          {
            "high": {
              "value": 32,
              "code": "mmol/L",
              "system": "http://unitsofmeasure.org"
            }
          }
        ],
        "text": {
          "status": "generated",
          "div": "<div xmlns=\"http://www.w3.org/1999/xhtml\"><table class=\"hl7__eu__lab__report\"><tr><th>Test</th><th>01-Nov-2021</th><th>Reference&#xA0;Range</th><th>Unit</th></tr><tr><td>Carbon dioxide, total [Moles/volume] in Serum or Plasma</td><td>24.1</td><td>22 - 32</td><td></td><td>mmol/L</td></tr></table></div>"
        },
        "status": "final",
        "subject": {
          "reference": "urn:uuid:99e7935c-d836-4ea9-9547-ef91399b010f",
          "display": "Meaghan Neary"
        },
        "effectiveDateTime": "2021-11-01T22:11:04Z",
        "specimen": {
          "reference": "urn:uuid:b1fee0ad-5768-4d5f-aac3-795efffd28d0"
        }
      }
    },
    {
      "fullUrl": "urn:uuid:49227459-bebe-4c9a-a3b6-913b7256267e",
      "resource": {
        "resourceType": "Observation",
        "id": "49227459-bebe-4c9a-a3b6-913b7256267e",
        "meta": {
          "profile": [
            "http://hl7.eu/fhir/laboratory/StructureDefinition/Observation-resultslab-eu-lab"
          ]
        },
        "performer": [
          {
            "display": "The Central European Lab"
          }
        ],
        "category": [
          {
            "coding": [
              {
                "system": "http://terminology.hl7.org/CodeSystem/observation-category",
                "code": "laboratory"
              }
            ]
          }
        ],
        "code": {
          "coding": [
            {
              "code": "5767-9",
              "system": "http://loinc.org",
              "display": "Appearance of Urine"
            }
          ],
          "text": "Appearance of Urine"
        },
        "text": {
          "status": "generated",
          "div": "<div xmlns=\"http://www.w3.org/1999/xhtml\"><table class=\"hl7__eu__lab__report\"><tr><th>Test</th><th>01-Nov-2021</th><th>Reference&#xA0;Range</th><th>Unit</th></tr><tr><td>Appearance of Urine</td></tr></table></div>"
        },
        "status": "final",
        "subject": {
          "reference": "urn:uuid:99e7935c-d836-4ea9-9547-ef91399b010f",
          "display": "Meaghan Neary"
        },
        "effectiveDateTime": "2021-11-01T22:11:04Z",
        "specimen": {
          "reference": "urn:uuid:8360915e-4520-4bff-bf95-1322f17bf14f"
        }
      }
    },
    {
      "fullUrl": "urn:uuid:662ef44b-8597-42e3-89a2-35a5066197cb",
      "resource": {
        "resourceType": "Observation",
        "id": "662ef44b-8597-42e3-89a2-35a5066197cb",
        "meta": {
          "profile": [
            "http://hl7.eu/fhir/laboratory/StructureDefinition/Observation-resultslab-eu-lab"
          ]
        },
        "performer": [
          {
            "display": "The Central European Lab"
          }
        ],
        "category": [
          {
            "coding": [
              {
                "system": "http://terminology.hl7.org/CodeSystem/observation-category",
                "code": "laboratory"
              }
            ]
          }
        ],
        "code": {
          "coding": [
            {
              "code": "34533-0",
              "system": "http://loinc.org",
              "display": "Odor of Urine"
            }
          ],
          "text": "Odor of Urine"
        },
        "text": {
          "status": "generated",
          "div": "<div xmlns=\"http://www.w3.org/1999/xhtml\"><table class=\"hl7__eu__lab__report\"><tr><th>Test</th><th>01-Nov-2021</th><th>Reference&#xA0;Range</th><th>Unit</th></tr><tr><td>Odor of Urine</td></tr></table></div>"
        },
        "status": "final",
        "subject": {
          "reference": "urn:uuid:99e7935c-d836-4ea9-9547-ef91399b010f",
          "display": "Meaghan Neary"
        },
        "effectiveDateTime": "2021-11-01T22:11:04Z",
        "specimen": {
          "reference": "urn:uuid:8360915e-4520-4bff-bf95-1322f17bf14f"
        }
      }
    },
    {
      "fullUrl": "urn:uuid:8023822d-a162-4edf-9a58-dbb242721f8c",
      "resource": {
        "resourceType": "Observation",
        "id": "8023822d-a162-4edf-9a58-dbb242721f8c",
        "meta": {
          "profile": [
            "http://hl7.eu/fhir/laboratory/StructureDefinition/Observation-resultslab-eu-lab"
          ]
        },
        "performer": [
          {
            "display": "The Central European Lab"
          }
        ],
        "category": [
          {
            "coding": [
              {
                "system": "http://terminology.hl7.org/CodeSystem/observation-category",
                "code": "laboratory"
              }
            ]
          }
        ],
        "code": {
          "coding": [
            {
              "code": "32167-9",
              "system": "http://loinc.org",
              "display": "Clarity of Urine"
            }
          ],
          "text": "Clarity of Urine"
        },
        "text": {
          "status": "generated",
          "div": "<div xmlns=\"http://www.w3.org/1999/xhtml\"><table class=\"hl7__eu__lab__report\"><tr><th>Test</th><th>01-Nov-2021</th><th>Reference&#xA0;Range</th><th>Unit</th></tr><tr><td>Clarity of Urine</td></tr></table></div>"
        },
        "status": "final",
        "subject": {
          "reference": "urn:uuid:99e7935c-d836-4ea9-9547-ef91399b010f",
          "display": "Meaghan Neary"
        },
        "effectiveDateTime": "2021-11-01T22:11:04Z",
        "specimen": {
          "reference": "urn:uuid:8360915e-4520-4bff-bf95-1322f17bf14f"
        }
      }
    },
    {
      "fullUrl": "urn:uuid:a1ef4aa9-c7a7-4c45-aa85-e71ddaf36c83",
      "resource": {
        "resourceType": "Observation",
        "id": "a1ef4aa9-c7a7-4c45-aa85-e71ddaf36c83",
        "meta": {
          "profile": [
            "http://hl7.eu/fhir/laboratory/StructureDefinition/Observation-resultslab-eu-lab"
          ]
        },
        "performer": [
          {
            "display": "The Central European Lab"
          }
        ],
        "category": [
          {
            "coding": [
              {
                "system": "http://terminology.hl7.org/CodeSystem/observation-category",
                "code": "laboratory"
              }
            ]
          }
        ],
        "code": {
          "coding": [
            {
              "code": "5778-6",
              "system": "http://loinc.org",
              "display": "Color of Urine"
            }
          ],
          "text": "Color of Urine"
        },
        "text": {
          "status": "generated",
          "div": "<div xmlns=\"http://www.w3.org/1999/xhtml\"><table class=\"hl7__eu__lab__report\"><tr><th>Test</th><th>01-Nov-2021</th><th>Reference&#xA0;Range</th><th>Unit</th></tr><tr><td>Color of Urine</td></tr></table></div>"
        },
        "status": "final",
        "subject": {
          "reference": "urn:uuid:99e7935c-d836-4ea9-9547-ef91399b010f",
          "display": "Meaghan Neary"
        },
        "effectiveDateTime": "2021-11-01T22:11:04Z",
        "specimen": {
          "reference": "urn:uuid:8360915e-4520-4bff-bf95-1322f17bf14f"
        }
      }
    },
    {
      "fullUrl": "urn:uuid:6e00a47e-b256-4a20-80fa-1f6cac8e651b",
      "resource": {
        "resourceType": "Observation",
        "id": "6e00a47e-b256-4a20-80fa-1f6cac8e651b",
        "meta": {
          "profile": [
            "http://hl7.eu/fhir/laboratory/StructureDefinition/Observation-resultslab-eu-lab"
          ]
        },
        "performer": [
          {
            "display": "The Central European Lab"
          }
        ],
        "category": [
          {
            "coding": [
              {
                "system": "http://terminology.hl7.org/CodeSystem/observation-category",
                "code": "laboratory"
              }
            ]
          }
        ],
        "code": {
          "coding": [
            {
              "code": "5792-7",
              "system": "http://loinc.org",
              "display": "Glucose [Mass/volume] in Urine by Test strip"
            }
          ],
          "text": "Glucose [Mass/volume] in Urine by Test strip"
        },
        "valueQuantity": {
          "system": "http://unitsofmeasure.org",
          "value": 1.3,
          "unit": "mg/dL",
          "code": "mg/dL"
        },
        "referenceRange": [
          {
            "low": {
              "value": 0.8,
              "code": "mg/dL",
              "system": "http://unitsofmeasure.org"
            }
          },
          {
            "high": {
              "value": 0,
              "code": "mg/dL",
              "system": "http://unitsofmeasure.org"
            }
          }
        ],
        "interpretation": [
          {
            "coding": [
              {
                "code": "H",
                "system": "http://terminology.hl7.org/CodeSystem/v3-ObservationInterpretation",
                "display": "High"
              }
            ]
          }
        ],
        "text": {
          "status": "generated",
          "div": "<div xmlns=\"http://www.w3.org/1999/xhtml\"><table class=\"hl7__eu__lab__report\"><tr><th>Test</th><th>01-Nov-2021</th><th>Reference&#xA0;Range</th><th>Unit</th></tr><tr><td>Glucose [Mass/volume] in Urine by Test strip</td><td>1.3</td><td>0.8 - 0</td><td>H</td><td>mg/dL</td></tr></table></div>"
        },
        "status": "final",
        "subject": {
          "reference": "urn:uuid:99e7935c-d836-4ea9-9547-ef91399b010f",
          "display": "Meaghan Neary"
        },
        "effectiveDateTime": "2021-11-01T22:11:04Z",
        "specimen": {
          "reference": "urn:uuid:8360915e-4520-4bff-bf95-1322f17bf14f"
        }
      }
    },
    {
      "fullUrl": "urn:uuid:aed857a6-961e-447d-b112-71505bb23ed4",
      "resource": {
        "resourceType": "Observation",
        "id": "aed857a6-961e-447d-b112-71505bb23ed4",
        "meta": {
          "profile": [
            "http://hl7.eu/fhir/laboratory/StructureDefinition/Observation-resultslab-eu-lab"
          ]
        },
        "performer": [
          {
            "display": "The Central European Lab"
          }
        ],
        "category": [
          {
            "coding": [
              {
                "system": "http://terminology.hl7.org/CodeSystem/observation-category",
                "code": "laboratory"
              }
            ]
          }
        ],
        "code": {
          "coding": [
            {
              "code": "25428-4",
              "system": "http://loinc.org",
              "display": "Glucose [Presence] in Urine by Test strip"
            }
          ],
          "text": "Glucose [Presence] in Urine by Test strip"
        },
        "text": {
          "status": "generated",
          "div": "<div xmlns=\"http://www.w3.org/1999/xhtml\"><table class=\"hl7__eu__lab__report\"><tr><th>Test</th><th>01-Nov-2021</th><th>Reference&#xA0;Range</th><th>Unit</th></tr><tr><td>Glucose [Presence] in Urine by Test strip</td></tr></table></div>"
        },
        "status": "final",
        "subject": {
          "reference": "urn:uuid:99e7935c-d836-4ea9-9547-ef91399b010f",
          "display": "Meaghan Neary"
        },
        "effectiveDateTime": "2021-11-01T22:11:04Z",
        "specimen": {
          "reference": "urn:uuid:8360915e-4520-4bff-bf95-1322f17bf14f"
        }
      }
    },
    {
      "fullUrl": "urn:uuid:5380e2af-658d-4e43-874f-ba9ae933bd06",
      "resource": {
        "resourceType": "Observation",
        "id": "5380e2af-658d-4e43-874f-ba9ae933bd06",
        "meta": {
          "profile": [
            "http://hl7.eu/fhir/laboratory/StructureDefinition/Observation-resultslab-eu-lab"
          ]
        },
        "performer": [
          {
            "display": "The Central European Lab"
          }
        ],
        "category": [
          {
            "coding": [
              {
                "system": "http://terminology.hl7.org/CodeSystem/observation-category",
                "code": "laboratory"
              }
            ]
          }
        ],
        "code": {
          "coding": [
            {
              "code": "20505-4",
              "system": "http://loinc.org",
              "display": "Bilirubin.total [Mass/volume] in Urine by Test strip"
            }
          ],
          "text": "Bilirubin.total [Mass/volume] in Urine by Test strip"
        },
        "valueQuantity": {
          "system": "http://unitsofmeasure.org",
          "value": 1.3,
          "unit": "mg/dL",
          "code": "mg/dL"
        },
        "referenceRange": [
          {
            "low": {
              "value": 0,
              "code": "mg/dL",
              "system": "http://unitsofmeasure.org"
            }
          },
          {
            "high": {
              "value": 1,
              "code": "mg/dL",
              "system": "http://unitsofmeasure.org"
            }
          }
        ],
        "interpretation": [
          {
            "coding": [
              {
                "code": "H",
                "system": "http://terminology.hl7.org/CodeSystem/v3-ObservationInterpretation",
                "display": "High"
              }
            ]
          }
        ],
        "text": {
          "status": "generated",
          "div": "<div xmlns=\"http://www.w3.org/1999/xhtml\"><table class=\"hl7__eu__lab__report\"><tr><th>Test</th><th>01-Nov-2021</th><th>Reference&#xA0;Range</th><th>Unit</th></tr><tr><td>Bilirubin.total [Mass/volume] in Urine by Test strip</td><td>1.3</td><td>0 - 1</td><td>H</td><td>mg/dL</td></tr></table></div>"
        },
        "status": "final",
        "subject": {
          "reference": "urn:uuid:99e7935c-d836-4ea9-9547-ef91399b010f",
          "display": "Meaghan Neary"
        },
        "effectiveDateTime": "2021-11-01T22:11:04Z",
        "specimen": {
          "reference": "urn:uuid:8360915e-4520-4bff-bf95-1322f17bf14f"
        }
      }
    },
    {
      "fullUrl": "urn:uuid:6a3d6cf4-d8cf-48db-9a0d-55ac33b1ac70",
      "resource": {
        "resourceType": "Observation",
        "id": "6a3d6cf4-d8cf-48db-9a0d-55ac33b1ac70",
        "meta": {
          "profile": [
            "http://hl7.eu/fhir/laboratory/StructureDefinition/Observation-resultslab-eu-lab"
          ]
        },
        "performer": [
          {
            "display": "The Central European Lab"
          }
        ],
        "category": [
          {
            "coding": [
              {
                "system": "http://terminology.hl7.org/CodeSystem/observation-category",
                "code": "laboratory"
              }
            ]
          }
        ],
        "code": {
          "coding": [
            {
              "code": "5770-3",
              "system": "http://loinc.org",
              "display": "Bilirubin.total [Presence] in Urine by Test strip"
            }
          ],
          "text": "Bilirubin.total [Presence] in Urine by Test strip"
        },
        "text": {
          "status": "generated",
          "div": "<div xmlns=\"http://www.w3.org/1999/xhtml\"><table class=\"hl7__eu__lab__report\"><tr><th>Test</th><th>01-Nov-2021</th><th>Reference&#xA0;Range</th><th>Unit</th></tr><tr><td>Bilirubin.total [Presence] in Urine by Test strip</td></tr></table></div>"
        },
        "status": "final",
        "subject": {
          "reference": "urn:uuid:99e7935c-d836-4ea9-9547-ef91399b010f",
          "display": "Meaghan Neary"
        },
        "effectiveDateTime": "2021-11-01T22:11:04Z",
        "specimen": {
          "reference": "urn:uuid:8360915e-4520-4bff-bf95-1322f17bf14f"
        }
      }
    },
    {
      "fullUrl": "urn:uuid:03bfbf93-6cfa-4341-b333-bcba1bbed51c",
      "resource": {
        "resourceType": "Observation",
        "id": "03bfbf93-6cfa-4341-b333-bcba1bbed51c",
        "meta": {
          "profile": [
            "http://hl7.eu/fhir/laboratory/StructureDefinition/Observation-resultslab-eu-lab"
          ]
        },
        "performer": [
          {
            "display": "The Central European Lab"
          }
        ],
        "category": [
          {
            "coding": [
              {
                "system": "http://terminology.hl7.org/CodeSystem/observation-category",
                "code": "laboratory"
              }
            ]
          }
        ],
        "code": {
          "coding": [
            {
              "code": "5797-6",
              "system": "http://loinc.org",
              "display": "Ketones [Mass/volume] in Urine by Test strip"
            }
          ],
          "text": "Ketones [Mass/volume] in Urine by Test strip"
        },
        "valueQuantity": {
          "system": "http://unitsofmeasure.org",
          "value": 17.1,
          "unit": "mg/dL",
          "code": "mg/dL"
        },
        "referenceRange": [
          {
            "low": {
              "value": 0,
              "code": "mg/dL",
              "system": "http://unitsofmeasure.org"
            }
          },
          {
            "high": {
              "value": 4,
              "code": "mg/dL",
              "system": "http://unitsofmeasure.org"
            }
          }
        ],
        "interpretation": [
          {
            "coding": [
              {
                "code": "H",
                "system": "http://terminology.hl7.org/CodeSystem/v3-ObservationInterpretation",
                "display": "High"
              }
            ]
          }
        ],
        "text": {
          "status": "generated",
          "div": "<div xmlns=\"http://www.w3.org/1999/xhtml\"><table class=\"hl7__eu__lab__report\"><tr><th>Test</th><th>01-Nov-2021</th><th>Reference&#xA0;Range</th><th>Unit</th></tr><tr><td>Ketones [Mass/volume] in Urine by Test strip</td><td>17.1</td><td>0 - 4</td><td>H</td><td>mg/dL</td></tr></table></div>"
        },
        "status": "final",
        "subject": {
          "reference": "urn:uuid:99e7935c-d836-4ea9-9547-ef91399b010f",
          "display": "Meaghan Neary"
        },
        "effectiveDateTime": "2021-11-01T22:11:04Z",
        "specimen": {
          "reference": "urn:uuid:8360915e-4520-4bff-bf95-1322f17bf14f"
        }
      }
    },
    {
      "fullUrl": "urn:uuid:1ae16654-7c9b-45ee-8875-e63de5e8c446",
      "resource": {
        "resourceType": "Observation",
        "id": "1ae16654-7c9b-45ee-8875-e63de5e8c446",
        "meta": {
          "profile": [
            "http://hl7.eu/fhir/laboratory/StructureDefinition/Observation-resultslab-eu-lab"
          ]
        },
        "performer": [
          {
            "display": "The Central European Lab"
          }
        ],
        "category": [
          {
            "coding": [
              {
                "system": "http://terminology.hl7.org/CodeSystem/observation-category",
                "code": "laboratory"
              }
            ]
          }
        ],
        "code": {
          "coding": [
            {
              "code": "2514-8",
              "system": "http://loinc.org",
              "display": "Ketones [Presence] in Urine by Test strip"
            }
          ],
          "text": "Ketones [Presence] in Urine by Test strip"
        },
        "text": {
          "status": "generated",
          "div": "<div xmlns=\"http://www.w3.org/1999/xhtml\"><table class=\"hl7__eu__lab__report\"><tr><th>Test</th><th>01-Nov-2021</th><th>Reference&#xA0;Range</th><th>Unit</th></tr><tr><td>Ketones [Presence] in Urine by Test strip</td></tr></table></div>"
        },
        "status": "final",
        "subject": {
          "reference": "urn:uuid:99e7935c-d836-4ea9-9547-ef91399b010f",
          "display": "Meaghan Neary"
        },
        "effectiveDateTime": "2021-11-01T22:11:04Z",
        "specimen": {
          "reference": "urn:uuid:8360915e-4520-4bff-bf95-1322f17bf14f"
        }
      }
    },
    {
      "fullUrl": "urn:uuid:282d30d9-2777-4f73-8144-508025e9d277",
      "resource": {
        "resourceType": "Observation",
        "id": "282d30d9-2777-4f73-8144-508025e9d277",
        "meta": {
          "profile": [
            "http://hl7.eu/fhir/laboratory/StructureDefinition/Observation-resultslab-eu-lab"
          ]
        },
        "performer": [
          {
            "display": "The Central European Lab"
          }
        ],
        "category": [
          {
            "coding": [
              {
                "system": "http://terminology.hl7.org/CodeSystem/observation-category",
                "code": "laboratory"
              }
            ]
          }
        ],
        "code": {
          "coding": [
            {
              "code": "5811-5",
              "system": "http://loinc.org",
              "display": "Specific gravity of Urine by Test strip"
            }
          ],
          "text": "Specific gravity of Urine by Test strip"
        },
        "valueQuantity": {
          "system": "http://unitsofmeasure.org",
          "value": 1,
          "unit": "{nominal}",
          "code": "{nominal}"
        },
        "referenceRange": [
          {
            "low": {
              "value": 1.005,
              "code": "g/mL",
              "system": "http://unitsofmeasure.org"
            }
          },
          {
            "high": {
              "value": 1.03,
              "code": "g/mL",
              "system": "http://unitsofmeasure.org"
            }
          }
        ],
        "interpretation": [
          {
            "coding": [
              {
                "code": "L",
                "system": "http://terminology.hl7.org/CodeSystem/v3-ObservationInterpretation",
                "display": "Low"
              }
            ]
          }
        ],
        "text": {
          "status": "generated",
          "div": "<div xmlns=\"http://www.w3.org/1999/xhtml\"><table class=\"hl7__eu__lab__report\"><tr><th>Test</th><th>01-Nov-2021</th><th>Reference&#xA0;Range</th><th>Unit</th></tr><tr><td>Specific gravity of Urine by Test strip</td><td>1.0</td><td>1.005 - 1.03</td><td>L</td><td>{nominal}</td></tr></table></div>"
        },
        "status": "final",
        "subject": {
          "reference": "urn:uuid:99e7935c-d836-4ea9-9547-ef91399b010f",
          "display": "Meaghan Neary"
        },
        "effectiveDateTime": "2021-11-01T22:11:04Z",
        "specimen": {
          "reference": "urn:uuid:8360915e-4520-4bff-bf95-1322f17bf14f"
        }
      }
    },
    {
      "fullUrl": "urn:uuid:ebdf5e00-bed0-41ea-8861-ff0dd61d6dc8",
      "resource": {
        "resourceType": "Observation",
        "id": "ebdf5e00-bed0-41ea-8861-ff0dd61d6dc8",
        "meta": {
          "profile": [
            "http://hl7.eu/fhir/laboratory/StructureDefinition/Observation-resultslab-eu-lab"
          ]
        },
        "performer": [
          {
            "display": "The Central European Lab"
          }
        ],
        "category": [
          {
            "coding": [
              {
                "system": "http://terminology.hl7.org/CodeSystem/observation-category",
                "code": "laboratory"
              }
            ]
          }
        ],
        "code": {
          "coding": [
            {
              "code": "5803-2",
              "system": "http://loinc.org",
              "display": "pH of Urine by Test strip"
            }
          ],
          "text": "pH of Urine by Test strip"
        },
        "valueQuantity": {
          "system": "http://unitsofmeasure.org",
          "value": 6.3,
          "unit": "pH",
          "code": "pH"
        },
        "referenceRange": [
          {
            "low": {
              "value": 4.6,
              "code": "pH",
              "system": "http://unitsofmeasure.org"
            }
          },
          {
            "high": {
              "value": 7,
              "code": "pH",
              "system": "http://unitsofmeasure.org"
            }
          }
        ],
        "text": {
          "status": "generated",
          "div": "<div xmlns=\"http://www.w3.org/1999/xhtml\"><table class=\"hl7__eu__lab__report\"><tr><th>Test</th><th>01-Nov-2021</th><th>Reference&#xA0;Range</th><th>Unit</th></tr><tr><td>pH of Urine by Test strip</td><td>6.3</td><td>4.6 - 7</td><td></td><td>pH</td></tr></table></div>"
        },
        "status": "final",
        "subject": {
          "reference": "urn:uuid:99e7935c-d836-4ea9-9547-ef91399b010f",
          "display": "Meaghan Neary"
        },
        "effectiveDateTime": "2021-11-01T22:11:04Z",
        "specimen": {
          "reference": "urn:uuid:8360915e-4520-4bff-bf95-1322f17bf14f"
        }
      }
    },
    {
      "fullUrl": "urn:uuid:50145f41-0e72-49cf-9a36-1d0c31e2b0da",
      "resource": {
        "resourceType": "Observation",
        "id": "50145f41-0e72-49cf-9a36-1d0c31e2b0da",
        "meta": {
          "profile": [
            "http://hl7.eu/fhir/laboratory/StructureDefinition/Observation-resultslab-eu-lab"
          ]
        },
        "performer": [
          {
            "display": "The Central European Lab"
          }
        ],
        "category": [
          {
            "coding": [
              {
                "system": "http://terminology.hl7.org/CodeSystem/observation-category",
                "code": "laboratory"
              }
            ]
          }
        ],
        "code": {
          "coding": [
            {
              "code": "5804-0",
              "system": "http://loinc.org",
              "display": "Protein [Mass/volume] in Urine by Test strip"
            }
          ],
          "text": "Protein [Mass/volume] in Urine by Test strip"
        },
        "valueQuantity": {
          "system": "http://unitsofmeasure.org",
          "value": 288.1,
          "unit": "mg/dL",
          "code": "mg/dL"
        },
        "referenceRange": [
          {
            "low": {
              "value": 0,
              "code": "mg/dL",
              "system": "http://unitsofmeasure.org"
            }
          },
          {
            "high": {
              "value": 14,
              "code": "mg/dL",
              "system": "http://unitsofmeasure.org"
            }
          }
        ],
        "interpretation": [
          {
            "coding": [
              {
                "code": "H",
                "system": "http://terminology.hl7.org/CodeSystem/v3-ObservationInterpretation",
                "display": "High"
              }
            ]
          }
        ],
        "text": {
          "status": "generated",
          "div": "<div xmlns=\"http://www.w3.org/1999/xhtml\"><table class=\"hl7__eu__lab__report\"><tr><th>Test</th><th>01-Nov-2021</th><th>Reference&#xA0;Range</th><th>Unit</th></tr><tr><td>Protein [Mass/volume] in Urine by Test strip</td><td>288.1</td><td>0 - 14</td><td>H</td><td>mg/dL</td></tr></table></div>"
        },
        "status": "final",
        "subject": {
          "reference": "urn:uuid:99e7935c-d836-4ea9-9547-ef91399b010f",
          "display": "Meaghan Neary"
        },
        "effectiveDateTime": "2021-11-01T22:11:04Z",
        "specimen": {
          "reference": "urn:uuid:8360915e-4520-4bff-bf95-1322f17bf14f"
        }
      }
    },
    {
      "fullUrl": "urn:uuid:b2b35706-fdaa-46a8-a4b6-65901200ed29",
      "resource": {
        "resourceType": "Observation",
        "id": "b2b35706-fdaa-46a8-a4b6-65901200ed29",
        "meta": {
          "profile": [
            "http://hl7.eu/fhir/laboratory/StructureDefinition/Observation-resultslab-eu-lab"
          ]
        },
        "performer": [
          {
            "display": "The Central European Lab"
          }
        ],
        "category": [
          {
            "coding": [
              {
                "system": "http://terminology.hl7.org/CodeSystem/observation-category",
                "code": "laboratory"
              }
            ]
          }
        ],
        "code": {
          "coding": [
            {
              "code": "20454-5",
              "system": "http://loinc.org",
              "display": "Protein [Presence] in Urine by Test strip"
            }
          ],
          "text": "Protein [Presence] in Urine by Test strip"
        },
        "text": {
          "status": "generated",
          "div": "<div xmlns=\"http://www.w3.org/1999/xhtml\"><table class=\"hl7__eu__lab__report\"><tr><th>Test</th><th>01-Nov-2021</th><th>Reference&#xA0;Range</th><th>Unit</th></tr><tr><td>Protein [Presence] in Urine by Test strip</td></tr></table></div>"
        },
        "status": "final",
        "subject": {
          "reference": "urn:uuid:99e7935c-d836-4ea9-9547-ef91399b010f",
          "display": "Meaghan Neary"
        },
        "effectiveDateTime": "2021-11-01T22:11:04Z",
        "specimen": {
          "reference": "urn:uuid:8360915e-4520-4bff-bf95-1322f17bf14f"
        }
      }
    },
    {
      "fullUrl": "urn:uuid:5c3b1840-9b0b-48e3-aaf7-9b7bc616ce5f",
      "resource": {
        "resourceType": "Observation",
        "id": "5c3b1840-9b0b-48e3-aaf7-9b7bc616ce5f",
        "meta": {
          "profile": [
            "http://hl7.eu/fhir/laboratory/StructureDefinition/Observation-resultslab-eu-lab"
          ]
        },
        "performer": [
          {
            "display": "The Central European Lab"
          }
        ],
        "category": [
          {
            "coding": [
              {
                "system": "http://terminology.hl7.org/CodeSystem/observation-category",
                "code": "laboratory"
              }
            ]
          }
        ],
        "code": {
          "coding": [
            {
              "code": "5802-4",
              "system": "http://loinc.org",
              "display": "Nitrite [Presence] in Urine by Test strip"
            }
          ],
          "text": "Nitrite [Presence] in Urine by Test strip"
        },
        "text": {
          "status": "generated",
          "div": "<div xmlns=\"http://www.w3.org/1999/xhtml\"><table class=\"hl7__eu__lab__report\"><tr><th>Test</th><th>01-Nov-2021</th><th>Reference&#xA0;Range</th><th>Unit</th></tr><tr><td>Nitrite [Presence] in Urine by Test strip</td></tr></table></div>"
        },
        "status": "final",
        "subject": {
          "reference": "urn:uuid:99e7935c-d836-4ea9-9547-ef91399b010f",
          "display": "Meaghan Neary"
        },
        "effectiveDateTime": "2021-11-01T22:11:04Z",
        "specimen": {
          "reference": "urn:uuid:8360915e-4520-4bff-bf95-1322f17bf14f"
        }
      }
    },
    {
      "fullUrl": "urn:uuid:b19bc28d-50d7-4257-b3f9-c73be7e595be",
      "resource": {
        "resourceType": "Observation",
        "id": "b19bc28d-50d7-4257-b3f9-c73be7e595be",
        "meta": {
          "profile": [
            "http://hl7.eu/fhir/laboratory/StructureDefinition/Observation-resultslab-eu-lab"
          ]
        },
        "performer": [
          {
            "display": "The Central European Lab"
          }
        ],
        "category": [
          {
            "coding": [
              {
                "system": "http://terminology.hl7.org/CodeSystem/observation-category",
                "code": "laboratory"
              }
            ]
          }
        ],
        "code": {
          "coding": [
            {
              "code": "5794-3",
              "system": "http://loinc.org",
              "display": "Hemoglobin [Presence] in Urine by Test strip"
            }
          ],
          "text": "Hemoglobin [Presence] in Urine by Test strip"
        },
        "text": {
          "status": "generated",
          "div": "<div xmlns=\"http://www.w3.org/1999/xhtml\"><table class=\"hl7__eu__lab__report\"><tr><th>Test</th><th>01-Nov-2021</th><th>Reference&#xA0;Range</th><th>Unit</th></tr><tr><td>Hemoglobin [Presence] in Urine by Test strip</td></tr></table></div>"
        },
        "status": "final",
        "subject": {
          "reference": "urn:uuid:99e7935c-d836-4ea9-9547-ef91399b010f",
          "display": "Meaghan Neary"
        },
        "effectiveDateTime": "2021-11-01T22:11:04Z",
        "specimen": {
          "reference": "urn:uuid:8360915e-4520-4bff-bf95-1322f17bf14f"
        }
      }
    },
    {
      "fullUrl": "urn:uuid:25aceafc-2db1-4f06-9e46-bc25ae377958",
      "resource": {
        "resourceType": "Observation",
        "id": "25aceafc-2db1-4f06-9e46-bc25ae377958",
        "meta": {
          "profile": [
            "http://hl7.eu/fhir/laboratory/StructureDefinition/Observation-resultslab-eu-lab"
          ]
        },
        "performer": [
          {
            "display": "The Central European Lab"
          }
        ],
        "category": [
          {
            "coding": [
              {
                "system": "http://terminology.hl7.org/CodeSystem/observation-category",
                "code": "laboratory"
              }
            ]
          }
        ],
        "code": {
          "coding": [
            {
              "code": "5799-2",
              "system": "http://loinc.org",
              "display": "Leukocyte esterase [Presence] in Urine by Test strip"
            }
          ],
          "text": "Leukocyte esterase [Presence] in Urine by Test strip"
        },
        "text": {
          "status": "generated",
          "div": "<div xmlns=\"http://www.w3.org/1999/xhtml\"><table class=\"hl7__eu__lab__report\"><tr><th>Test</th><th>01-Nov-2021</th><th>Reference&#xA0;Range</th><th>Unit</th></tr><tr><td>Leukocyte esterase [Presence] in Urine by Test strip</td></tr></table></div>"
        },
        "status": "final",
        "subject": {
          "reference": "urn:uuid:99e7935c-d836-4ea9-9547-ef91399b010f",
          "display": "Meaghan Neary"
        },
        "effectiveDateTime": "2021-11-01T22:11:04Z",
        "specimen": {
          "reference": "urn:uuid:8360915e-4520-4bff-bf95-1322f17bf14f"
        }
      }
    },
    {
      "fullUrl": "urn:uuid:49c27105-cf8d-4e39-98e3-215b7e4919d2",
      "resource": {
        "resourceType": "Observation",
        "id": "49c27105-cf8d-4e39-98e3-215b7e4919d2",
        "meta": {
          "profile": [
            "http://hl7.eu/fhir/laboratory/StructureDefinition/Observation-resultslab-eu-lab"
          ]
        },
        "performer": [
          {
            "display": "The Central European Lab"
          }
        ],
        "category": [
          {
            "coding": [
              {
                "system": "http://terminology.hl7.org/CodeSystem/observation-category",
                "code": "laboratory"
              }
            ]
          }
        ],
        "code": {
          "coding": [
            {
              "code": "4548-4",
              "system": "http://loinc.org",
              "display": "Hemoglobin A1c/Hemoglobin.total in Blood"
            }
          ],
          "text": "Hemoglobin A1c/Hemoglobin.total in Blood"
        },
        "valueQuantity": {
          "system": "http://unitsofmeasure.org",
          "value": 2.9,
          "unit": "%",
          "code": "%"
        },
        "referenceRange": [
          {
            "low": {
              "value": 4,
              "code": "%",
              "system": "http://unitsofmeasure.org"
            }
          },
          {
            "high": {
              "value": 6.4,
              "code": "%",
              "system": "http://unitsofmeasure.org"
            }
          }
        ],
        "interpretation": [
          {
            "coding": [
              {
                "code": "L",
                "system": "http://terminology.hl7.org/CodeSystem/v3-ObservationInterpretation",
                "display": "Low"
              }
            ]
          }
        ],
        "text": {
          "status": "generated",
          "div": "<div xmlns=\"http://www.w3.org/1999/xhtml\"><table class=\"hl7__eu__lab__report\"><tr><th>Test</th><th>01-Nov-2021</th><th>Reference&#xA0;Range</th><th>Unit</th></tr><tr><td>Hemoglobin A1c/Hemoglobin.total in Blood</td><td>2.9</td><td>4 - 6.4</td><td>L</td><td>%</td></tr></table></div>"
        },
        "status": "final",
        "subject": {
          "reference": "urn:uuid:99e7935c-d836-4ea9-9547-ef91399b010f",
          "display": "Meaghan Neary"
        },
        "effectiveDateTime": "2021-11-01T22:11:04Z",
        "specimen": {
          "reference": "urn:uuid:a2d4b116-e13f-49cf-888f-daf8e391d840"
        }
      }
    },
    {
      "fullUrl": "urn:uuid:7a02cfa0-1639-4845-99a5-90b8c4e24b6d",
      "resource": {
        "resourceType": "Observation",
        "id": "7a02cfa0-1639-4845-99a5-90b8c4e24b6d",
        "meta": {
          "profile": [
            "http://hl7.eu/fhir/laboratory/StructureDefinition/Observation-resultslab-eu-lab"
          ]
        },
        "performer": [
          {
            "display": "The Central European Lab"
          }
        ],
        "category": [
          {
            "coding": [
              {
                "system": "http://terminology.hl7.org/CodeSystem/observation-category",
                "code": "laboratory"
              }
            ]
          }
        ],
        "code": {
          "coding": [
            {
              "code": "2339-0",
              "system": "http://loinc.org",
              "display": "Glucose [Mass/volume] in Blood"
            }
          ],
          "text": "Glucose [Mass/volume] in Blood"
        },
        "valueQuantity": {
          "system": "http://unitsofmeasure.org",
          "value": 82.2,
          "unit": "mg/dL",
          "code": "mg/dL"
        },
        "referenceRange": [
          {
            "low": {
              "value": 70,
              "code": "mg/dL",
              "system": "http://unitsofmeasure.org"
            }
          },
          {
            "high": {
              "value": 100,
              "code": "mg/dL",
              "system": "http://unitsofmeasure.org"
            }
          }
        ],
        "text": {
          "status": "generated",
          "div": "<div xmlns=\"http://www.w3.org/1999/xhtml\"><table class=\"hl7__eu__lab__report\"><tr><th>Test</th><th>01-Nov-2021</th><th>Reference&#xA0;Range</th><th>Unit</th></tr><tr><td>Glucose [Mass/volume] in Blood</td><td>82.2</td><td>70 - 100</td><td></td><td>mg/dL</td></tr></table></div>"
        },
        "status": "final",
        "subject": {
          "reference": "urn:uuid:99e7935c-d836-4ea9-9547-ef91399b010f",
          "display": "Meaghan Neary"
        },
        "effectiveDateTime": "2021-11-01T22:11:04Z",
        "specimen": {
          "reference": "urn:uuid:a2d4b116-e13f-49cf-888f-daf8e391d840"
        }
      }
    },
    {
      "fullUrl": "urn:uuid:4f96d1f4-ee9a-4e76-aa0e-f461030182a8",
      "resource": {
        "resourceType": "Observation",
        "id": "4f96d1f4-ee9a-4e76-aa0e-f461030182a8",
        "meta": {
          "profile": [
            "http://hl7.eu/fhir/laboratory/StructureDefinition/Observation-resultslab-eu-lab"
          ]
        },
        "performer": [
          {
            "display": "The Central European Lab"
          }
        ],
        "category": [
          {
            "coding": [
              {
                "system": "http://terminology.hl7.org/CodeSystem/observation-category",
                "code": "laboratory"
              }
            ]
          }
        ],
        "code": {
          "coding": [
            {
              "code": "6299-2",
              "system": "http://loinc.org",
              "display": "Urea nitrogen [Mass/volume] in Blood"
            }
          ],
          "text": "Urea nitrogen [Mass/volume] in Blood"
        },
        "valueQuantity": {
          "system": "http://unitsofmeasure.org",
          "value": 15.3,
          "unit": "mg/dL",
          "code": "mg/dL"
        },
        "referenceRange": [
          {
            "low": {
              "value": 7,
              "code": "mg/dL",
              "system": "http://unitsofmeasure.org"
            }
          },
          {
            "high": {
              "value": 43,
              "code": "mg/dL",
              "system": "http://unitsofmeasure.org"
            }
          }
        ],
        "text": {
          "status": "generated",
          "div": "<div xmlns=\"http://www.w3.org/1999/xhtml\"><table class=\"hl7__eu__lab__report\"><tr><th>Test</th><th>01-Nov-2021</th><th>Reference&#xA0;Range</th><th>Unit</th></tr><tr><td>Urea nitrogen [Mass/volume] in Blood</td><td>15.3</td><td>7 - 43</td><td></td><td>mg/dL</td></tr></table></div>"
        },
        "status": "final",
        "subject": {
          "reference": "urn:uuid:99e7935c-d836-4ea9-9547-ef91399b010f",
          "display": "Meaghan Neary"
        },
        "effectiveDateTime": "2021-11-01T22:11:04Z",
        "specimen": {
          "reference": "urn:uuid:a2d4b116-e13f-49cf-888f-daf8e391d840"
        }
      }
    },
    {
      "fullUrl": "urn:uuid:366b00b9-842e-44ec-9a58-727ab6592add",
      "resource": {
        "resourceType": "Observation",
        "id": "366b00b9-842e-44ec-9a58-727ab6592add",
        "meta": {
          "profile": [
            "http://hl7.eu/fhir/laboratory/StructureDefinition/Observation-resultslab-eu-lab"
          ]
        },
        "performer": [
          {
            "display": "The Central European Lab"
          }
        ],
        "category": [
          {
            "coding": [
              {
                "system": "http://terminology.hl7.org/CodeSystem/observation-category",
                "code": "laboratory"
              }
            ]
          }
        ],
        "code": {
          "coding": [
            {
              "code": "38483-4",
              "system": "http://loinc.org",
              "display": "Creatinine [Mass/volume] in Blood"
            }
          ],
          "text": "Creatinine [Mass/volume] in Blood"
        },
        "valueQuantity": {
          "system": "http://unitsofmeasure.org",
          "value": 3,
          "unit": "mg/dL",
          "code": "mg/dL"
        },
        "referenceRange": [
          {
            "low": {
              "value": 0.6,
              "code": "mg/dL",
              "system": "http://unitsofmeasure.org"
            }
          },
          {
            "high": {
              "value": 1.1,
              "code": "mg/dL",
              "system": "http://unitsofmeasure.org"
            }
          }
        ],
        "interpretation": [
          {
            "coding": [
              {
                "code": "H",
                "system": "http://terminology.hl7.org/CodeSystem/v3-ObservationInterpretation",
                "display": "High"
              }
            ]
          }
        ],
        "text": {
          "status": "generated",
          "div": "<div xmlns=\"http://www.w3.org/1999/xhtml\"><table class=\"hl7__eu__lab__report\"><tr><th>Test</th><th>01-Nov-2021</th><th>Reference&#xA0;Range</th><th>Unit</th></tr><tr><td>Creatinine [Mass/volume] in Blood</td><td>3.0</td><td>0.6 - 1.1</td><td>H</td><td>mg/dL</td></tr></table></div>"
        },
        "status": "final",
        "subject": {
          "reference": "urn:uuid:99e7935c-d836-4ea9-9547-ef91399b010f",
          "display": "Meaghan Neary"
        },
        "effectiveDateTime": "2021-11-01T22:11:04Z",
        "specimen": {
          "reference": "urn:uuid:a2d4b116-e13f-49cf-888f-daf8e391d840"
        }
      }
    },
    {
      "fullUrl": "urn:uuid:57b71d0c-cb8a-4c20-aa3e-79dbf0535541",
      "resource": {
        "resourceType": "Observation",
        "id": "57b71d0c-cb8a-4c20-aa3e-79dbf0535541",
        "meta": {
          "profile": [
            "http://hl7.eu/fhir/laboratory/StructureDefinition/Observation-resultslab-eu-lab"
          ]
        },
        "performer": [
          {
            "display": "The Central European Lab"
          }
        ],
        "category": [
          {
            "coding": [
              {
                "system": "http://terminology.hl7.org/CodeSystem/observation-category",
                "code": "laboratory"
              }
            ]
          }
        ],
        "code": {
          "coding": [
            {
              "code": "49765-1",
              "system": "http://loinc.org",
              "display": "Calcium [Mass/volume] in Blood"
            }
          ],
          "text": "Calcium [Mass/volume] in Blood"
        },
        "valueQuantity": {
          "system": "http://unitsofmeasure.org",
          "value": 10.2,
          "unit": "mg/dL",
          "code": "mg/dL"
        },
        "referenceRange": [
          {
            "low": {
              "value": 8.5,
              "code": "mg/dL",
              "system": "http://unitsofmeasure.org"
            }
          },
          {
            "high": {
              "value": 10.5,
              "code": "mg/dL",
              "system": "http://unitsofmeasure.org"
            }
          }
        ],
        "text": {
          "status": "generated",
          "div": "<div xmlns=\"http://www.w3.org/1999/xhtml\"><table class=\"hl7__eu__lab__report\"><tr><th>Test</th><th>01-Nov-2021</th><th>Reference&#xA0;Range</th><th>Unit</th></tr><tr><td>Calcium [Mass/volume] in Blood</td><td>10.2</td><td>8.5 - 10.5</td><td></td><td>mg/dL</td></tr></table></div>"
        },
        "status": "final",
        "subject": {
          "reference": "urn:uuid:99e7935c-d836-4ea9-9547-ef91399b010f",
          "display": "Meaghan Neary"
        },
        "effectiveDateTime": "2021-11-01T22:11:04Z",
        "specimen": {
          "reference": "urn:uuid:a2d4b116-e13f-49cf-888f-daf8e391d840"
        }
      }
    },
    {
      "fullUrl": "urn:uuid:b058230e-76a0-4b61-8bb1-7e9852c957b0",
      "resource": {
        "resourceType": "Observation",
        "id": "b058230e-76a0-4b61-8bb1-7e9852c957b0",
        "meta": {
          "profile": [
            "http://hl7.eu/fhir/laboratory/StructureDefinition/Observation-resultslab-eu-lab"
          ]
        },
        "performer": [
          {
            "display": "The Central European Lab"
          }
        ],
        "category": [
          {
            "coding": [
              {
                "system": "http://terminology.hl7.org/CodeSystem/observation-category",
                "code": "laboratory"
              }
            ]
          }
        ],
        "code": {
          "coding": [
            {
              "code": "2947-0",
              "system": "http://loinc.org",
              "display": "Sodium [Moles/volume] in Blood"
            }
          ],
          "text": "Sodium [Moles/volume] in Blood"
        },
        "valueQuantity": {
          "system": "http://unitsofmeasure.org",
          "value": 141.8,
          "unit": "mmol/L",
          "code": "mmol/L"
        },
        "referenceRange": [
          {
            "low": {
              "value": 135,
              "code": "mmol/L",
              "system": "http://unitsofmeasure.org"
            }
          },
          {
            "high": {
              "value": 145,
              "code": "mmol/L",
              "system": "http://unitsofmeasure.org"
            }
          }
        ],
        "text": {
          "status": "generated",
          "div": "<div xmlns=\"http://www.w3.org/1999/xhtml\"><table class=\"hl7__eu__lab__report\"><tr><th>Test</th><th>01-Nov-2021</th><th>Reference&#xA0;Range</th><th>Unit</th></tr><tr><td>Sodium [Moles/volume] in Blood</td><td>141.8</td><td>135 - 145</td><td></td><td>mmol/L</td></tr></table></div>"
        },
        "status": "final",
        "subject": {
          "reference": "urn:uuid:99e7935c-d836-4ea9-9547-ef91399b010f",
          "display": "Meaghan Neary"
        },
        "effectiveDateTime": "2021-11-01T22:11:04Z",
        "specimen": {
          "reference": "urn:uuid:a2d4b116-e13f-49cf-888f-daf8e391d840"
        }
      }
    },
    {
      "fullUrl": "urn:uuid:29137d55-382c-486c-9001-e42808b1e938",
      "resource": {
        "resourceType": "Observation",
        "id": "29137d55-382c-486c-9001-e42808b1e938",
        "meta": {
          "profile": [
            "http://hl7.eu/fhir/laboratory/StructureDefinition/Observation-resultslab-eu-lab"
          ]
        },
        "performer": [
          {
            "display": "The Central European Lab"
          }
        ],
        "category": [
          {
            "coding": [
              {
                "system": "http://terminology.hl7.org/CodeSystem/observation-category",
                "code": "laboratory"
              }
            ]
          }
        ],
        "code": {
          "coding": [
            {
              "code": "6298-4",
              "system": "http://loinc.org",
              "display": "Potassium [Moles/volume] in Blood"
            }
          ],
          "text": "Potassium [Moles/volume] in Blood"
        },
        "valueQuantity": {
          "system": "http://unitsofmeasure.org",
          "value": 4.6,
          "unit": "mmol/L",
          "code": "mmol/L"
        },
        "referenceRange": [
          {
            "low": {
              "value": 3.5,
              "code": "mmol/L",
              "system": "http://unitsofmeasure.org"
            }
          },
          {
            "high": {
              "value": 5.1,
              "code": "mmol/L",
              "system": "http://unitsofmeasure.org"
            }
          }
        ],
        "text": {
          "status": "generated",
          "div": "<div xmlns=\"http://www.w3.org/1999/xhtml\"><table class=\"hl7__eu__lab__report\"><tr><th>Test</th><th>01-Nov-2021</th><th>Reference&#xA0;Range</th><th>Unit</th></tr><tr><td>Potassium [Moles/volume] in Blood</td><td>4.6</td><td>3.5 - 5.1</td><td></td><td>mmol/L</td></tr></table></div>"
        },
        "status": "final",
        "subject": {
          "reference": "urn:uuid:99e7935c-d836-4ea9-9547-ef91399b010f",
          "display": "Meaghan Neary"
        },
        "effectiveDateTime": "2021-11-01T22:11:04Z",
        "specimen": {
          "reference": "urn:uuid:a2d4b116-e13f-49cf-888f-daf8e391d840"
        }
      }
    },
    {
      "fullUrl": "urn:uuid:573b6e6a-5922-497c-ba28-20ce918afbde",
      "resource": {
        "resourceType": "Observation",
        "id": "573b6e6a-5922-497c-ba28-20ce918afbde",
        "meta": {
          "profile": [
            "http://hl7.eu/fhir/laboratory/StructureDefinition/Observation-resultslab-eu-lab"
          ]
        },
        "performer": [
          {
            "display": "The Central European Lab"
          }
        ],
        "category": [
          {
            "coding": [
              {
                "system": "http://terminology.hl7.org/CodeSystem/observation-category",
                "code": "laboratory"
              }
            ]
          }
        ],
        "code": {
          "coding": [
            {
              "code": "2069-3",
              "system": "http://loinc.org",
              "display": "Chloride [Moles/volume] in Blood"
            }
          ],
          "text": "Chloride [Moles/volume] in Blood"
        },
        "valueQuantity": {
          "system": "http://unitsofmeasure.org",
          "value": 109,
          "unit": "mmol/L",
          "code": "mmol/L"
        },
        "referenceRange": [
          {
            "low": {
              "value": 98,
              "code": "mmol/L",
              "system": "http://unitsofmeasure.org"
            }
          },
          {
            "high": {
              "value": 108,
              "code": "mmol/L",
              "system": "http://unitsofmeasure.org"
            }
          }
        ],
        "interpretation": [
          {
            "coding": [
              {
                "code": "H",
                "system": "http://terminology.hl7.org/CodeSystem/v3-ObservationInterpretation",
                "display": "High"
              }
            ]
          }
        ],
        "text": {
          "status": "generated",
          "div": "<div xmlns=\"http://www.w3.org/1999/xhtml\"><table class=\"hl7__eu__lab__report\"><tr><th>Test</th><th>01-Nov-2021</th><th>Reference&#xA0;Range</th><th>Unit</th></tr><tr><td>Chloride [Moles/volume] in Blood</td><td>109.0</td><td>98 - 108</td><td>H</td><td>mmol/L</td></tr></table></div>"
        },
        "status": "final",
        "subject": {
          "reference": "urn:uuid:99e7935c-d836-4ea9-9547-ef91399b010f",
          "display": "Meaghan Neary"
        },
        "effectiveDateTime": "2021-11-01T22:11:04Z",
        "specimen": {
          "reference": "urn:uuid:a2d4b116-e13f-49cf-888f-daf8e391d840"
        }
      }
    },
    {
      "fullUrl": "urn:uuid:013b5c64-66e3-4f15-8434-d5d521de2905",
      "resource": {
        "resourceType": "Observation",
        "id": "013b5c64-66e3-4f15-8434-d5d521de2905",
        "meta": {
          "profile": [
            "http://hl7.eu/fhir/laboratory/StructureDefinition/Observation-resultslab-eu-lab"
          ]
        },
        "performer": [
          {
            "display": "The Central European Lab"
          }
        ],
        "category": [
          {
            "coding": [
              {
                "system": "http://terminology.hl7.org/CodeSystem/observation-category",
                "code": "laboratory"
              }
            ]
          }
        ],
        "code": {
          "coding": [
            {
              "code": "20565-8",
              "system": "http://loinc.org",
              "display": "Carbon dioxide, total [Moles/volume] in Blood"
            }
          ],
          "text": "Carbon dioxide, total [Moles/volume] in Blood"
        },
        "valueQuantity": {
          "system": "http://unitsofmeasure.org",
          "value": 24.1,
          "unit": "mmol/L",
          "code": "mmol/L"
        },
        "referenceRange": [
          {
            "low": {
              "value": 22,
              "code": "mmol/L",
              "system": "http://unitsofmeasure.org"
            }
          },
          {
            "high": {
              "value": 29,
              "code": "mmol/L",
              "system": "http://unitsofmeasure.org"
            }
          }
        ],
        "text": {
          "status": "generated",
          "div": "<div xmlns=\"http://www.w3.org/1999/xhtml\"><table class=\"hl7__eu__lab__report\"><tr><th>Test</th><th>01-Nov-2021</th><th>Reference&#xA0;Range</th><th>Unit</th></tr><tr><td>Carbon dioxide, total [Moles/volume] in Blood</td><td>24.1</td><td>22 - 29</td><td></td><td>mmol/L</td></tr></table></div>"
        },
        "status": "final",
        "subject": {
          "reference": "urn:uuid:99e7935c-d836-4ea9-9547-ef91399b010f",
          "display": "Meaghan Neary"
        },
        "effectiveDateTime": "2021-11-01T22:11:04Z",
        "specimen": {
          "reference": "urn:uuid:a2d4b116-e13f-49cf-888f-daf8e391d840"
        }
      }
    },
    {
      "fullUrl": "urn:uuid:65c59f99-bbc5-4be2-aea2-21130edd1ade",
      "resource": {
        "resourceType": "Device",
        "id": "65c59f99-bbc5-4be2-aea2-21130edd1ade",
        "deviceName": [
          {
            "name": "SYNDERAI Synthetic Generator",
            "type": "manufacturer-name"
          }
        ],
        "version": [
          {
            "value": "5.0"
          }
        ],
        "text": {
          "status": "generated",
          "div": "<div xmlns=\"http://www.w3.org/1999/xhtml\">SYNDERAI Synthetic Generator v5.0</div>"
        },
        "status": "active\"",
        "distinctIdentifier": "synderai-generator-50",
        "manufacturer": "SYNDERAI Project"
      }
    },
    {
      "fullUrl": "urn:uuid:06855355-32d3-4558-9203-0e79ba379899",
      "resource": {
        "resourceType": "Provenance",
        "id": "06855355-32d3-4558-9203-0e79ba379899",
        "target": [
          {
            "reference": "Patient/99e7935c-d836-4ea9-9547-ef91399b010f"
          },
          {
            "reference": "Bundle/fe2ef50f-5271-4688-93c8-d2631b8a8989"
          },
          {
            "reference": "Composition/987995a5-4830-4047-8939-97c521579d2d"
          },
          {
            "reference": "PractitionerRole/8167ab75-5fb8-4416-aa06-ba1b2b1b8ad6"
          },
          {
            "reference": "Practitioner/911c8e08-2381-4d2b-ba9f-6c03abc97bd1"
          },
          {
            "reference": "PractitionerRole/28456c48-e902-4f18-9b81-771a95577b64"
          },
          {
            "reference": "Organization/f744ae91-22bd-4630-92fa-878546d3a1e7"
          }
        ],
        "activity": {
          "text": "Synthetic Example Data Generation"
        },
        "policy": [
          "https://synderai.net/synderai-synthetic-data-policy"
        ],
        "agent": [
          {
            "type": {
              "text": "author"
            },
            "who": {
              "reference": "Device/65c59f99-bbc5-4be2-aea2-21130edd1ade"
            }
          }
        ],
        "reason": [
          {
            "text": "Interoperability Testing and Training (non-clinical use)"
          }
        ],
        "text": {
          "status": "generated",
          "div": "<div xmlns=\"http://www.w3.org/1999/xhtml\">Provenance for SYNDERAI Synthetic Example Data Resource</div>"
        },
        "recorded": "2021-11-01T23:11:04Z"
      }
    },
    {
      "fullUrl": "urn:uuid:8167ab75-5fb8-4416-aa06-ba1b2b1b8ad6",
      "resource": {
        "resourceType": "PractitionerRole",
        "id": "8167ab75-5fb8-4416-aa06-ba1b2b1b8ad6",
        "meta": {
          "profile": [
            "http://hl7.eu/fhir/base/StructureDefinition/practitionerRole-eu"
          ]
        },
        "text": {
          "status": "generated",
          "div": "<div xmlns=\"http://www.w3.org/1999/xhtml\">Laboratory Role Id: 8167ab75-5fb8-4416-aa06-ba1b2b1b8ad6</div>"
        },
        "practitioner": {
          "reference": "urn:uuid:911c8e08-2381-4d2b-ba9f-6c03abc97bd1"
        }
      }
    },
    {
      "fullUrl": "urn:uuid:911c8e08-2381-4d2b-ba9f-6c03abc97bd1",
      "resource": {
        "resourceType": "Practitioner",
        "id": "911c8e08-2381-4d2b-ba9f-6c03abc97bd1",
        "meta": {
          "profile": [
            "http://hl7.eu/fhir/base/StructureDefinition/practitioner-eu"
          ]
        },
        "identifier": [
          {
            "assigner": {
              "display": "HL7 Europe"
            },
            "system": "urn:oid:2.16.840.1.113883.2.51.999",
            "value": "447a96a4-ae05-4568-9a88-8b11e3b5cce6"
          }
        ],
        "name": [
          {
            "prefix": [
              "dr"
            ],
            "given": [
              "Ex"
            ],
            "family": "Ample"
          }
        ],
        "address": [
          {
            "line": [
              "Laboratoire Central Europenne",
              "Boulevard du Jardin Botanique 32"
            ],
            "postalCode": "1000",
            "city": "Brussels",
            "country": "Belgium"
          }
        ],
        "text": {
          "status": "generated",
          "div": "<div xmlns=\"http://www.w3.org/1999/xhtml\">Laboratory: Laboratoire Central Europenne, 1000 Brussels, Belgium</div>"
        }
      }
    }
  ],
  "type": "document",
  "timestamp": "2021-11-01T23:11:04Z"
}
