{
  "resourceType": "Bundle",
  "id": "23cc1a09-da1b-46e7-b44d-d745501c9be6",
  "meta": {
    "profile": [
      "http://hl7.eu/fhir/laboratory/StructureDefinition/Bundle-eu-lab"
    ]
  },
  "identifier": {
    "assigner": {
      "display": "HL7 Europe"
    },
    "system": "urn:oid:2.16.840.1.113883.2.51.999",
    "value": "f357909c-9694-4470-be0a-18859b85a178"
  },
  "entry": [
    {
      "fullUrl": "urn:uuid:89f40c9f-adcc-4710-bd72-c480e09052dd",
      "resource": {
        "resourceType": "Composition",
        "id": "89f40c9f-adcc-4710-bd72-c480e09052dd",
        "meta": {
          "profile": [
            "http://hl7.eu/fhir/laboratory/StructureDefinition/Composition-eu-lab"
          ]
        },
        "identifier": {
          "assigner": {
            "display": "HL7 Europe"
          },
          "system": "urn:oid:2.16.840.1.113883.2.51.999",
          "value": "483d7f2e-9f6c-47ae-9317-3e34a2b38e9f"
        },
        "author": [
          {
            "reference": "urn:uuid:e5a447b3-cb42-4f8d-8221-5385c7873821"
          }
        ],
        "category": [
          {
            "coding": [
              {
                "code": "26436-6",
                "system": "http://loinc.org",
                "display": "Laboratory studies (set)"
              }
            ]
          }
        ],
        "type": {
          "coding": [
            {
              "code": "11502-2",
              "system": "http://loinc.org",
              "display": "Laboratory report"
            }
          ],
          "text": "Laboratory Report"
        },
        "section": [
          {
            "code": {
              "coding": [
                {
                  "code": "26436-6",
                  "system": "http://loinc.org",
                  "display": "Laboratory studies (set)"
                }
              ],
              "text": "Laboratory studies"
            },
            "section": [
              {
                "code": {
                  "coding": [
                    {
                      "code": "$18719-5",
                      "system": "http://loinc.org",
                      "display": "Chemistry studies (set)"
                    }
                  ],
                  "text": "Chemistry"
                },
                "entry": [
                  {
                    "reference": "urn:uuid:e411a5f9-3a61-4aac-956a-d3a5d31b2baa"
                  }
                ],
                "text": {
                  "status": "generated",
                  "div": "<div xmlns=\"http://www.w3.org/1999/xhtml\"><h3>Chemistry</h3><table class=\"hl7__eu__lab__report\"><thead><tr><th>Test</th><th>29-OCT-2020</th><th>Reference&#xA0;Range</th><th>Unit</th></tr></thead><tbody><tr><td>Oxygen saturation in Arterial blood</td><td><strong>82.2 L</strong></td><td>95 - 100</td><td>%</td></tr></tbody></table></div>"
                },
                "title": "Chemistry"
              }
            ],
            "title": "Laboratory Report"
          },
          {
            "text": {
              "status": "generated",
              "div": "<div xmlns=\"http://www.w3.org/1999/xhtml\"><h3>Annotation</h3><table class=\"hl7__eu__lab__report\"><tr><th>Conclusion and Recommendations based on this report and previous findings known to us</th></tr><tr><td>The patient shows significantly reduced arterial oxygen saturation (82.2%, below the normal range of 95-100%), indicating hypoxemia. This finding suggests impaired pulmonary function or possible respiratory compromise and warrants urgent clinical evaluation and intervention.</td></tr></table></div>"
            },
            "code": {
              "coding": [
                {
                  "system": "http://loinc.org",
                  "code": "48767-8",
                  "display": "Annotation comment"
                }
              ]
            },
            "title": "Annotation comment"
          }
        ],
        "status": "final",
        "subject": {
          "reference": "urn:uuid:5f4d9cdd-63f3-41e4-a881-96b3cd991b18",
          "display": "Khalid Nilsson"
        },
        "date": "2020-10-29T00:04:23Z",
        "title": "Laboratory Report",
        "confidentiality": "N"
      }
    },
    {
      "fullUrl": "urn:uuid:f745d543-d3af-487f-b2ff-b6d64f8ad31c",
      "resource": {
        "resourceType": "DiagnosticReport",
        "id": "f745d543-d3af-487f-b2ff-b6d64f8ad31c",
        "meta": {
          "profile": [
            "http://hl7.eu/fhir/laboratory/StructureDefinition/DiagnosticReport-eu-lab"
          ]
        },
        "identifier": [
          {
            "assigner": {
              "display": "HL7 Europe"
            },
            "system": "urn:oid:2.16.840.1.113883.2.51.999",
            "value": "46141ccc-4f75-4070-8216-d4a853e5954d"
          }
        ],
        "extension": [
          {
            "url": "http://hl7.org/fhir/5.0/StructureDefinition/extension-DiagnosticReport.composition",
            "valueReference": {
              "reference": "urn:uuid:483d7f2e-9f6c-47ae-9317-3e34a2b38e9f"
            }
          }
        ],
        "category": [
          {
            "coding": [
              {
                "code": "26436-6",
                "system": "http://loinc.org",
                "display": "Laboratory studies (set)"
              }
            ]
          }
        ],
        "specimen": [
          {
            "reference": "urn:uuid:7e91e3bb-6b08-4fe2-88a4-b7d8271239c0"
          }
        ],
        "result": [
          {
            "reference": "urn:uuid:e411a5f9-3a61-4aac-956a-d3a5d31b2baa"
          }
        ],
        "status": "registered",
        "code": {
          "coding": [
            {
              "code": "11502-2",
              "system": "http://loinc.org",
              "display": "Laboratory report"
            }
          ]
        },
        "subject": {
          "reference": "urn:uuid:5f4d9cdd-63f3-41e4-a881-96b3cd991b18",
          "display": "Khalid Nilsson"
        }
      }
    },
    {
      "fullUrl": "urn:uuid:5f4d9cdd-63f3-41e4-a881-96b3cd991b18",
      "resource": {
        "resourceType": "Patient",
        "id": "5f4d9cdd-63f3-41e4-a881-96b3cd991b18",
        "meta": {
          "security": [
            {
              "system": "http://terminology.hl7.org/CodeSystem/v3-ActReason",
              "code": "HTEST"
            },
            {
              "system": "http://terminology.hl7.org/CodeSystem/v3-ActReason",
              "code": "TRAIN"
            }
          ],
          "tag": [
            {
              "system": "https://synderai.net/fhir/CodeSystem/tags",
              "code": "synthetic",
              "display": "SYNDERAI Synthetic data"
            }
          ],
          "profile": [
            "http://hl7.eu/fhir/base/StructureDefinition/patient-eu-core"
          ]
        },
        "identifier": [
          {
            "type": {
              "coding": [
                {
                  "code": "PT",
                  "system": "http://terminology.hl7.org/CodeSystem/v2-0203"
                }
              ]
            },
            "system": "http://ec.europa.eu/identifier/eci",
            "value": "8339-594203-6"
          },
          {
            "type": {
              "coding": [
                {
                  "code": "MR",
                  "system": "http://terminology.hl7.org/CodeSystem/v2-0203"
                }
              ]
            },
            "system": "http://local.setting.eu/identifier",
            "value": "db9680f4-3d2c-0551-cb1c-61573f88f405"
          }
        ],
        "name": [
          {
            "family": "Nilsson"
          },
          {
            "given": [
              "Khalid"
            ]
          },
          {
            "text": "Khalid Nilsson"
          }
        ],
        "address": [
          {
            "line": [
              "Gengränd 482"
            ],
            "use": "home",
            "type": "physical",
            "postalCode": "691 31",
            "city": "Karlskoga",
            "country": "Sweden"
          }
        ],
        "telecom": [
          {
            "system": "phone",
            "value": "+46 (0)8 888 657 95"
          }
        ],
        "extension": [
          {
            "url": "http://hl7.org/fhir/StructureDefinition/patient-nationality",
            "valueCodeableConcept": {
              "coding": [
                {
                  "code": "SE",
                  "system": "http://hl7.org/fhir/ValueSet/country"
                }
              ]
            }
          }
        ],
        "text": {
          "status": "generated",
          "div": "<div xmlns=\"http://www.w3.org/1999/xhtml\"><table class=\"hl7__ips\"><tr><td>Khalid Nilsson</td><td>male</td><td>10-Apr-1952</td></tr></table></div>"
        },
        "gender": "male",
        "birthDate": "1952-04-10"
      }
    },
    {
      "fullUrl": "urn:uuid:140f7b4b-b832-40c5-9e60-505fcd1aa92d",
      "resource": {
        "resourceType": "ServiceRequest",
        "id": "140f7b4b-b832-40c5-9e60-505fcd1aa92d",
        "meta": {
          "profile": [
            "http://hl7.eu/fhir/laboratory/StructureDefinition/ServiceRequest-eu-lab"
          ]
        },
        "identifier": [
          {
            "system": "http://example.org",
            "value": "566b06ee-656e-446a-9948-baca5125640b"
          }
        ],
        "specimen": [
          {
            "reference": "urn:uuid:7e91e3bb-6b08-4fe2-88a4-b7d8271239c0"
          }
        ],
        "reasonCode": [
          {
            "coding": [
              {
                "code": "64859006",
                "system": "http://snomed.info/sct",
                "display": "Osteoporosis"
              }
            ]
          },
          {
            "coding": [
              {
                "code": "196416002",
                "system": "http://snomed.info/sct",
                "display": "Impacted molars"
              }
            ]
          },
          {
            "coding": [
              {
                "code": "414545008",
                "system": "http://snomed.info/sct",
                "display": "Ischemic heart disease"
              }
            ]
          },
          {
            "coding": [
              {
                "code": "40055000",
                "system": "http://snomed.info/sct",
                "display": "Chronic sinusitis"
              }
            ]
          },
          {
            "coding": [
              {
                "code": "197927001",
                "system": "http://snomed.info/sct",
                "display": "Recurrent urinary tract infection"
              }
            ]
          },
          {
            "coding": [
              {
                "code": "15777000",
                "system": "http://snomed.info/sct",
                "display": "Prediabetes"
              }
            ]
          },
          {
            "coding": [
              {
                "code": "271737000",
                "system": "http://snomed.info/sct",
                "display": "Anemia"
              }
            ]
          }
        ],
        "status": "active",
        "intent": "order",
        "code": {
          "coding": [
            {
              "code": "108252007",
              "system": "http://snomed.info/sct",
              "display": "Laboratory procedure"
            }
          ]
        },
        "subject": {
          "reference": "urn:uuid:5f4d9cdd-63f3-41e4-a881-96b3cd991b18",
          "display": "Khalid Nilsson"
        },
        "requester": {
          "reference": "urn:uuid:d4007acc-e3d9-4f3c-8c74-4201ba38ef0e"
        }
      }
    },
    {
      "fullUrl": "urn:uuid:d4007acc-e3d9-4f3c-8c74-4201ba38ef0e",
      "resource": {
        "resourceType": "PractitionerRole",
        "id": "d4007acc-e3d9-4f3c-8c74-4201ba38ef0e",
        "meta": {
          "profile": [
            "http://hl7.eu/fhir/base/StructureDefinition/practitionerRole-eu"
          ]
        },
        "text": {
          "status": "generated",
          "div": "<div xmlns=\"http://www.w3.org/1999/xhtml\">Provider Role Id: d4007acc-e3d9-4f3c-8c74-4201ba38ef0e</div>"
        },
        "organization": {
          "reference": "urn:uuid:1a32f724-ed2f-43dc-92ed-482866b70e13"
        }
      }
    },
    {
      "fullUrl": "urn:uuid:1a32f724-ed2f-43dc-92ed-482866b70e13",
      "resource": {
        "resourceType": "Organization",
        "id": "1a32f724-ed2f-43dc-92ed-482866b70e13",
        "meta": {
          "profile": [
            "http://hl7.eu/fhir/base/StructureDefinition/organization-eu"
          ]
        },
        "identifier": [
          {
            "assigner": {
              "display": "HL7 Europe"
            },
            "system": "urn:oid:2.16.840.1.113883.2.51.999",
            "value": "e8d5da83-4234-49b5-ba31-335ad1869a8a"
          }
        ],
        "address": [
          {
            "city": "Karlskoga",
            "postalCode": "691 31",
            "country": "Sweden"
          }
        ],
        "text": {
          "status": "generated",
          "div": "<div xmlns=\"http://www.w3.org/1999/xhtml\">Provider Organization: Karlskoga Lasarett</div>"
        },
        "name": "Karlskoga Lasarett"
      }
    },
    {
      "fullUrl": "urn:uuid:7e91e3bb-6b08-4fe2-88a4-b7d8271239c0",
      "resource": {
        "resourceType": "Specimen",
        "id": "7e91e3bb-6b08-4fe2-88a4-b7d8271239c0",
        "meta": {
          "profile": [
            "http://hl7.eu/fhir/laboratory/StructureDefinition/Specimen-eu-lab"
          ]
        },
        "collection": {
          "collectedDateTime": "2020-10-28"
        },
        "text": {
          "status": "generated",
          "div": "<div xmlns=\"http://www.w3.org/1999/xhtml\"><table class=\"hl7__eu__lab__report\"><tr><th>Specimen</th><th>Collection Date</th></tr><tr><td>Arterial blood specimen</td><td><span class=\"nb\">28-Oct-2020</span></td></tr></table></div>"
        },
        "type": {
          "coding": [
            {
              "code": "122552005",
              "system": "http://snomed.info/sct",
              "display": "Arterial blood specimen"
            }
          ]
        }
      }
    },
    {
      "fullUrl": "urn:uuid:e411a5f9-3a61-4aac-956a-d3a5d31b2baa",
      "resource": {
        "resourceType": "Observation",
        "id": "e411a5f9-3a61-4aac-956a-d3a5d31b2baa",
        "meta": {
          "profile": [
            "http://hl7.eu/fhir/laboratory/StructureDefinition/Observation-resultslab-eu-lab"
          ]
        },
        "performer": [
          {
            "display": "The Central European Lab"
          }
        ],
        "category": [
          {
            "coding": [
              {
                "system": "http://terminology.hl7.org/CodeSystem/observation-category",
                "code": "laboratory"
              }
            ]
          }
        ],
        "code": {
          "coding": [
            {
              "code": "2708-6",
              "system": "http://loinc.org",
              "display": "Oxygen saturation in Arterial blood"
            }
          ],
          "text": "Oxygen saturation in Arterial blood"
        },
        "valueQuantity": {
          "system": "http://unitsofmeasure.org",
          "value": 82.2,
          "unit": "%",
          "code": "%"
        },
        "referenceRange": [
          {
            "low": {
              "value": 95,
              "code": "%",
              "system": "http://unitsofmeasure.org"
            }
          },
          {
            "high": {
              "value": 100,
              "code": "%",
              "system": "http://unitsofmeasure.org"
            }
          }
        ],
        "interpretation": [
          {
            "coding": [
              {
                "code": "L",
                "system": "http://terminology.hl7.org/CodeSystem/v3-ObservationInterpretation",
                "display": "Low"
              }
            ]
          }
        ],
        "text": {
          "status": "generated",
          "div": "<div xmlns=\"http://www.w3.org/1999/xhtml\"><table class=\"hl7__eu__lab__report\"><tr><th>Test</th><th>29-Oct-2020</th><th>Reference&#xA0;Range</th><th>Unit</th></tr><tr><td>Oxygen saturation in Arterial blood</td><td>82.2</td><td>95 - 100</td><td>L</td><td>%</td></tr></table></div>"
        },
        "status": "final",
        "subject": {
          "reference": "urn:uuid:5f4d9cdd-63f3-41e4-a881-96b3cd991b18",
          "display": "Khalid Nilsson"
        },
        "effectiveDateTime": "2020-10-28T23:04:23Z",
        "specimen": {
          "reference": "urn:uuid:7e91e3bb-6b08-4fe2-88a4-b7d8271239c0"
        }
      }
    },
    {
      "fullUrl": "urn:uuid:00d5e74e-73f8-4df9-8c91-113bb4e699a7",
      "resource": {
        "resourceType": "Device",
        "id": "00d5e74e-73f8-4df9-8c91-113bb4e699a7",
        "deviceName": [
          {
            "name": "SYNDERAI Synthetic Generator",
            "type": "manufacturer-name"
          }
        ],
        "version": [
          {
            "value": "5.0"
          }
        ],
        "text": {
          "status": "generated",
          "div": "<div xmlns=\"http://www.w3.org/1999/xhtml\">SYNDERAI Synthetic Generator v5.0</div>"
        },
        "status": "active\"",
        "distinctIdentifier": "synderai-generator-50",
        "manufacturer": "SYNDERAI Project"
      }
    },
    {
      "fullUrl": "urn:uuid:f09d5254-b954-48fe-968d-11913e29343c",
      "resource": {
        "resourceType": "Provenance",
        "id": "f09d5254-b954-48fe-968d-11913e29343c",
        "target": [
          {
            "reference": "Patient/5f4d9cdd-63f3-41e4-a881-96b3cd991b18"
          },
          {
            "reference": "Bundle/23cc1a09-da1b-46e7-b44d-d745501c9be6"
          },
          {
            "reference": "Composition/89f40c9f-adcc-4710-bd72-c480e09052dd"
          },
          {
            "reference": "PractitionerRole/e5a447b3-cb42-4f8d-8221-5385c7873821"
          },
          {
            "reference": "Practitioner/9b8dd21a-eed8-4a1d-bf9e-0dabd6dfdf21"
          },
          {
            "reference": "PractitionerRole/d4007acc-e3d9-4f3c-8c74-4201ba38ef0e"
          },
          {
            "reference": "Organization/1a32f724-ed2f-43dc-92ed-482866b70e13"
          }
        ],
        "activity": {
          "text": "Synthetic Example Data Generation"
        },
        "policy": [
          "https://synderai.net/synderai-synthetic-data-policy"
        ],
        "agent": [
          {
            "type": {
              "text": "author"
            },
            "who": {
              "reference": "Device/00d5e74e-73f8-4df9-8c91-113bb4e699a7"
            }
          }
        ],
        "reason": [
          {
            "text": "Interoperability Testing and Training (non-clinical use)"
          }
        ],
        "text": {
          "status": "generated",
          "div": "<div xmlns=\"http://www.w3.org/1999/xhtml\">Provenance for SYNDERAI Synthetic Example Data Resource</div>"
        },
        "recorded": "2020-10-29T00:04:23Z"
      }
    },
    {
      "fullUrl": "urn:uuid:e5a447b3-cb42-4f8d-8221-5385c7873821",
      "resource": {
        "resourceType": "PractitionerRole",
        "id": "e5a447b3-cb42-4f8d-8221-5385c7873821",
        "meta": {
          "profile": [
            "http://hl7.eu/fhir/base/StructureDefinition/practitionerRole-eu"
          ]
        },
        "text": {
          "status": "generated",
          "div": "<div xmlns=\"http://www.w3.org/1999/xhtml\">Laboratory Role Id: e5a447b3-cb42-4f8d-8221-5385c7873821</div>"
        },
        "practitioner": {
          "reference": "urn:uuid:9b8dd21a-eed8-4a1d-bf9e-0dabd6dfdf21"
        }
      }
    },
    {
      "fullUrl": "urn:uuid:9b8dd21a-eed8-4a1d-bf9e-0dabd6dfdf21",
      "resource": {
        "resourceType": "Practitioner",
        "id": "9b8dd21a-eed8-4a1d-bf9e-0dabd6dfdf21",
        "meta": {
          "profile": [
            "http://hl7.eu/fhir/base/StructureDefinition/practitioner-eu"
          ]
        },
        "identifier": [
          {
            "assigner": {
              "display": "HL7 Europe"
            },
            "system": "urn:oid:2.16.840.1.113883.2.51.999",
            "value": "fc7ae02c-0171-4808-933f-7ec2b477121d"
          }
        ],
        "name": [
          {
            "prefix": [
              "dr"
            ],
            "given": [
              "Ex"
            ],
            "family": "Ample"
          }
        ],
        "address": [
          {
            "line": [
              "Laboratoire Central Européenne",
              "Boulevard du Jardin Botanique 32"
            ],
            "postalCode": "1000",
            "city": "Brussels",
            "country": "Belgium"
          }
        ],
        "text": {
          "status": "generated",
          "div": "<div xmlns=\"http://www.w3.org/1999/xhtml\">Laboratory: Laboratoire Central Européenne, 1000 Brussels, Belgium</div>"
        }
      }
    }
  ],
  "type": "document",
  "timestamp": "2020-10-29T00:04:23Z"
}
