{
  "resourceType": "Bundle",
  "id": "2d13cfc8-9fb3-40e2-9f3b-728d807bd93a",
  "meta": {
    "profile": [
      "http://hl7.eu/fhir/laboratory/StructureDefinition/Bundle-eu-lab"
    ]
  },
  "identifier": {
    "assigner": {
      "display": "HL7 Europe"
    },
    "system": "urn:oid:2.16.840.1.113883.2.51.999",
    "value": "6b3c2e77-4086-4c3e-91a5-d078b118df30"
  },
  "entry": [
    {
      "fullUrl": "urn:uuid:5fe21828-e3e9-46a1-b150-6f589ae9bffe",
      "resource": {
        "resourceType": "Composition",
        "id": "5fe21828-e3e9-46a1-b150-6f589ae9bffe",
        "meta": {
          "profile": [
            "http://hl7.eu/fhir/laboratory/StructureDefinition/Composition-eu-lab"
          ]
        },
        "identifier": {
          "assigner": {
            "display": "HL7 Europe"
          },
          "system": "urn:oid:2.16.840.1.113883.2.51.999",
          "value": "72cc4813-a72c-46b7-8145-9ad61f3fd8bd"
        },
        "author": [
          {
            "reference": "urn:uuid:f1710115-1976-4815-ba00-86a07183fc71"
          }
        ],
        "category": [
          {
            "coding": [
              {
                "code": "26436-6",
                "system": "http://loinc.org",
                "display": "Laboratory studies (set)"
              }
            ]
          }
        ],
        "type": {
          "coding": [
            {
              "code": "11502-2",
              "system": "http://loinc.org",
              "display": "Laboratory report"
            }
          ],
          "text": "Laboratory Report"
        },
        "section": [
          {
            "code": {
              "coding": [
                {
                  "code": "26436-6",
                  "system": "http://loinc.org",
                  "display": "Laboratory studies (set)"
                }
              ],
              "text": "Laboratory studies"
            },
            "section": [
              {
                "code": {
                  "coding": [
                    {
                      "code": "$18719-5",
                      "system": "http://loinc.org",
                      "display": "Chemistry studies (set)"
                    }
                  ],
                  "text": "Chemistry"
                },
                "entry": [
                  {
                    "reference": "urn:uuid:9ee9870c-8dbe-43cf-a498-0aeb174f5f49"
                  },
                  {
                    "reference": "urn:uuid:c53c7630-1dbd-4d44-b7d1-26570d7a30a6"
                  },
                  {
                    "reference": "urn:uuid:fc7c8253-09ea-4f6c-bea0-6479241b4e88"
                  },
                  {
                    "reference": "urn:uuid:bbc99692-1587-435c-a1a6-78adccb9dcb6"
                  },
                  {
                    "reference": "urn:uuid:7914eb3e-5965-40ee-8e3a-7d4cabaf1235"
                  },
                  {
                    "reference": "urn:uuid:08996f26-0ff6-4b7e-921f-6666737e5e20"
                  },
                  {
                    "reference": "urn:uuid:c35b2e4a-f701-4123-b676-9ec63fc081e2"
                  },
                  {
                    "reference": "urn:uuid:9c6f41a9-4899-4a35-b543-f9455b5eebe5"
                  },
                  {
                    "reference": "urn:uuid:33d90d0f-204d-481b-861d-5093a3b5c284"
                  },
                  {
                    "reference": "urn:uuid:a8208c44-31fa-46b8-a071-6425042f4f00"
                  },
                  {
                    "reference": "urn:uuid:a81044f7-e08b-4bb2-9b72-7faf6ed95503"
                  },
                  {
                    "reference": "urn:uuid:6a81dd41-780a-4069-af7d-aed04d296e72"
                  },
                  {
                    "reference": "urn:uuid:c11c4f9b-d7d6-4cf5-83f3-64f25b4121e6"
                  },
                  {
                    "reference": "urn:uuid:3b27670b-ff9e-4dfa-a300-d88eaf7cda4e"
                  },
                  {
                    "reference": "urn:uuid:29f7f0cd-a9c2-43d3-bfbf-438e406d85eb"
                  },
                  {
                    "reference": "urn:uuid:24162d8a-01b7-421d-915f-50b13655c224"
                  },
                  {
                    "reference": "urn:uuid:7588091c-a9d8-420e-b014-2c0804a7277d"
                  },
                  {
                    "reference": "urn:uuid:444e7f1a-6fc8-41ee-9ec3-3acd29f57bd5"
                  }
                ],
                "text": {
                  "status": "generated",
                  "div": "<div xmlns=\"http://www.w3.org/1999/xhtml\"><h3>Chemistry</h3><table class=\"hl7__eu__lab__report\"><thead><tr><th>Test</th><th>11-JUN-2023</th><th>Reference&#xA0;Range</th><th>Unit</th></tr></thead><tbody><tr><td>Glucose [Mass/volume] in Serum or Plasma</td><td>79.2</td><td>70 - 99</td><td>mg/dL</td></tr><tr><td>Urea nitrogen [Mass/volume] in Serum or Plasma</td><td>19.3</td><td>7 - 20</td><td>mg/dL</td></tr><tr><td>Creatinine [Mass/volume] in Serum or Plasma</td><td><strong>2.1 H</strong></td><td>0.6 - 1.3</td><td>mg/dL</td></tr><tr><td>Calcium [Mass/volume] in Serum or Plasma</td><td>9.3</td><td>8.6 - 10.4</td><td>mg/dL</td></tr><tr><td>Sodium [Moles/volume] in Serum or Plasma</td><td>140.0</td><td>135 - 145</td><td>mmol/L</td></tr><tr><td>Potassium [Moles/volume] in Serum or Plasma</td><td>3.8</td><td>3.5 - 5</td><td>mmol/L</td></tr><tr><td>Chloride [Moles/volume] in Serum or Plasma</td><td><strong>107.1 H</strong></td><td>98 - 106</td><td>mmol/L</td></tr><tr><td>Carbon dioxide, total [Moles/volume] in Serum or Plasma</td><td>27.3</td><td>22 - 29</td><td>mmol/L</td></tr><tr><td>Ketones [Presence] in Urine by Test strip</td><td>Urine ketone test = +</td><td></td><td></td></tr><tr><td>Hemoglobin A1c/Hemoglobin.total in Blood</td><td><strong>3.1 L</strong></td><td>4 - 6</td><td>%</td></tr><tr><td>Glucose [Mass/volume] in Blood</td><td>79.2</td><td>70 - 140</td><td>mg/dL</td></tr><tr><td>Urea nitrogen [Mass/volume] in Blood</td><td>19.3</td><td>7 - 25</td><td>mg/dL</td></tr><tr><td>Creatinine [Mass/volume] in Blood</td><td><strong>1.5 H</strong></td><td>0.6 - 1.1</td><td>mg/dL</td></tr><tr><td>Calcium [Mass/volume] in Blood</td><td>9.3</td><td>8.6 - 10.4</td><td>mg/dL</td></tr><tr><td>Sodium [Moles/volume] in Blood</td><td>140.0</td><td>135 - 145</td><td>mmol/L</td></tr><tr><td>Potassium [Moles/volume] in Blood</td><td>3.8</td><td>3.5 - 5.1</td><td>mmol/L</td></tr><tr><td>Chloride [Moles/volume] in Blood</td><td>107.1</td><td>98 - 110</td><td>mmol/L</td></tr><tr><td>Carbon dioxide, total [Moles/volume] in Blood</td><td>27.3</td><td>22 - 29</td><td>mmol/L</td></tr></tbody></table></div>"
                },
                "title": "Chemistry"
              },
              {
                "code": {
                  "coding": [
                    {
                      "code": "$18729-4",
                      "system": "http://loinc.org",
                      "display": "Urinalysis studies (set)"
                    }
                  ],
                  "text": "Urinalysis"
                },
                "entry": [
                  {
                    "reference": "urn:uuid:e2c245a4-25a2-478e-a5fa-0f85e0db07e8"
                  },
                  {
                    "reference": "urn:uuid:357f9d72-ac7f-429a-affc-3f8b186528d3"
                  },
                  {
                    "reference": "urn:uuid:8ae5c262-5c75-48fa-93ed-261bcc5fc2b2"
                  },
                  {
                    "reference": "urn:uuid:04573858-2ac5-412c-a83c-2cce989e5159"
                  },
                  {
                    "reference": "urn:uuid:291c2e93-7720-492e-b9e3-78a3951a0bdf"
                  },
                  {
                    "reference": "urn:uuid:4a1d67c1-7fd2-48fa-921b-241deca7d86e"
                  },
                  {
                    "reference": "urn:uuid:4bba8a6b-6c88-45a4-b7d7-3fc99465c2ab"
                  },
                  {
                    "reference": "urn:uuid:d4b457b3-413c-4acc-b498-7c5d045b2140"
                  },
                  {
                    "reference": "urn:uuid:8ee060a4-b20e-4177-af33-d1e46712838f"
                  },
                  {
                    "reference": "urn:uuid:75c026d4-1a77-46a0-9b18-22a7b20a6f0a"
                  },
                  {
                    "reference": "urn:uuid:0ad6e424-1980-4c8f-9e02-4c9892bd68be"
                  },
                  {
                    "reference": "urn:uuid:96b8f1d8-c88d-4183-bfdd-1c22b9ec2448"
                  }
                ],
                "text": {
                  "status": "generated",
                  "div": "<div xmlns=\"http://www.w3.org/1999/xhtml\"><h3>Urinalysis</h3><table class=\"hl7__eu__lab__report\"><thead><tr><th>Test</th><th>11-JUN-2023</th><th>Reference&#xA0;Range</th><th>Unit</th></tr></thead><tbody><tr><td>Glucose [Mass/volume] in Urine by Test strip</td><td><strong>2.2 H</strong></td><td>0 - 0.8</td><td>mg/dL</td></tr><tr><td>Glucose [Presence] in Urine by Test strip</td><td>++</td><td></td><td></td></tr><tr><td>Bilirubin.total [Mass/volume] in Urine by Test strip</td><td><strong>1.1 H</strong></td><td>0 - 1</td><td>mg/dL</td></tr><tr><td>Bilirubin.total [Presence] in Urine by Test strip</td><td>Finding of bilirubin in urine</td><td></td><td></td></tr><tr><td>Ketones [Mass/volume] in Urine by Test strip</td><td><strong>4.4 H</strong></td><td>0 - 4</td><td>mg/dL</td></tr><tr><td>Specific gravity of Urine by Test strip</td><td><strong>1.0 L</strong></td><td>1.005 - 1.03</td><td>{nominal}</td></tr><tr><td>pH of Urine by Test strip</td><td>7.0</td><td>4.5 - 7</td><td>pH</td></tr><tr><td>Protein [Mass/volume] in Urine by Test strip</td><td><strong>268.8 H</strong></td><td>0 - 145</td><td>mg/dL</td></tr><tr><td>Protein [Presence] in Urine by Test strip</td><td>Urine protein test = ++</td><td></td><td></td></tr><tr><td>Nitrite [Presence] in Urine by Test strip</td><td>Urine nitrite negative</td><td></td><td></td></tr><tr><td>Hemoglobin [Presence] in Urine by Test strip</td><td>Urine blood test = negative</td><td></td><td></td></tr><tr><td>Leukocyte esterase [Presence] in Urine by Test strip</td><td>Urine leukocyte test negative</td><td></td><td></td></tr></tbody></table></div>"
                },
                "title": "Urinalysis"
              },
              {
                "code": {
                  "coding": [
                    {
                      "code": "$LP7846-1",
                      "system": "http://loinc.org",
                      "display": "Specimen information"
                    }
                  ],
                  "text": "Specimen information"
                },
                "entry": [
                  {
                    "reference": "urn:uuid:e1d2ea45-74db-4344-a23e-3b5ea90488c1"
                  },
                  {
                    "reference": "urn:uuid:5b4414e4-ceaf-41af-9d1d-21967e054974"
                  },
                  {
                    "reference": "urn:uuid:bb0bdf2a-ebea-409b-8b61-e97cbb1ebc1c"
                  },
                  {
                    "reference": "urn:uuid:f077cf19-23a1-45ad-b328-bfc37bd6274e"
                  }
                ],
                "text": {
                  "status": "generated",
                  "div": "<div xmlns=\"http://www.w3.org/1999/xhtml\"><h3>Specimen information</h3><table class=\"hl7__eu__lab__report\"><thead><tr><th>Test</th><th>11-JUN-2023</th><th>Specimen</th><th></th></tr></thead><tbody><tr><td>Appearance of Urine</td><td>Cloudy urine</td><td>Urine</td><td></td></tr><tr><td>Odor of Urine</td><td>Urine smell ammoniacal</td><td>Urine</td><td></td></tr><tr><td>Clarity of Urine</td><td>Translucent</td><td>Urine</td><td></td></tr><tr><td>Color of Urine</td><td>Brown color</td><td>Urine</td><td></td></tr></tbody></table></div>"
                },
                "title": "Specimen information"
              }
            ],
            "title": "Laboratory Report"
          },
          {
            "text": {
              "status": "generated",
              "div": "<div xmlns=\"http://www.w3.org/1999/xhtml\"><h3>Annotation</h3><table class=\"hl7__eu__lab__report\"><tr><th>Conclusion and Recommendations based on this report and previous findings known to us</th></tr><tr><td>The patient shows elevated creatinine, proteinuria, glucosuria, ketonuria, and bilirubinuria, with low urine specific gravity and abnormal urine appearance, suggesting impaired renal function and possible tubular damage. Blood glucose and HbA1c are not elevated, making diabetes less likely. Urine findings may indicate underlying renal pathology (e.g., glomerulonephritis, tubular disorder) and possible liver involvement. Recommend further nephrological and hepatological evaluation.</td></tr></table></div>"
            },
            "code": {
              "coding": [
                {
                  "system": "http://loinc.org",
                  "code": "48767-8",
                  "display": "Annotation comment"
                }
              ]
            },
            "title": "Annotation comment"
          }
        ],
        "status": "final",
        "subject": {
          "reference": "urn:uuid:8b259a51-5380-497a-a108-d972e50720e9",
          "display": "Iva Kratochvílová"
        },
        "date": "2023-06-11T18:10:29Z",
        "title": "Laboratory Report",
        "confidentiality": "N"
      }
    },
    {
      "fullUrl": "urn:uuid:df25ab7f-3b66-4fe8-9fca-3a0fa83a641a",
      "resource": {
        "resourceType": "DiagnosticReport",
        "id": "df25ab7f-3b66-4fe8-9fca-3a0fa83a641a",
        "meta": {
          "profile": [
            "http://hl7.eu/fhir/laboratory/StructureDefinition/DiagnosticReport-eu-lab"
          ]
        },
        "identifier": [
          {
            "assigner": {
              "display": "HL7 Europe"
            },
            "system": "urn:oid:2.16.840.1.113883.2.51.999",
            "value": "069b4212-3cb2-4b26-9ba2-a99c081f6e6f"
          }
        ],
        "extension": [
          {
            "url": "http://hl7.org/fhir/5.0/StructureDefinition/extension-DiagnosticReport.composition",
            "valueReference": {
              "reference": "urn:uuid:72cc4813-a72c-46b7-8145-9ad61f3fd8bd"
            }
          }
        ],
        "category": [
          {
            "coding": [
              {
                "code": "26436-6",
                "system": "http://loinc.org",
                "display": "Laboratory studies (set)"
              }
            ]
          }
        ],
        "specimen": [
          {
            "reference": "urn:uuid:215e2a91-0d43-4cc5-b7bb-85c7e87e2bfb"
          },
          {
            "reference": "urn:uuid:e8a76379-31e3-4d45-9145-2822c95fbda9"
          },
          {
            "reference": "urn:uuid:4e753f93-c387-418a-ab31-e5c817155778"
          }
        ],
        "result": [
          {
            "reference": "urn:uuid:9ee9870c-8dbe-43cf-a498-0aeb174f5f49"
          },
          {
            "reference": "urn:uuid:c53c7630-1dbd-4d44-b7d1-26570d7a30a6"
          },
          {
            "reference": "urn:uuid:fc7c8253-09ea-4f6c-bea0-6479241b4e88"
          },
          {
            "reference": "urn:uuid:bbc99692-1587-435c-a1a6-78adccb9dcb6"
          },
          {
            "reference": "urn:uuid:7914eb3e-5965-40ee-8e3a-7d4cabaf1235"
          },
          {
            "reference": "urn:uuid:08996f26-0ff6-4b7e-921f-6666737e5e20"
          },
          {
            "reference": "urn:uuid:c35b2e4a-f701-4123-b676-9ec63fc081e2"
          },
          {
            "reference": "urn:uuid:9c6f41a9-4899-4a35-b543-f9455b5eebe5"
          },
          {
            "reference": "urn:uuid:e1d2ea45-74db-4344-a23e-3b5ea90488c1"
          },
          {
            "reference": "urn:uuid:5b4414e4-ceaf-41af-9d1d-21967e054974"
          },
          {
            "reference": "urn:uuid:bb0bdf2a-ebea-409b-8b61-e97cbb1ebc1c"
          },
          {
            "reference": "urn:uuid:f077cf19-23a1-45ad-b328-bfc37bd6274e"
          },
          {
            "reference": "urn:uuid:e2c245a4-25a2-478e-a5fa-0f85e0db07e8"
          },
          {
            "reference": "urn:uuid:357f9d72-ac7f-429a-affc-3f8b186528d3"
          },
          {
            "reference": "urn:uuid:8ae5c262-5c75-48fa-93ed-261bcc5fc2b2"
          },
          {
            "reference": "urn:uuid:04573858-2ac5-412c-a83c-2cce989e5159"
          },
          {
            "reference": "urn:uuid:291c2e93-7720-492e-b9e3-78a3951a0bdf"
          },
          {
            "reference": "urn:uuid:33d90d0f-204d-481b-861d-5093a3b5c284"
          },
          {
            "reference": "urn:uuid:4a1d67c1-7fd2-48fa-921b-241deca7d86e"
          },
          {
            "reference": "urn:uuid:4bba8a6b-6c88-45a4-b7d7-3fc99465c2ab"
          },
          {
            "reference": "urn:uuid:d4b457b3-413c-4acc-b498-7c5d045b2140"
          },
          {
            "reference": "urn:uuid:8ee060a4-b20e-4177-af33-d1e46712838f"
          },
          {
            "reference": "urn:uuid:75c026d4-1a77-46a0-9b18-22a7b20a6f0a"
          },
          {
            "reference": "urn:uuid:0ad6e424-1980-4c8f-9e02-4c9892bd68be"
          },
          {
            "reference": "urn:uuid:96b8f1d8-c88d-4183-bfdd-1c22b9ec2448"
          },
          {
            "reference": "urn:uuid:a8208c44-31fa-46b8-a071-6425042f4f00"
          },
          {
            "reference": "urn:uuid:a81044f7-e08b-4bb2-9b72-7faf6ed95503"
          },
          {
            "reference": "urn:uuid:6a81dd41-780a-4069-af7d-aed04d296e72"
          },
          {
            "reference": "urn:uuid:c11c4f9b-d7d6-4cf5-83f3-64f25b4121e6"
          },
          {
            "reference": "urn:uuid:3b27670b-ff9e-4dfa-a300-d88eaf7cda4e"
          },
          {
            "reference": "urn:uuid:29f7f0cd-a9c2-43d3-bfbf-438e406d85eb"
          },
          {
            "reference": "urn:uuid:24162d8a-01b7-421d-915f-50b13655c224"
          },
          {
            "reference": "urn:uuid:7588091c-a9d8-420e-b014-2c0804a7277d"
          },
          {
            "reference": "urn:uuid:444e7f1a-6fc8-41ee-9ec3-3acd29f57bd5"
          }
        ],
        "status": "registered",
        "code": {
          "coding": [
            {
              "code": "11502-2",
              "system": "http://loinc.org",
              "display": "Laboratory report"
            }
          ]
        },
        "subject": {
          "reference": "urn:uuid:8b259a51-5380-497a-a108-d972e50720e9",
          "display": "Iva Kratochvílová"
        }
      }
    },
    {
      "fullUrl": "urn:uuid:8b259a51-5380-497a-a108-d972e50720e9",
      "resource": {
        "resourceType": "Patient",
        "id": "8b259a51-5380-497a-a108-d972e50720e9",
        "meta": {
          "security": [
            {
              "system": "http://terminology.hl7.org/CodeSystem/v3-ActReason",
              "code": "HTEST"
            },
            {
              "system": "http://terminology.hl7.org/CodeSystem/v3-ActReason",
              "code": "TRAIN"
            }
          ],
          "tag": [
            {
              "system": "https://synderai.net/fhir/CodeSystem/tags",
              "code": "synthetic",
              "display": "SYNDERAI Synthetic data"
            }
          ],
          "profile": [
            "http://hl7.eu/fhir/base/StructureDefinition/patient-eu-core"
          ]
        },
        "identifier": [
          {
            "type": {
              "coding": [
                {
                  "code": "PT",
                  "system": "http://terminology.hl7.org/CodeSystem/v2-0203"
                }
              ]
            },
            "system": "http://ec.europa.eu/identifier/eci",
            "value": "4380-389488-0"
          },
          {
            "type": {
              "coding": [
                {
                  "code": "MR",
                  "system": "http://terminology.hl7.org/CodeSystem/v2-0203"
                }
              ]
            },
            "system": "http://local.setting.eu/identifier",
            "value": "f8f9ebdc-03dd-2fc0-819c-affa4ffd7f67"
          }
        ],
        "name": [
          {
            "family": "Kratochvílová"
          },
          {
            "given": [
              "Iva"
            ]
          },
          {
            "text": "Iva Kratochvílová"
          }
        ],
        "address": [
          {
            "line": [
              "Žofie Podlipské 4"
            ],
            "use": "home",
            "type": "physical",
            "postalCode": "27324",
            "city": "Postoloprty",
            "country": "Czechia"
          }
        ],
        "telecom": [
          {
            "system": "phone",
            "value": "00420 607 985 072"
          }
        ],
        "extension": [
          {
            "url": "http://hl7.org/fhir/StructureDefinition/patient-nationality",
            "valueCodeableConcept": {
              "coding": [
                {
                  "code": "CZ",
                  "system": "http://hl7.org/fhir/ValueSet/country"
                }
              ]
            }
          }
        ],
        "text": {
          "status": "generated",
          "div": "<div xmlns=\"http://www.w3.org/1999/xhtml\"><table class=\"hl7__ips\"><tr><td>Iva Kratochvílová</td><td>female</td><td>17-Sep-1964</td></tr></table></div>"
        },
        "gender": "female",
        "birthDate": "1964-09-17"
      }
    },
    {
      "fullUrl": "urn:uuid:ee2a6f93-8f97-41d4-b23b-10a678752f96",
      "resource": {
        "resourceType": "ServiceRequest",
        "id": "ee2a6f93-8f97-41d4-b23b-10a678752f96",
        "meta": {
          "profile": [
            "http://hl7.eu/fhir/laboratory/StructureDefinition/ServiceRequest-eu-lab"
          ]
        },
        "identifier": [
          {
            "system": "http://example.org",
            "value": "d19f41d2-4073-4ac2-ba64-112ca27ce302"
          }
        ],
        "specimen": [
          {
            "reference": "urn:uuid:215e2a91-0d43-4cc5-b7bb-85c7e87e2bfb"
          },
          {
            "reference": "urn:uuid:e8a76379-31e3-4d45-9145-2822c95fbda9"
          },
          {
            "reference": "urn:uuid:4e753f93-c387-418a-ab31-e5c817155778"
          }
        ],
        "reasonCode": [
          {
            "coding": [
              {
                "code": "431856006",
                "system": "http://snomed.info/sct",
                "display": "Chronic kidney disease stage 2"
              }
            ]
          },
          {
            "coding": [
              {
                "code": "431855005",
                "system": "http://snomed.info/sct",
                "display": "Chronic kidney disease stage 1"
              }
            ]
          },
          {
            "coding": [
              {
                "code": "237602007",
                "system": "http://snomed.info/sct",
                "display": "Metabolic syndrome X"
              }
            ]
          },
          {
            "coding": [
              {
                "code": "91302008",
                "system": "http://snomed.info/sct",
                "display": "Sepsis"
              }
            ]
          },
          {
            "coding": [
              {
                "code": "271737000",
                "system": "http://snomed.info/sct",
                "display": "Anemia"
              }
            ]
          },
          {
            "coding": [
              {
                "code": "15777000",
                "system": "http://snomed.info/sct",
                "display": "Prediabetes"
              }
            ]
          },
          {
            "coding": [
              {
                "code": "157141000119108",
                "system": "http://snomed.info/sct",
                "display": "Proteinuria due to type 2 diabetes mellitus"
              }
            ]
          },
          {
            "coding": [
              {
                "code": "90781000119102",
                "system": "http://snomed.info/sct",
                "display": "Microalbuminuria due to type 2 diabetes mellitus"
              }
            ]
          },
          {
            "coding": [
              {
                "code": "239872002",
                "system": "http://snomed.info/sct",
                "display": "Osteoarthritis of hip"
              }
            ]
          },
          {
            "coding": [
              {
                "code": "40055000",
                "system": "http://snomed.info/sct",
                "display": "Chronic sinusitis"
              }
            ]
          },
          {
            "coding": [
              {
                "code": "127013003",
                "system": "http://snomed.info/sct",
                "display": "Disorder of kidney due to diabetes mellitus"
              }
            ]
          },
          {
            "coding": [
              {
                "code": "59621000",
                "system": "http://snomed.info/sct",
                "display": "Essential hypertension"
              }
            ]
          }
        ],
        "status": "active",
        "intent": "order",
        "code": {
          "coding": [
            {
              "code": "108252007",
              "system": "http://snomed.info/sct",
              "display": "Laboratory procedure"
            }
          ]
        },
        "subject": {
          "reference": "urn:uuid:8b259a51-5380-497a-a108-d972e50720e9",
          "display": "Iva Kratochvílová"
        },
        "requester": {
          "reference": "urn:uuid:aa6f9e32-e5bc-4ba2-9885-35846b6e3c0f"
        }
      }
    },
    {
      "fullUrl": "urn:uuid:aa6f9e32-e5bc-4ba2-9885-35846b6e3c0f",
      "resource": {
        "resourceType": "PractitionerRole",
        "id": "aa6f9e32-e5bc-4ba2-9885-35846b6e3c0f",
        "meta": {
          "profile": [
            "http://hl7.eu/fhir/base/StructureDefinition/practitionerRole-eu"
          ]
        },
        "text": {
          "status": "generated",
          "div": "<div xmlns=\"http://www.w3.org/1999/xhtml\">Provider Role Id: aa6f9e32-e5bc-4ba2-9885-35846b6e3c0f</div>"
        },
        "organization": {
          "reference": "urn:uuid:7b3acb3d-1191-4864-9f91-f6aa2ffba854"
        }
      }
    },
    {
      "fullUrl": "urn:uuid:7b3acb3d-1191-4864-9f91-f6aa2ffba854",
      "resource": {
        "resourceType": "Organization",
        "id": "7b3acb3d-1191-4864-9f91-f6aa2ffba854",
        "meta": {
          "profile": [
            "http://hl7.eu/fhir/base/StructureDefinition/organization-eu"
          ]
        },
        "identifier": [
          {
            "assigner": {
              "display": "HL7 Europe"
            },
            "system": "urn:oid:2.16.840.1.113883.2.51.999",
            "value": "faae572f-9def-435b-ac69-968ff62c555c"
          }
        ],
        "address": [
          {
            "city": "Kadaň",
            "postalCode": "432 01",
            "country": "Czechia"
          }
        ],
        "text": {
          "status": "generated",
          "div": "<div xmlns=\"http://www.w3.org/1999/xhtml\">Provider Organization: Nemocnice s poliklinikou Kadaň</div>"
        },
        "name": "Nemocnice s poliklinikou Kadaň"
      }
    },
    {
      "fullUrl": "urn:uuid:215e2a91-0d43-4cc5-b7bb-85c7e87e2bfb",
      "resource": {
        "resourceType": "Specimen",
        "id": "215e2a91-0d43-4cc5-b7bb-85c7e87e2bfb",
        "meta": {
          "profile": [
            "http://hl7.eu/fhir/laboratory/StructureDefinition/Specimen-eu-lab"
          ]
        },
        "collection": {
          "collectedDateTime": "2023-06-11"
        },
        "text": {
          "status": "generated",
          "div": "<div xmlns=\"http://www.w3.org/1999/xhtml\"><table class=\"hl7__eu__lab__report\"><tr><th>Specimen</th><th>Collection Date</th></tr><tr><td>Acellular blood (serum or plasma) specimen</td><td><span class=\"nb\">11-Jun-2023</span></td></tr></table></div>"
        },
        "type": {
          "coding": [
            {
              "code": "122592007",
              "system": "http://snomed.info/sct",
              "display": "Acellular blood (serum or plasma) specimen"
            }
          ]
        }
      }
    },
    {
      "fullUrl": "urn:uuid:e8a76379-31e3-4d45-9145-2822c95fbda9",
      "resource": {
        "resourceType": "Specimen",
        "id": "e8a76379-31e3-4d45-9145-2822c95fbda9",
        "meta": {
          "profile": [
            "http://hl7.eu/fhir/laboratory/StructureDefinition/Specimen-eu-lab"
          ]
        },
        "collection": {
          "collectedDateTime": "2023-06-11"
        },
        "text": {
          "status": "generated",
          "div": "<div xmlns=\"http://www.w3.org/1999/xhtml\"><table class=\"hl7__eu__lab__report\"><tr><th>Specimen</th><th>Collection Date</th></tr><tr><td>Urine specimen</td><td><span class=\"nb\">11-Jun-2023</span></td></tr></table></div>"
        },
        "type": {
          "coding": [
            {
              "code": "122575003",
              "system": "http://snomed.info/sct",
              "display": "Urine specimen"
            }
          ]
        }
      }
    },
    {
      "fullUrl": "urn:uuid:4e753f93-c387-418a-ab31-e5c817155778",
      "resource": {
        "resourceType": "Specimen",
        "id": "4e753f93-c387-418a-ab31-e5c817155778",
        "meta": {
          "profile": [
            "http://hl7.eu/fhir/laboratory/StructureDefinition/Specimen-eu-lab"
          ]
        },
        "collection": {
          "collectedDateTime": "2023-06-11"
        },
        "text": {
          "status": "generated",
          "div": "<div xmlns=\"http://www.w3.org/1999/xhtml\"><table class=\"hl7__eu__lab__report\"><tr><th>Specimen</th><th>Collection Date</th></tr><tr><td>Whole blood specimen (specimen)</td><td><span class=\"nb\">11-Jun-2023</span></td></tr></table></div>"
        },
        "type": {
          "coding": [
            {
              "code": "258580003",
              "system": "http://snomed.info/sct",
              "display": "Whole blood specimen (specimen)"
            }
          ]
        }
      }
    },
    {
      "fullUrl": "urn:uuid:9ee9870c-8dbe-43cf-a498-0aeb174f5f49",
      "resource": {
        "resourceType": "Observation",
        "id": "9ee9870c-8dbe-43cf-a498-0aeb174f5f49",
        "meta": {
          "profile": [
            "http://hl7.eu/fhir/laboratory/StructureDefinition/Observation-resultslab-eu-lab"
          ]
        },
        "performer": [
          {
            "display": "The Central European Lab"
          }
        ],
        "category": [
          {
            "coding": [
              {
                "system": "http://terminology.hl7.org/CodeSystem/observation-category",
                "code": "laboratory"
              }
            ]
          }
        ],
        "code": {
          "coding": [
            {
              "code": "2345-7",
              "system": "http://loinc.org",
              "display": "Glucose [Mass/volume] in Serum or Plasma"
            }
          ],
          "text": "Glucose [Mass/volume] in Serum or Plasma"
        },
        "valueQuantity": {
          "system": "http://unitsofmeasure.org",
          "value": 79.2,
          "unit": "mg/dL",
          "code": "mg/dL"
        },
        "referenceRange": [
          {
            "low": {
              "value": 70,
              "code": "mg/dL",
              "system": "http://unitsofmeasure.org"
            }
          },
          {
            "high": {
              "value": 99,
              "code": "mg/dL",
              "system": "http://unitsofmeasure.org"
            }
          }
        ],
        "text": {
          "status": "generated",
          "div": "<div xmlns=\"http://www.w3.org/1999/xhtml\"><table class=\"hl7__eu__lab__report\"><tr><th>Test</th><th>11-Jun-2023</th><th>Reference&#xA0;Range</th><th>Unit</th></tr><tr><td>Glucose [Mass/volume] in Serum or Plasma</td><td>79.2</td><td>70 - 99</td><td></td><td>mg/dL</td></tr></table></div>"
        },
        "status": "final",
        "subject": {
          "reference": "urn:uuid:8b259a51-5380-497a-a108-d972e50720e9",
          "display": "Iva Kratochvílová"
        },
        "effectiveDateTime": "2023-06-11T16:10:29Z",
        "specimen": {
          "reference": "urn:uuid:215e2a91-0d43-4cc5-b7bb-85c7e87e2bfb"
        }
      }
    },
    {
      "fullUrl": "urn:uuid:c53c7630-1dbd-4d44-b7d1-26570d7a30a6",
      "resource": {
        "resourceType": "Observation",
        "id": "c53c7630-1dbd-4d44-b7d1-26570d7a30a6",
        "meta": {
          "profile": [
            "http://hl7.eu/fhir/laboratory/StructureDefinition/Observation-resultslab-eu-lab"
          ]
        },
        "performer": [
          {
            "display": "The Central European Lab"
          }
        ],
        "category": [
          {
            "coding": [
              {
                "system": "http://terminology.hl7.org/CodeSystem/observation-category",
                "code": "laboratory"
              }
            ]
          }
        ],
        "code": {
          "coding": [
            {
              "code": "3094-0",
              "system": "http://loinc.org",
              "display": "Urea nitrogen [Mass/volume] in Serum or Plasma"
            }
          ],
          "text": "Urea nitrogen [Mass/volume] in Serum or Plasma"
        },
        "valueQuantity": {
          "system": "http://unitsofmeasure.org",
          "value": 19.3,
          "unit": "mg/dL",
          "code": "mg/dL"
        },
        "referenceRange": [
          {
            "low": {
              "value": 7,
              "code": "mg/dL",
              "system": "http://unitsofmeasure.org"
            }
          },
          {
            "high": {
              "value": 20,
              "code": "mg/dL",
              "system": "http://unitsofmeasure.org"
            }
          }
        ],
        "text": {
          "status": "generated",
          "div": "<div xmlns=\"http://www.w3.org/1999/xhtml\"><table class=\"hl7__eu__lab__report\"><tr><th>Test</th><th>11-Jun-2023</th><th>Reference&#xA0;Range</th><th>Unit</th></tr><tr><td>Urea nitrogen [Mass/volume] in Serum or Plasma</td><td>19.3</td><td>7 - 20</td><td></td><td>mg/dL</td></tr></table></div>"
        },
        "status": "final",
        "subject": {
          "reference": "urn:uuid:8b259a51-5380-497a-a108-d972e50720e9",
          "display": "Iva Kratochvílová"
        },
        "effectiveDateTime": "2023-06-11T16:10:29Z",
        "specimen": {
          "reference": "urn:uuid:215e2a91-0d43-4cc5-b7bb-85c7e87e2bfb"
        }
      }
    },
    {
      "fullUrl": "urn:uuid:fc7c8253-09ea-4f6c-bea0-6479241b4e88",
      "resource": {
        "resourceType": "Observation",
        "id": "fc7c8253-09ea-4f6c-bea0-6479241b4e88",
        "meta": {
          "profile": [
            "http://hl7.eu/fhir/laboratory/StructureDefinition/Observation-resultslab-eu-lab"
          ]
        },
        "performer": [
          {
            "display": "The Central European Lab"
          }
        ],
        "category": [
          {
            "coding": [
              {
                "system": "http://terminology.hl7.org/CodeSystem/observation-category",
                "code": "laboratory"
              }
            ]
          }
        ],
        "code": {
          "coding": [
            {
              "code": "2160-0",
              "system": "http://loinc.org",
              "display": "Creatinine [Mass/volume] in Serum or Plasma"
            }
          ],
          "text": "Creatinine [Mass/volume] in Serum or Plasma"
        },
        "valueQuantity": {
          "system": "http://unitsofmeasure.org",
          "value": 2.1,
          "unit": "mg/dL",
          "code": "mg/dL"
        },
        "referenceRange": [
          {
            "low": {
              "value": 0.6,
              "code": "mg/dL",
              "system": "http://unitsofmeasure.org"
            }
          },
          {
            "high": {
              "value": 1.3,
              "code": "mg/dL",
              "system": "http://unitsofmeasure.org"
            }
          }
        ],
        "interpretation": [
          {
            "coding": [
              {
                "code": "H",
                "system": "http://terminology.hl7.org/CodeSystem/v3-ObservationInterpretation",
                "display": "High"
              }
            ]
          }
        ],
        "text": {
          "status": "generated",
          "div": "<div xmlns=\"http://www.w3.org/1999/xhtml\"><table class=\"hl7__eu__lab__report\"><tr><th>Test</th><th>11-Jun-2023</th><th>Reference&#xA0;Range</th><th>Unit</th></tr><tr><td>Creatinine [Mass/volume] in Serum or Plasma</td><td>2.1</td><td>0.6 - 1.3</td><td>H</td><td>mg/dL</td></tr></table></div>"
        },
        "status": "final",
        "subject": {
          "reference": "urn:uuid:8b259a51-5380-497a-a108-d972e50720e9",
          "display": "Iva Kratochvílová"
        },
        "effectiveDateTime": "2023-06-11T16:10:29Z",
        "specimen": {
          "reference": "urn:uuid:215e2a91-0d43-4cc5-b7bb-85c7e87e2bfb"
        }
      }
    },
    {
      "fullUrl": "urn:uuid:bbc99692-1587-435c-a1a6-78adccb9dcb6",
      "resource": {
        "resourceType": "Observation",
        "id": "bbc99692-1587-435c-a1a6-78adccb9dcb6",
        "meta": {
          "profile": [
            "http://hl7.eu/fhir/laboratory/StructureDefinition/Observation-resultslab-eu-lab"
          ]
        },
        "performer": [
          {
            "display": "The Central European Lab"
          }
        ],
        "category": [
          {
            "coding": [
              {
                "system": "http://terminology.hl7.org/CodeSystem/observation-category",
                "code": "laboratory"
              }
            ]
          }
        ],
        "code": {
          "coding": [
            {
              "code": "17861-6",
              "system": "http://loinc.org",
              "display": "Calcium [Mass/volume] in Serum or Plasma"
            }
          ],
          "text": "Calcium [Mass/volume] in Serum or Plasma"
        },
        "valueQuantity": {
          "system": "http://unitsofmeasure.org",
          "value": 9.3,
          "unit": "mg/dL",
          "code": "mg/dL"
        },
        "referenceRange": [
          {
            "low": {
              "value": 8.6,
              "code": "mg/dL",
              "system": "http://unitsofmeasure.org"
            }
          },
          {
            "high": {
              "value": 10.4,
              "code": "mg/dL",
              "system": "http://unitsofmeasure.org"
            }
          }
        ],
        "text": {
          "status": "generated",
          "div": "<div xmlns=\"http://www.w3.org/1999/xhtml\"><table class=\"hl7__eu__lab__report\"><tr><th>Test</th><th>11-Jun-2023</th><th>Reference&#xA0;Range</th><th>Unit</th></tr><tr><td>Calcium [Mass/volume] in Serum or Plasma</td><td>9.3</td><td>8.6 - 10.4</td><td></td><td>mg/dL</td></tr></table></div>"
        },
        "status": "final",
        "subject": {
          "reference": "urn:uuid:8b259a51-5380-497a-a108-d972e50720e9",
          "display": "Iva Kratochvílová"
        },
        "effectiveDateTime": "2023-06-11T16:10:29Z",
        "specimen": {
          "reference": "urn:uuid:215e2a91-0d43-4cc5-b7bb-85c7e87e2bfb"
        }
      }
    },
    {
      "fullUrl": "urn:uuid:7914eb3e-5965-40ee-8e3a-7d4cabaf1235",
      "resource": {
        "resourceType": "Observation",
        "id": "7914eb3e-5965-40ee-8e3a-7d4cabaf1235",
        "meta": {
          "profile": [
            "http://hl7.eu/fhir/laboratory/StructureDefinition/Observation-resultslab-eu-lab"
          ]
        },
        "performer": [
          {
            "display": "The Central European Lab"
          }
        ],
        "category": [
          {
            "coding": [
              {
                "system": "http://terminology.hl7.org/CodeSystem/observation-category",
                "code": "laboratory"
              }
            ]
          }
        ],
        "code": {
          "coding": [
            {
              "code": "2951-2",
              "system": "http://loinc.org",
              "display": "Sodium [Moles/volume] in Serum or Plasma"
            }
          ],
          "text": "Sodium [Moles/volume] in Serum or Plasma"
        },
        "valueQuantity": {
          "system": "http://unitsofmeasure.org",
          "value": 140,
          "unit": "mmol/L",
          "code": "mmol/L"
        },
        "referenceRange": [
          {
            "low": {
              "value": 135,
              "code": "mmol/L",
              "system": "http://unitsofmeasure.org"
            }
          },
          {
            "high": {
              "value": 145,
              "code": "mmol/L",
              "system": "http://unitsofmeasure.org"
            }
          }
        ],
        "text": {
          "status": "generated",
          "div": "<div xmlns=\"http://www.w3.org/1999/xhtml\"><table class=\"hl7__eu__lab__report\"><tr><th>Test</th><th>11-Jun-2023</th><th>Reference&#xA0;Range</th><th>Unit</th></tr><tr><td>Sodium [Moles/volume] in Serum or Plasma</td><td>140.0</td><td>135 - 145</td><td></td><td>mmol/L</td></tr></table></div>"
        },
        "status": "final",
        "subject": {
          "reference": "urn:uuid:8b259a51-5380-497a-a108-d972e50720e9",
          "display": "Iva Kratochvílová"
        },
        "effectiveDateTime": "2023-06-11T16:10:29Z",
        "specimen": {
          "reference": "urn:uuid:215e2a91-0d43-4cc5-b7bb-85c7e87e2bfb"
        }
      }
    },
    {
      "fullUrl": "urn:uuid:08996f26-0ff6-4b7e-921f-6666737e5e20",
      "resource": {
        "resourceType": "Observation",
        "id": "08996f26-0ff6-4b7e-921f-6666737e5e20",
        "meta": {
          "profile": [
            "http://hl7.eu/fhir/laboratory/StructureDefinition/Observation-resultslab-eu-lab"
          ]
        },
        "performer": [
          {
            "display": "The Central European Lab"
          }
        ],
        "category": [
          {
            "coding": [
              {
                "system": "http://terminology.hl7.org/CodeSystem/observation-category",
                "code": "laboratory"
              }
            ]
          }
        ],
        "code": {
          "coding": [
            {
              "code": "2823-3",
              "system": "http://loinc.org",
              "display": "Potassium [Moles/volume] in Serum or Plasma"
            }
          ],
          "text": "Potassium [Moles/volume] in Serum or Plasma"
        },
        "valueQuantity": {
          "system": "http://unitsofmeasure.org",
          "value": 3.8,
          "unit": "mmol/L",
          "code": "mmol/L"
        },
        "referenceRange": [
          {
            "low": {
              "value": 3.5,
              "code": "mmol/L",
              "system": "http://unitsofmeasure.org"
            }
          },
          {
            "high": {
              "value": 5,
              "code": "mmol/L",
              "system": "http://unitsofmeasure.org"
            }
          }
        ],
        "text": {
          "status": "generated",
          "div": "<div xmlns=\"http://www.w3.org/1999/xhtml\"><table class=\"hl7__eu__lab__report\"><tr><th>Test</th><th>11-Jun-2023</th><th>Reference&#xA0;Range</th><th>Unit</th></tr><tr><td>Potassium [Moles/volume] in Serum or Plasma</td><td>3.8</td><td>3.5 - 5</td><td></td><td>mmol/L</td></tr></table></div>"
        },
        "status": "final",
        "subject": {
          "reference": "urn:uuid:8b259a51-5380-497a-a108-d972e50720e9",
          "display": "Iva Kratochvílová"
        },
        "effectiveDateTime": "2023-06-11T16:10:29Z",
        "specimen": {
          "reference": "urn:uuid:215e2a91-0d43-4cc5-b7bb-85c7e87e2bfb"
        }
      }
    },
    {
      "fullUrl": "urn:uuid:c35b2e4a-f701-4123-b676-9ec63fc081e2",
      "resource": {
        "resourceType": "Observation",
        "id": "c35b2e4a-f701-4123-b676-9ec63fc081e2",
        "meta": {
          "profile": [
            "http://hl7.eu/fhir/laboratory/StructureDefinition/Observation-resultslab-eu-lab"
          ]
        },
        "performer": [
          {
            "display": "The Central European Lab"
          }
        ],
        "category": [
          {
            "coding": [
              {
                "system": "http://terminology.hl7.org/CodeSystem/observation-category",
                "code": "laboratory"
              }
            ]
          }
        ],
        "code": {
          "coding": [
            {
              "code": "2075-0",
              "system": "http://loinc.org",
              "display": "Chloride [Moles/volume] in Serum or Plasma"
            }
          ],
          "text": "Chloride [Moles/volume] in Serum or Plasma"
        },
        "valueQuantity": {
          "system": "http://unitsofmeasure.org",
          "value": 107.1,
          "unit": "mmol/L",
          "code": "mmol/L"
        },
        "referenceRange": [
          {
            "low": {
              "value": 98,
              "code": "mmol/L",
              "system": "http://unitsofmeasure.org"
            }
          },
          {
            "high": {
              "value": 106,
              "code": "mmol/L",
              "system": "http://unitsofmeasure.org"
            }
          }
        ],
        "interpretation": [
          {
            "coding": [
              {
                "code": "H",
                "system": "http://terminology.hl7.org/CodeSystem/v3-ObservationInterpretation",
                "display": "High"
              }
            ]
          }
        ],
        "text": {
          "status": "generated",
          "div": "<div xmlns=\"http://www.w3.org/1999/xhtml\"><table class=\"hl7__eu__lab__report\"><tr><th>Test</th><th>11-Jun-2023</th><th>Reference&#xA0;Range</th><th>Unit</th></tr><tr><td>Chloride [Moles/volume] in Serum or Plasma</td><td>107.1</td><td>98 - 106</td><td>H</td><td>mmol/L</td></tr></table></div>"
        },
        "status": "final",
        "subject": {
          "reference": "urn:uuid:8b259a51-5380-497a-a108-d972e50720e9",
          "display": "Iva Kratochvílová"
        },
        "effectiveDateTime": "2023-06-11T16:10:29Z",
        "specimen": {
          "reference": "urn:uuid:215e2a91-0d43-4cc5-b7bb-85c7e87e2bfb"
        }
      }
    },
    {
      "fullUrl": "urn:uuid:9c6f41a9-4899-4a35-b543-f9455b5eebe5",
      "resource": {
        "resourceType": "Observation",
        "id": "9c6f41a9-4899-4a35-b543-f9455b5eebe5",
        "meta": {
          "profile": [
            "http://hl7.eu/fhir/laboratory/StructureDefinition/Observation-resultslab-eu-lab"
          ]
        },
        "performer": [
          {
            "display": "The Central European Lab"
          }
        ],
        "category": [
          {
            "coding": [
              {
                "system": "http://terminology.hl7.org/CodeSystem/observation-category",
                "code": "laboratory"
              }
            ]
          }
        ],
        "code": {
          "coding": [
            {
              "code": "2028-9",
              "system": "http://loinc.org",
              "display": "Carbon dioxide, total [Moles/volume] in Serum or Plasma"
            }
          ],
          "text": "Carbon dioxide, total [Moles/volume] in Serum or Plasma"
        },
        "valueQuantity": {
          "system": "http://unitsofmeasure.org",
          "value": 27.3,
          "unit": "mmol/L",
          "code": "mmol/L"
        },
        "referenceRange": [
          {
            "low": {
              "value": 22,
              "code": "mmol/L",
              "system": "http://unitsofmeasure.org"
            }
          },
          {
            "high": {
              "value": 29,
              "code": "mmol/L",
              "system": "http://unitsofmeasure.org"
            }
          }
        ],
        "text": {
          "status": "generated",
          "div": "<div xmlns=\"http://www.w3.org/1999/xhtml\"><table class=\"hl7__eu__lab__report\"><tr><th>Test</th><th>11-Jun-2023</th><th>Reference&#xA0;Range</th><th>Unit</th></tr><tr><td>Carbon dioxide, total [Moles/volume] in Serum or Plasma</td><td>27.3</td><td>22 - 29</td><td></td><td>mmol/L</td></tr></table></div>"
        },
        "status": "final",
        "subject": {
          "reference": "urn:uuid:8b259a51-5380-497a-a108-d972e50720e9",
          "display": "Iva Kratochvílová"
        },
        "effectiveDateTime": "2023-06-11T16:10:29Z",
        "specimen": {
          "reference": "urn:uuid:215e2a91-0d43-4cc5-b7bb-85c7e87e2bfb"
        }
      }
    },
    {
      "fullUrl": "urn:uuid:e1d2ea45-74db-4344-a23e-3b5ea90488c1",
      "resource": {
        "resourceType": "Observation",
        "id": "e1d2ea45-74db-4344-a23e-3b5ea90488c1",
        "meta": {
          "profile": [
            "http://hl7.eu/fhir/laboratory/StructureDefinition/Observation-resultslab-eu-lab"
          ]
        },
        "performer": [
          {
            "display": "The Central European Lab"
          }
        ],
        "category": [
          {
            "coding": [
              {
                "system": "http://terminology.hl7.org/CodeSystem/observation-category",
                "code": "laboratory"
              }
            ]
          }
        ],
        "code": {
          "coding": [
            {
              "code": "5767-9",
              "system": "http://loinc.org",
              "display": "Appearance of Urine"
            }
          ],
          "text": "Appearance of Urine"
        },
        "text": {
          "status": "generated",
          "div": "<div xmlns=\"http://www.w3.org/1999/xhtml\"><table class=\"hl7__eu__lab__report\"><tr><th>Test</th><th>11-Jun-2023</th><th>Reference&#xA0;Range</th><th>Unit</th></tr><tr><td>Appearance of Urine</td></tr></table></div>"
        },
        "status": "final",
        "subject": {
          "reference": "urn:uuid:8b259a51-5380-497a-a108-d972e50720e9",
          "display": "Iva Kratochvílová"
        },
        "effectiveDateTime": "2023-06-11T16:10:29Z",
        "specimen": {
          "reference": "urn:uuid:e8a76379-31e3-4d45-9145-2822c95fbda9"
        }
      }
    },
    {
      "fullUrl": "urn:uuid:5b4414e4-ceaf-41af-9d1d-21967e054974",
      "resource": {
        "resourceType": "Observation",
        "id": "5b4414e4-ceaf-41af-9d1d-21967e054974",
        "meta": {
          "profile": [
            "http://hl7.eu/fhir/laboratory/StructureDefinition/Observation-resultslab-eu-lab"
          ]
        },
        "performer": [
          {
            "display": "The Central European Lab"
          }
        ],
        "category": [
          {
            "coding": [
              {
                "system": "http://terminology.hl7.org/CodeSystem/observation-category",
                "code": "laboratory"
              }
            ]
          }
        ],
        "code": {
          "coding": [
            {
              "code": "34533-0",
              "system": "http://loinc.org",
              "display": "Odor of Urine"
            }
          ],
          "text": "Odor of Urine"
        },
        "text": {
          "status": "generated",
          "div": "<div xmlns=\"http://www.w3.org/1999/xhtml\"><table class=\"hl7__eu__lab__report\"><tr><th>Test</th><th>11-Jun-2023</th><th>Reference&#xA0;Range</th><th>Unit</th></tr><tr><td>Odor of Urine</td></tr></table></div>"
        },
        "status": "final",
        "subject": {
          "reference": "urn:uuid:8b259a51-5380-497a-a108-d972e50720e9",
          "display": "Iva Kratochvílová"
        },
        "effectiveDateTime": "2023-06-11T16:10:29Z",
        "specimen": {
          "reference": "urn:uuid:e8a76379-31e3-4d45-9145-2822c95fbda9"
        }
      }
    },
    {
      "fullUrl": "urn:uuid:bb0bdf2a-ebea-409b-8b61-e97cbb1ebc1c",
      "resource": {
        "resourceType": "Observation",
        "id": "bb0bdf2a-ebea-409b-8b61-e97cbb1ebc1c",
        "meta": {
          "profile": [
            "http://hl7.eu/fhir/laboratory/StructureDefinition/Observation-resultslab-eu-lab"
          ]
        },
        "performer": [
          {
            "display": "The Central European Lab"
          }
        ],
        "category": [
          {
            "coding": [
              {
                "system": "http://terminology.hl7.org/CodeSystem/observation-category",
                "code": "laboratory"
              }
            ]
          }
        ],
        "code": {
          "coding": [
            {
              "code": "32167-9",
              "system": "http://loinc.org",
              "display": "Clarity of Urine"
            }
          ],
          "text": "Clarity of Urine"
        },
        "text": {
          "status": "generated",
          "div": "<div xmlns=\"http://www.w3.org/1999/xhtml\"><table class=\"hl7__eu__lab__report\"><tr><th>Test</th><th>11-Jun-2023</th><th>Reference&#xA0;Range</th><th>Unit</th></tr><tr><td>Clarity of Urine</td></tr></table></div>"
        },
        "status": "final",
        "subject": {
          "reference": "urn:uuid:8b259a51-5380-497a-a108-d972e50720e9",
          "display": "Iva Kratochvílová"
        },
        "effectiveDateTime": "2023-06-11T16:10:29Z",
        "specimen": {
          "reference": "urn:uuid:e8a76379-31e3-4d45-9145-2822c95fbda9"
        }
      }
    },
    {
      "fullUrl": "urn:uuid:f077cf19-23a1-45ad-b328-bfc37bd6274e",
      "resource": {
        "resourceType": "Observation",
        "id": "f077cf19-23a1-45ad-b328-bfc37bd6274e",
        "meta": {
          "profile": [
            "http://hl7.eu/fhir/laboratory/StructureDefinition/Observation-resultslab-eu-lab"
          ]
        },
        "performer": [
          {
            "display": "The Central European Lab"
          }
        ],
        "category": [
          {
            "coding": [
              {
                "system": "http://terminology.hl7.org/CodeSystem/observation-category",
                "code": "laboratory"
              }
            ]
          }
        ],
        "code": {
          "coding": [
            {
              "code": "5778-6",
              "system": "http://loinc.org",
              "display": "Color of Urine"
            }
          ],
          "text": "Color of Urine"
        },
        "text": {
          "status": "generated",
          "div": "<div xmlns=\"http://www.w3.org/1999/xhtml\"><table class=\"hl7__eu__lab__report\"><tr><th>Test</th><th>11-Jun-2023</th><th>Reference&#xA0;Range</th><th>Unit</th></tr><tr><td>Color of Urine</td></tr></table></div>"
        },
        "status": "final",
        "subject": {
          "reference": "urn:uuid:8b259a51-5380-497a-a108-d972e50720e9",
          "display": "Iva Kratochvílová"
        },
        "effectiveDateTime": "2023-06-11T16:10:29Z",
        "specimen": {
          "reference": "urn:uuid:e8a76379-31e3-4d45-9145-2822c95fbda9"
        }
      }
    },
    {
      "fullUrl": "urn:uuid:e2c245a4-25a2-478e-a5fa-0f85e0db07e8",
      "resource": {
        "resourceType": "Observation",
        "id": "e2c245a4-25a2-478e-a5fa-0f85e0db07e8",
        "meta": {
          "profile": [
            "http://hl7.eu/fhir/laboratory/StructureDefinition/Observation-resultslab-eu-lab"
          ]
        },
        "performer": [
          {
            "display": "The Central European Lab"
          }
        ],
        "category": [
          {
            "coding": [
              {
                "system": "http://terminology.hl7.org/CodeSystem/observation-category",
                "code": "laboratory"
              }
            ]
          }
        ],
        "code": {
          "coding": [
            {
              "code": "5792-7",
              "system": "http://loinc.org",
              "display": "Glucose [Mass/volume] in Urine by Test strip"
            }
          ],
          "text": "Glucose [Mass/volume] in Urine by Test strip"
        },
        "valueQuantity": {
          "system": "http://unitsofmeasure.org",
          "value": 2.2,
          "unit": "mg/dL",
          "code": "mg/dL"
        },
        "referenceRange": [
          {
            "low": {
              "value": 0,
              "code": "mg/dL",
              "system": "http://unitsofmeasure.org"
            }
          },
          {
            "high": {
              "value": 0.8,
              "code": "mg/dL",
              "system": "http://unitsofmeasure.org"
            }
          }
        ],
        "interpretation": [
          {
            "coding": [
              {
                "code": "H",
                "system": "http://terminology.hl7.org/CodeSystem/v3-ObservationInterpretation",
                "display": "High"
              }
            ]
          }
        ],
        "text": {
          "status": "generated",
          "div": "<div xmlns=\"http://www.w3.org/1999/xhtml\"><table class=\"hl7__eu__lab__report\"><tr><th>Test</th><th>11-Jun-2023</th><th>Reference&#xA0;Range</th><th>Unit</th></tr><tr><td>Glucose [Mass/volume] in Urine by Test strip</td><td>2.2</td><td>0 - 0.8</td><td>H</td><td>mg/dL</td></tr></table></div>"
        },
        "status": "final",
        "subject": {
          "reference": "urn:uuid:8b259a51-5380-497a-a108-d972e50720e9",
          "display": "Iva Kratochvílová"
        },
        "effectiveDateTime": "2023-06-11T16:10:29Z",
        "specimen": {
          "reference": "urn:uuid:e8a76379-31e3-4d45-9145-2822c95fbda9"
        }
      }
    },
    {
      "fullUrl": "urn:uuid:357f9d72-ac7f-429a-affc-3f8b186528d3",
      "resource": {
        "resourceType": "Observation",
        "id": "357f9d72-ac7f-429a-affc-3f8b186528d3",
        "meta": {
          "profile": [
            "http://hl7.eu/fhir/laboratory/StructureDefinition/Observation-resultslab-eu-lab"
          ]
        },
        "performer": [
          {
            "display": "The Central European Lab"
          }
        ],
        "category": [
          {
            "coding": [
              {
                "system": "http://terminology.hl7.org/CodeSystem/observation-category",
                "code": "laboratory"
              }
            ]
          }
        ],
        "code": {
          "coding": [
            {
              "code": "25428-4",
              "system": "http://loinc.org",
              "display": "Glucose [Presence] in Urine by Test strip"
            }
          ],
          "text": "Glucose [Presence] in Urine by Test strip"
        },
        "text": {
          "status": "generated",
          "div": "<div xmlns=\"http://www.w3.org/1999/xhtml\"><table class=\"hl7__eu__lab__report\"><tr><th>Test</th><th>11-Jun-2023</th><th>Reference&#xA0;Range</th><th>Unit</th></tr><tr><td>Glucose [Presence] in Urine by Test strip</td></tr></table></div>"
        },
        "status": "final",
        "subject": {
          "reference": "urn:uuid:8b259a51-5380-497a-a108-d972e50720e9",
          "display": "Iva Kratochvílová"
        },
        "effectiveDateTime": "2023-06-11T16:10:29Z",
        "specimen": {
          "reference": "urn:uuid:e8a76379-31e3-4d45-9145-2822c95fbda9"
        }
      }
    },
    {
      "fullUrl": "urn:uuid:8ae5c262-5c75-48fa-93ed-261bcc5fc2b2",
      "resource": {
        "resourceType": "Observation",
        "id": "8ae5c262-5c75-48fa-93ed-261bcc5fc2b2",
        "meta": {
          "profile": [
            "http://hl7.eu/fhir/laboratory/StructureDefinition/Observation-resultslab-eu-lab"
          ]
        },
        "performer": [
          {
            "display": "The Central European Lab"
          }
        ],
        "category": [
          {
            "coding": [
              {
                "system": "http://terminology.hl7.org/CodeSystem/observation-category",
                "code": "laboratory"
              }
            ]
          }
        ],
        "code": {
          "coding": [
            {
              "code": "20505-4",
              "system": "http://loinc.org",
              "display": "Bilirubin.total [Mass/volume] in Urine by Test strip"
            }
          ],
          "text": "Bilirubin.total [Mass/volume] in Urine by Test strip"
        },
        "valueQuantity": {
          "system": "http://unitsofmeasure.org",
          "value": 1.1,
          "unit": "mg/dL",
          "code": "mg/dL"
        },
        "referenceRange": [
          {
            "low": {
              "value": 0,
              "code": "mg/dL",
              "system": "http://unitsofmeasure.org"
            }
          },
          {
            "high": {
              "value": 1,
              "code": "mg/dL",
              "system": "http://unitsofmeasure.org"
            }
          }
        ],
        "interpretation": [
          {
            "coding": [
              {
                "code": "H",
                "system": "http://terminology.hl7.org/CodeSystem/v3-ObservationInterpretation",
                "display": "High"
              }
            ]
          }
        ],
        "text": {
          "status": "generated",
          "div": "<div xmlns=\"http://www.w3.org/1999/xhtml\"><table class=\"hl7__eu__lab__report\"><tr><th>Test</th><th>11-Jun-2023</th><th>Reference&#xA0;Range</th><th>Unit</th></tr><tr><td>Bilirubin.total [Mass/volume] in Urine by Test strip</td><td>1.1</td><td>0 - 1</td><td>H</td><td>mg/dL</td></tr></table></div>"
        },
        "status": "final",
        "subject": {
          "reference": "urn:uuid:8b259a51-5380-497a-a108-d972e50720e9",
          "display": "Iva Kratochvílová"
        },
        "effectiveDateTime": "2023-06-11T16:10:29Z",
        "specimen": {
          "reference": "urn:uuid:e8a76379-31e3-4d45-9145-2822c95fbda9"
        }
      }
    },
    {
      "fullUrl": "urn:uuid:04573858-2ac5-412c-a83c-2cce989e5159",
      "resource": {
        "resourceType": "Observation",
        "id": "04573858-2ac5-412c-a83c-2cce989e5159",
        "meta": {
          "profile": [
            "http://hl7.eu/fhir/laboratory/StructureDefinition/Observation-resultslab-eu-lab"
          ]
        },
        "performer": [
          {
            "display": "The Central European Lab"
          }
        ],
        "category": [
          {
            "coding": [
              {
                "system": "http://terminology.hl7.org/CodeSystem/observation-category",
                "code": "laboratory"
              }
            ]
          }
        ],
        "code": {
          "coding": [
            {
              "code": "5770-3",
              "system": "http://loinc.org",
              "display": "Bilirubin.total [Presence] in Urine by Test strip"
            }
          ],
          "text": "Bilirubin.total [Presence] in Urine by Test strip"
        },
        "text": {
          "status": "generated",
          "div": "<div xmlns=\"http://www.w3.org/1999/xhtml\"><table class=\"hl7__eu__lab__report\"><tr><th>Test</th><th>11-Jun-2023</th><th>Reference&#xA0;Range</th><th>Unit</th></tr><tr><td>Bilirubin.total [Presence] in Urine by Test strip</td></tr></table></div>"
        },
        "status": "final",
        "subject": {
          "reference": "urn:uuid:8b259a51-5380-497a-a108-d972e50720e9",
          "display": "Iva Kratochvílová"
        },
        "effectiveDateTime": "2023-06-11T16:10:29Z",
        "specimen": {
          "reference": "urn:uuid:e8a76379-31e3-4d45-9145-2822c95fbda9"
        }
      }
    },
    {
      "fullUrl": "urn:uuid:291c2e93-7720-492e-b9e3-78a3951a0bdf",
      "resource": {
        "resourceType": "Observation",
        "id": "291c2e93-7720-492e-b9e3-78a3951a0bdf",
        "meta": {
          "profile": [
            "http://hl7.eu/fhir/laboratory/StructureDefinition/Observation-resultslab-eu-lab"
          ]
        },
        "performer": [
          {
            "display": "The Central European Lab"
          }
        ],
        "category": [
          {
            "coding": [
              {
                "system": "http://terminology.hl7.org/CodeSystem/observation-category",
                "code": "laboratory"
              }
            ]
          }
        ],
        "code": {
          "coding": [
            {
              "code": "5797-6",
              "system": "http://loinc.org",
              "display": "Ketones [Mass/volume] in Urine by Test strip"
            }
          ],
          "text": "Ketones [Mass/volume] in Urine by Test strip"
        },
        "valueQuantity": {
          "system": "http://unitsofmeasure.org",
          "value": 4.4,
          "unit": "mg/dL",
          "code": "mg/dL"
        },
        "referenceRange": [
          {
            "low": {
              "value": 0,
              "code": "mg/dL",
              "system": "http://unitsofmeasure.org"
            }
          },
          {
            "high": {
              "value": 4,
              "code": "mg/dL",
              "system": "http://unitsofmeasure.org"
            }
          }
        ],
        "interpretation": [
          {
            "coding": [
              {
                "code": "H",
                "system": "http://terminology.hl7.org/CodeSystem/v3-ObservationInterpretation",
                "display": "High"
              }
            ]
          }
        ],
        "text": {
          "status": "generated",
          "div": "<div xmlns=\"http://www.w3.org/1999/xhtml\"><table class=\"hl7__eu__lab__report\"><tr><th>Test</th><th>11-Jun-2023</th><th>Reference&#xA0;Range</th><th>Unit</th></tr><tr><td>Ketones [Mass/volume] in Urine by Test strip</td><td>4.4</td><td>0 - 4</td><td>H</td><td>mg/dL</td></tr></table></div>"
        },
        "status": "final",
        "subject": {
          "reference": "urn:uuid:8b259a51-5380-497a-a108-d972e50720e9",
          "display": "Iva Kratochvílová"
        },
        "effectiveDateTime": "2023-06-11T16:10:29Z",
        "specimen": {
          "reference": "urn:uuid:e8a76379-31e3-4d45-9145-2822c95fbda9"
        }
      }
    },
    {
      "fullUrl": "urn:uuid:33d90d0f-204d-481b-861d-5093a3b5c284",
      "resource": {
        "resourceType": "Observation",
        "id": "33d90d0f-204d-481b-861d-5093a3b5c284",
        "meta": {
          "profile": [
            "http://hl7.eu/fhir/laboratory/StructureDefinition/Observation-resultslab-eu-lab"
          ]
        },
        "performer": [
          {
            "display": "The Central European Lab"
          }
        ],
        "category": [
          {
            "coding": [
              {
                "system": "http://terminology.hl7.org/CodeSystem/observation-category",
                "code": "laboratory"
              }
            ]
          }
        ],
        "code": {
          "coding": [
            {
              "code": "2514-8",
              "system": "http://loinc.org",
              "display": "Ketones [Presence] in Urine by Test strip"
            }
          ],
          "text": "Ketones [Presence] in Urine by Test strip"
        },
        "text": {
          "status": "generated",
          "div": "<div xmlns=\"http://www.w3.org/1999/xhtml\"><table class=\"hl7__eu__lab__report\"><tr><th>Test</th><th>11-Jun-2023</th><th>Reference&#xA0;Range</th><th>Unit</th></tr><tr><td>Ketones [Presence] in Urine by Test strip</td></tr></table></div>"
        },
        "status": "final",
        "subject": {
          "reference": "urn:uuid:8b259a51-5380-497a-a108-d972e50720e9",
          "display": "Iva Kratochvílová"
        },
        "effectiveDateTime": "2023-06-11T16:10:29Z",
        "specimen": {
          "reference": "urn:uuid:e8a76379-31e3-4d45-9145-2822c95fbda9"
        }
      }
    },
    {
      "fullUrl": "urn:uuid:4a1d67c1-7fd2-48fa-921b-241deca7d86e",
      "resource": {
        "resourceType": "Observation",
        "id": "4a1d67c1-7fd2-48fa-921b-241deca7d86e",
        "meta": {
          "profile": [
            "http://hl7.eu/fhir/laboratory/StructureDefinition/Observation-resultslab-eu-lab"
          ]
        },
        "performer": [
          {
            "display": "The Central European Lab"
          }
        ],
        "category": [
          {
            "coding": [
              {
                "system": "http://terminology.hl7.org/CodeSystem/observation-category",
                "code": "laboratory"
              }
            ]
          }
        ],
        "code": {
          "coding": [
            {
              "code": "5811-5",
              "system": "http://loinc.org",
              "display": "Specific gravity of Urine by Test strip"
            }
          ],
          "text": "Specific gravity of Urine by Test strip"
        },
        "valueQuantity": {
          "system": "http://unitsofmeasure.org",
          "value": 1,
          "unit": "{nominal}",
          "code": "{nominal}"
        },
        "referenceRange": [
          {
            "low": {
              "value": 1.005,
              "code": "g/mL",
              "system": "http://unitsofmeasure.org"
            }
          },
          {
            "high": {
              "value": 1.03,
              "code": "g/mL",
              "system": "http://unitsofmeasure.org"
            }
          }
        ],
        "interpretation": [
          {
            "coding": [
              {
                "code": "L",
                "system": "http://terminology.hl7.org/CodeSystem/v3-ObservationInterpretation",
                "display": "Low"
              }
            ]
          }
        ],
        "text": {
          "status": "generated",
          "div": "<div xmlns=\"http://www.w3.org/1999/xhtml\"><table class=\"hl7__eu__lab__report\"><tr><th>Test</th><th>11-Jun-2023</th><th>Reference&#xA0;Range</th><th>Unit</th></tr><tr><td>Specific gravity of Urine by Test strip</td><td>1.0</td><td>1.005 - 1.03</td><td>L</td><td>{nominal}</td></tr></table></div>"
        },
        "status": "final",
        "subject": {
          "reference": "urn:uuid:8b259a51-5380-497a-a108-d972e50720e9",
          "display": "Iva Kratochvílová"
        },
        "effectiveDateTime": "2023-06-11T16:10:29Z",
        "specimen": {
          "reference": "urn:uuid:e8a76379-31e3-4d45-9145-2822c95fbda9"
        }
      }
    },
    {
      "fullUrl": "urn:uuid:4bba8a6b-6c88-45a4-b7d7-3fc99465c2ab",
      "resource": {
        "resourceType": "Observation",
        "id": "4bba8a6b-6c88-45a4-b7d7-3fc99465c2ab",
        "meta": {
          "profile": [
            "http://hl7.eu/fhir/laboratory/StructureDefinition/Observation-resultslab-eu-lab"
          ]
        },
        "performer": [
          {
            "display": "The Central European Lab"
          }
        ],
        "category": [
          {
            "coding": [
              {
                "system": "http://terminology.hl7.org/CodeSystem/observation-category",
                "code": "laboratory"
              }
            ]
          }
        ],
        "code": {
          "coding": [
            {
              "code": "5803-2",
              "system": "http://loinc.org",
              "display": "pH of Urine by Test strip"
            }
          ],
          "text": "pH of Urine by Test strip"
        },
        "valueQuantity": {
          "system": "http://unitsofmeasure.org",
          "value": 7,
          "unit": "pH",
          "code": "pH"
        },
        "referenceRange": [
          {
            "low": {
              "value": 4.5,
              "code": "pH",
              "system": "http://unitsofmeasure.org"
            }
          },
          {
            "high": {
              "value": 7,
              "code": "pH",
              "system": "http://unitsofmeasure.org"
            }
          }
        ],
        "text": {
          "status": "generated",
          "div": "<div xmlns=\"http://www.w3.org/1999/xhtml\"><table class=\"hl7__eu__lab__report\"><tr><th>Test</th><th>11-Jun-2023</th><th>Reference&#xA0;Range</th><th>Unit</th></tr><tr><td>pH of Urine by Test strip</td><td>7.0</td><td>4.5 - 7</td><td></td><td>pH</td></tr></table></div>"
        },
        "status": "final",
        "subject": {
          "reference": "urn:uuid:8b259a51-5380-497a-a108-d972e50720e9",
          "display": "Iva Kratochvílová"
        },
        "effectiveDateTime": "2023-06-11T16:10:29Z",
        "specimen": {
          "reference": "urn:uuid:e8a76379-31e3-4d45-9145-2822c95fbda9"
        }
      }
    },
    {
      "fullUrl": "urn:uuid:d4b457b3-413c-4acc-b498-7c5d045b2140",
      "resource": {
        "resourceType": "Observation",
        "id": "d4b457b3-413c-4acc-b498-7c5d045b2140",
        "meta": {
          "profile": [
            "http://hl7.eu/fhir/laboratory/StructureDefinition/Observation-resultslab-eu-lab"
          ]
        },
        "performer": [
          {
            "display": "The Central European Lab"
          }
        ],
        "category": [
          {
            "coding": [
              {
                "system": "http://terminology.hl7.org/CodeSystem/observation-category",
                "code": "laboratory"
              }
            ]
          }
        ],
        "code": {
          "coding": [
            {
              "code": "5804-0",
              "system": "http://loinc.org",
              "display": "Protein [Mass/volume] in Urine by Test strip"
            }
          ],
          "text": "Protein [Mass/volume] in Urine by Test strip"
        },
        "valueQuantity": {
          "system": "http://unitsofmeasure.org",
          "value": 268.8,
          "unit": "mg/dL",
          "code": "mg/dL"
        },
        "referenceRange": [
          {
            "low": {
              "value": 0,
              "code": "mg/dL",
              "system": "http://unitsofmeasure.org"
            }
          },
          {
            "high": {
              "value": 145,
              "code": "mg/dL",
              "system": "http://unitsofmeasure.org"
            }
          }
        ],
        "interpretation": [
          {
            "coding": [
              {
                "code": "H",
                "system": "http://terminology.hl7.org/CodeSystem/v3-ObservationInterpretation",
                "display": "High"
              }
            ]
          }
        ],
        "text": {
          "status": "generated",
          "div": "<div xmlns=\"http://www.w3.org/1999/xhtml\"><table class=\"hl7__eu__lab__report\"><tr><th>Test</th><th>11-Jun-2023</th><th>Reference&#xA0;Range</th><th>Unit</th></tr><tr><td>Protein [Mass/volume] in Urine by Test strip</td><td>268.8</td><td>0 - 145</td><td>H</td><td>mg/dL</td></tr></table></div>"
        },
        "status": "final",
        "subject": {
          "reference": "urn:uuid:8b259a51-5380-497a-a108-d972e50720e9",
          "display": "Iva Kratochvílová"
        },
        "effectiveDateTime": "2023-06-11T16:10:29Z",
        "specimen": {
          "reference": "urn:uuid:e8a76379-31e3-4d45-9145-2822c95fbda9"
        }
      }
    },
    {
      "fullUrl": "urn:uuid:8ee060a4-b20e-4177-af33-d1e46712838f",
      "resource": {
        "resourceType": "Observation",
        "id": "8ee060a4-b20e-4177-af33-d1e46712838f",
        "meta": {
          "profile": [
            "http://hl7.eu/fhir/laboratory/StructureDefinition/Observation-resultslab-eu-lab"
          ]
        },
        "performer": [
          {
            "display": "The Central European Lab"
          }
        ],
        "category": [
          {
            "coding": [
              {
                "system": "http://terminology.hl7.org/CodeSystem/observation-category",
                "code": "laboratory"
              }
            ]
          }
        ],
        "code": {
          "coding": [
            {
              "code": "20454-5",
              "system": "http://loinc.org",
              "display": "Protein [Presence] in Urine by Test strip"
            }
          ],
          "text": "Protein [Presence] in Urine by Test strip"
        },
        "text": {
          "status": "generated",
          "div": "<div xmlns=\"http://www.w3.org/1999/xhtml\"><table class=\"hl7__eu__lab__report\"><tr><th>Test</th><th>11-Jun-2023</th><th>Reference&#xA0;Range</th><th>Unit</th></tr><tr><td>Protein [Presence] in Urine by Test strip</td></tr></table></div>"
        },
        "status": "final",
        "subject": {
          "reference": "urn:uuid:8b259a51-5380-497a-a108-d972e50720e9",
          "display": "Iva Kratochvílová"
        },
        "effectiveDateTime": "2023-06-11T16:10:29Z",
        "specimen": {
          "reference": "urn:uuid:e8a76379-31e3-4d45-9145-2822c95fbda9"
        }
      }
    },
    {
      "fullUrl": "urn:uuid:75c026d4-1a77-46a0-9b18-22a7b20a6f0a",
      "resource": {
        "resourceType": "Observation",
        "id": "75c026d4-1a77-46a0-9b18-22a7b20a6f0a",
        "meta": {
          "profile": [
            "http://hl7.eu/fhir/laboratory/StructureDefinition/Observation-resultslab-eu-lab"
          ]
        },
        "performer": [
          {
            "display": "The Central European Lab"
          }
        ],
        "category": [
          {
            "coding": [
              {
                "system": "http://terminology.hl7.org/CodeSystem/observation-category",
                "code": "laboratory"
              }
            ]
          }
        ],
        "code": {
          "coding": [
            {
              "code": "5802-4",
              "system": "http://loinc.org",
              "display": "Nitrite [Presence] in Urine by Test strip"
            }
          ],
          "text": "Nitrite [Presence] in Urine by Test strip"
        },
        "text": {
          "status": "generated",
          "div": "<div xmlns=\"http://www.w3.org/1999/xhtml\"><table class=\"hl7__eu__lab__report\"><tr><th>Test</th><th>11-Jun-2023</th><th>Reference&#xA0;Range</th><th>Unit</th></tr><tr><td>Nitrite [Presence] in Urine by Test strip</td></tr></table></div>"
        },
        "status": "final",
        "subject": {
          "reference": "urn:uuid:8b259a51-5380-497a-a108-d972e50720e9",
          "display": "Iva Kratochvílová"
        },
        "effectiveDateTime": "2023-06-11T16:10:29Z",
        "specimen": {
          "reference": "urn:uuid:e8a76379-31e3-4d45-9145-2822c95fbda9"
        }
      }
    },
    {
      "fullUrl": "urn:uuid:0ad6e424-1980-4c8f-9e02-4c9892bd68be",
      "resource": {
        "resourceType": "Observation",
        "id": "0ad6e424-1980-4c8f-9e02-4c9892bd68be",
        "meta": {
          "profile": [
            "http://hl7.eu/fhir/laboratory/StructureDefinition/Observation-resultslab-eu-lab"
          ]
        },
        "performer": [
          {
            "display": "The Central European Lab"
          }
        ],
        "category": [
          {
            "coding": [
              {
                "system": "http://terminology.hl7.org/CodeSystem/observation-category",
                "code": "laboratory"
              }
            ]
          }
        ],
        "code": {
          "coding": [
            {
              "code": "5794-3",
              "system": "http://loinc.org",
              "display": "Hemoglobin [Presence] in Urine by Test strip"
            }
          ],
          "text": "Hemoglobin [Presence] in Urine by Test strip"
        },
        "text": {
          "status": "generated",
          "div": "<div xmlns=\"http://www.w3.org/1999/xhtml\"><table class=\"hl7__eu__lab__report\"><tr><th>Test</th><th>11-Jun-2023</th><th>Reference&#xA0;Range</th><th>Unit</th></tr><tr><td>Hemoglobin [Presence] in Urine by Test strip</td></tr></table></div>"
        },
        "status": "final",
        "subject": {
          "reference": "urn:uuid:8b259a51-5380-497a-a108-d972e50720e9",
          "display": "Iva Kratochvílová"
        },
        "effectiveDateTime": "2023-06-11T16:10:29Z",
        "specimen": {
          "reference": "urn:uuid:e8a76379-31e3-4d45-9145-2822c95fbda9"
        }
      }
    },
    {
      "fullUrl": "urn:uuid:96b8f1d8-c88d-4183-bfdd-1c22b9ec2448",
      "resource": {
        "resourceType": "Observation",
        "id": "96b8f1d8-c88d-4183-bfdd-1c22b9ec2448",
        "meta": {
          "profile": [
            "http://hl7.eu/fhir/laboratory/StructureDefinition/Observation-resultslab-eu-lab"
          ]
        },
        "performer": [
          {
            "display": "The Central European Lab"
          }
        ],
        "category": [
          {
            "coding": [
              {
                "system": "http://terminology.hl7.org/CodeSystem/observation-category",
                "code": "laboratory"
              }
            ]
          }
        ],
        "code": {
          "coding": [
            {
              "code": "5799-2",
              "system": "http://loinc.org",
              "display": "Leukocyte esterase [Presence] in Urine by Test strip"
            }
          ],
          "text": "Leukocyte esterase [Presence] in Urine by Test strip"
        },
        "text": {
          "status": "generated",
          "div": "<div xmlns=\"http://www.w3.org/1999/xhtml\"><table class=\"hl7__eu__lab__report\"><tr><th>Test</th><th>11-Jun-2023</th><th>Reference&#xA0;Range</th><th>Unit</th></tr><tr><td>Leukocyte esterase [Presence] in Urine by Test strip</td></tr></table></div>"
        },
        "status": "final",
        "subject": {
          "reference": "urn:uuid:8b259a51-5380-497a-a108-d972e50720e9",
          "display": "Iva Kratochvílová"
        },
        "effectiveDateTime": "2023-06-11T16:10:29Z",
        "specimen": {
          "reference": "urn:uuid:e8a76379-31e3-4d45-9145-2822c95fbda9"
        }
      }
    },
    {
      "fullUrl": "urn:uuid:a8208c44-31fa-46b8-a071-6425042f4f00",
      "resource": {
        "resourceType": "Observation",
        "id": "a8208c44-31fa-46b8-a071-6425042f4f00",
        "meta": {
          "profile": [
            "http://hl7.eu/fhir/laboratory/StructureDefinition/Observation-resultslab-eu-lab"
          ]
        },
        "performer": [
          {
            "display": "The Central European Lab"
          }
        ],
        "category": [
          {
            "coding": [
              {
                "system": "http://terminology.hl7.org/CodeSystem/observation-category",
                "code": "laboratory"
              }
            ]
          }
        ],
        "code": {
          "coding": [
            {
              "code": "4548-4",
              "system": "http://loinc.org",
              "display": "Hemoglobin A1c/Hemoglobin.total in Blood"
            }
          ],
          "text": "Hemoglobin A1c/Hemoglobin.total in Blood"
        },
        "valueQuantity": {
          "system": "http://unitsofmeasure.org",
          "value": 3.1,
          "unit": "%",
          "code": "%"
        },
        "referenceRange": [
          {
            "low": {
              "value": 4,
              "code": "%",
              "system": "http://unitsofmeasure.org"
            }
          },
          {
            "high": {
              "value": 6,
              "code": "%",
              "system": "http://unitsofmeasure.org"
            }
          }
        ],
        "interpretation": [
          {
            "coding": [
              {
                "code": "L",
                "system": "http://terminology.hl7.org/CodeSystem/v3-ObservationInterpretation",
                "display": "Low"
              }
            ]
          }
        ],
        "text": {
          "status": "generated",
          "div": "<div xmlns=\"http://www.w3.org/1999/xhtml\"><table class=\"hl7__eu__lab__report\"><tr><th>Test</th><th>11-Jun-2023</th><th>Reference&#xA0;Range</th><th>Unit</th></tr><tr><td>Hemoglobin A1c/Hemoglobin.total in Blood</td><td>3.1</td><td>4 - 6</td><td>L</td><td>%</td></tr></table></div>"
        },
        "status": "final",
        "subject": {
          "reference": "urn:uuid:8b259a51-5380-497a-a108-d972e50720e9",
          "display": "Iva Kratochvílová"
        },
        "effectiveDateTime": "2023-06-11T16:10:29Z",
        "specimen": {
          "reference": "urn:uuid:4e753f93-c387-418a-ab31-e5c817155778"
        }
      }
    },
    {
      "fullUrl": "urn:uuid:a81044f7-e08b-4bb2-9b72-7faf6ed95503",
      "resource": {
        "resourceType": "Observation",
        "id": "a81044f7-e08b-4bb2-9b72-7faf6ed95503",
        "meta": {
          "profile": [
            "http://hl7.eu/fhir/laboratory/StructureDefinition/Observation-resultslab-eu-lab"
          ]
        },
        "performer": [
          {
            "display": "The Central European Lab"
          }
        ],
        "category": [
          {
            "coding": [
              {
                "system": "http://terminology.hl7.org/CodeSystem/observation-category",
                "code": "laboratory"
              }
            ]
          }
        ],
        "code": {
          "coding": [
            {
              "code": "2339-0",
              "system": "http://loinc.org",
              "display": "Glucose [Mass/volume] in Blood"
            }
          ],
          "text": "Glucose [Mass/volume] in Blood"
        },
        "valueQuantity": {
          "system": "http://unitsofmeasure.org",
          "value": 79.2,
          "unit": "mg/dL",
          "code": "mg/dL"
        },
        "referenceRange": [
          {
            "low": {
              "value": 70,
              "code": "mg/dL",
              "system": "http://unitsofmeasure.org"
            }
          },
          {
            "high": {
              "value": 140,
              "code": "mg/dL",
              "system": "http://unitsofmeasure.org"
            }
          }
        ],
        "text": {
          "status": "generated",
          "div": "<div xmlns=\"http://www.w3.org/1999/xhtml\"><table class=\"hl7__eu__lab__report\"><tr><th>Test</th><th>11-Jun-2023</th><th>Reference&#xA0;Range</th><th>Unit</th></tr><tr><td>Glucose [Mass/volume] in Blood</td><td>79.2</td><td>70 - 140</td><td></td><td>mg/dL</td></tr></table></div>"
        },
        "status": "final",
        "subject": {
          "reference": "urn:uuid:8b259a51-5380-497a-a108-d972e50720e9",
          "display": "Iva Kratochvílová"
        },
        "effectiveDateTime": "2023-06-11T16:10:29Z",
        "specimen": {
          "reference": "urn:uuid:4e753f93-c387-418a-ab31-e5c817155778"
        }
      }
    },
    {
      "fullUrl": "urn:uuid:6a81dd41-780a-4069-af7d-aed04d296e72",
      "resource": {
        "resourceType": "Observation",
        "id": "6a81dd41-780a-4069-af7d-aed04d296e72",
        "meta": {
          "profile": [
            "http://hl7.eu/fhir/laboratory/StructureDefinition/Observation-resultslab-eu-lab"
          ]
        },
        "performer": [
          {
            "display": "The Central European Lab"
          }
        ],
        "category": [
          {
            "coding": [
              {
                "system": "http://terminology.hl7.org/CodeSystem/observation-category",
                "code": "laboratory"
              }
            ]
          }
        ],
        "code": {
          "coding": [
            {
              "code": "6299-2",
              "system": "http://loinc.org",
              "display": "Urea nitrogen [Mass/volume] in Blood"
            }
          ],
          "text": "Urea nitrogen [Mass/volume] in Blood"
        },
        "valueQuantity": {
          "system": "http://unitsofmeasure.org",
          "value": 19.3,
          "unit": "mg/dL",
          "code": "mg/dL"
        },
        "referenceRange": [
          {
            "low": {
              "value": 7,
              "code": "mg/dL",
              "system": "http://unitsofmeasure.org"
            }
          },
          {
            "high": {
              "value": 25,
              "code": "mg/dL",
              "system": "http://unitsofmeasure.org"
            }
          }
        ],
        "text": {
          "status": "generated",
          "div": "<div xmlns=\"http://www.w3.org/1999/xhtml\"><table class=\"hl7__eu__lab__report\"><tr><th>Test</th><th>11-Jun-2023</th><th>Reference&#xA0;Range</th><th>Unit</th></tr><tr><td>Urea nitrogen [Mass/volume] in Blood</td><td>19.3</td><td>7 - 25</td><td></td><td>mg/dL</td></tr></table></div>"
        },
        "status": "final",
        "subject": {
          "reference": "urn:uuid:8b259a51-5380-497a-a108-d972e50720e9",
          "display": "Iva Kratochvílová"
        },
        "effectiveDateTime": "2023-06-11T16:10:29Z",
        "specimen": {
          "reference": "urn:uuid:4e753f93-c387-418a-ab31-e5c817155778"
        }
      }
    },
    {
      "fullUrl": "urn:uuid:c11c4f9b-d7d6-4cf5-83f3-64f25b4121e6",
      "resource": {
        "resourceType": "Observation",
        "id": "c11c4f9b-d7d6-4cf5-83f3-64f25b4121e6",
        "meta": {
          "profile": [
            "http://hl7.eu/fhir/laboratory/StructureDefinition/Observation-resultslab-eu-lab"
          ]
        },
        "performer": [
          {
            "display": "The Central European Lab"
          }
        ],
        "category": [
          {
            "coding": [
              {
                "system": "http://terminology.hl7.org/CodeSystem/observation-category",
                "code": "laboratory"
              }
            ]
          }
        ],
        "code": {
          "coding": [
            {
              "code": "38483-4",
              "system": "http://loinc.org",
              "display": "Creatinine [Mass/volume] in Blood"
            }
          ],
          "text": "Creatinine [Mass/volume] in Blood"
        },
        "valueQuantity": {
          "system": "http://unitsofmeasure.org",
          "value": 1.5,
          "unit": "mg/dL",
          "code": "mg/dL"
        },
        "referenceRange": [
          {
            "low": {
              "value": 0.6,
              "code": "mg/dL",
              "system": "http://unitsofmeasure.org"
            }
          },
          {
            "high": {
              "value": 1.1,
              "code": "mg/dL",
              "system": "http://unitsofmeasure.org"
            }
          }
        ],
        "interpretation": [
          {
            "coding": [
              {
                "code": "H",
                "system": "http://terminology.hl7.org/CodeSystem/v3-ObservationInterpretation",
                "display": "High"
              }
            ]
          }
        ],
        "text": {
          "status": "generated",
          "div": "<div xmlns=\"http://www.w3.org/1999/xhtml\"><table class=\"hl7__eu__lab__report\"><tr><th>Test</th><th>11-Jun-2023</th><th>Reference&#xA0;Range</th><th>Unit</th></tr><tr><td>Creatinine [Mass/volume] in Blood</td><td>1.5</td><td>0.6 - 1.1</td><td>H</td><td>mg/dL</td></tr></table></div>"
        },
        "status": "final",
        "subject": {
          "reference": "urn:uuid:8b259a51-5380-497a-a108-d972e50720e9",
          "display": "Iva Kratochvílová"
        },
        "effectiveDateTime": "2023-06-11T16:10:29Z",
        "specimen": {
          "reference": "urn:uuid:4e753f93-c387-418a-ab31-e5c817155778"
        }
      }
    },
    {
      "fullUrl": "urn:uuid:3b27670b-ff9e-4dfa-a300-d88eaf7cda4e",
      "resource": {
        "resourceType": "Observation",
        "id": "3b27670b-ff9e-4dfa-a300-d88eaf7cda4e",
        "meta": {
          "profile": [
            "http://hl7.eu/fhir/laboratory/StructureDefinition/Observation-resultslab-eu-lab"
          ]
        },
        "performer": [
          {
            "display": "The Central European Lab"
          }
        ],
        "category": [
          {
            "coding": [
              {
                "system": "http://terminology.hl7.org/CodeSystem/observation-category",
                "code": "laboratory"
              }
            ]
          }
        ],
        "code": {
          "coding": [
            {
              "code": "49765-1",
              "system": "http://loinc.org",
              "display": "Calcium [Mass/volume] in Blood"
            }
          ],
          "text": "Calcium [Mass/volume] in Blood"
        },
        "valueQuantity": {
          "system": "http://unitsofmeasure.org",
          "value": 9.3,
          "unit": "mg/dL",
          "code": "mg/dL"
        },
        "referenceRange": [
          {
            "low": {
              "value": 8.6,
              "code": "mg/dL",
              "system": "http://unitsofmeasure.org"
            }
          },
          {
            "high": {
              "value": 10.4,
              "code": "mg/dL",
              "system": "http://unitsofmeasure.org"
            }
          }
        ],
        "text": {
          "status": "generated",
          "div": "<div xmlns=\"http://www.w3.org/1999/xhtml\"><table class=\"hl7__eu__lab__report\"><tr><th>Test</th><th>11-Jun-2023</th><th>Reference&#xA0;Range</th><th>Unit</th></tr><tr><td>Calcium [Mass/volume] in Blood</td><td>9.3</td><td>8.6 - 10.4</td><td></td><td>mg/dL</td></tr></table></div>"
        },
        "status": "final",
        "subject": {
          "reference": "urn:uuid:8b259a51-5380-497a-a108-d972e50720e9",
          "display": "Iva Kratochvílová"
        },
        "effectiveDateTime": "2023-06-11T16:10:29Z",
        "specimen": {
          "reference": "urn:uuid:4e753f93-c387-418a-ab31-e5c817155778"
        }
      }
    },
    {
      "fullUrl": "urn:uuid:29f7f0cd-a9c2-43d3-bfbf-438e406d85eb",
      "resource": {
        "resourceType": "Observation",
        "id": "29f7f0cd-a9c2-43d3-bfbf-438e406d85eb",
        "meta": {
          "profile": [
            "http://hl7.eu/fhir/laboratory/StructureDefinition/Observation-resultslab-eu-lab"
          ]
        },
        "performer": [
          {
            "display": "The Central European Lab"
          }
        ],
        "category": [
          {
            "coding": [
              {
                "system": "http://terminology.hl7.org/CodeSystem/observation-category",
                "code": "laboratory"
              }
            ]
          }
        ],
        "code": {
          "coding": [
            {
              "code": "2947-0",
              "system": "http://loinc.org",
              "display": "Sodium [Moles/volume] in Blood"
            }
          ],
          "text": "Sodium [Moles/volume] in Blood"
        },
        "valueQuantity": {
          "system": "http://unitsofmeasure.org",
          "value": 140,
          "unit": "mmol/L",
          "code": "mmol/L"
        },
        "referenceRange": [
          {
            "low": {
              "value": 135,
              "code": "mmol/L",
              "system": "http://unitsofmeasure.org"
            }
          },
          {
            "high": {
              "value": 145,
              "code": "mmol/L",
              "system": "http://unitsofmeasure.org"
            }
          }
        ],
        "text": {
          "status": "generated",
          "div": "<div xmlns=\"http://www.w3.org/1999/xhtml\"><table class=\"hl7__eu__lab__report\"><tr><th>Test</th><th>11-Jun-2023</th><th>Reference&#xA0;Range</th><th>Unit</th></tr><tr><td>Sodium [Moles/volume] in Blood</td><td>140.0</td><td>135 - 145</td><td></td><td>mmol/L</td></tr></table></div>"
        },
        "status": "final",
        "subject": {
          "reference": "urn:uuid:8b259a51-5380-497a-a108-d972e50720e9",
          "display": "Iva Kratochvílová"
        },
        "effectiveDateTime": "2023-06-11T16:10:29Z",
        "specimen": {
          "reference": "urn:uuid:4e753f93-c387-418a-ab31-e5c817155778"
        }
      }
    },
    {
      "fullUrl": "urn:uuid:24162d8a-01b7-421d-915f-50b13655c224",
      "resource": {
        "resourceType": "Observation",
        "id": "24162d8a-01b7-421d-915f-50b13655c224",
        "meta": {
          "profile": [
            "http://hl7.eu/fhir/laboratory/StructureDefinition/Observation-resultslab-eu-lab"
          ]
        },
        "performer": [
          {
            "display": "The Central European Lab"
          }
        ],
        "category": [
          {
            "coding": [
              {
                "system": "http://terminology.hl7.org/CodeSystem/observation-category",
                "code": "laboratory"
              }
            ]
          }
        ],
        "code": {
          "coding": [
            {
              "code": "6298-4",
              "system": "http://loinc.org",
              "display": "Potassium [Moles/volume] in Blood"
            }
          ],
          "text": "Potassium [Moles/volume] in Blood"
        },
        "valueQuantity": {
          "system": "http://unitsofmeasure.org",
          "value": 3.8,
          "unit": "mmol/L",
          "code": "mmol/L"
        },
        "referenceRange": [
          {
            "low": {
              "value": 3.5,
              "code": "mmol/L",
              "system": "http://unitsofmeasure.org"
            }
          },
          {
            "high": {
              "value": 5.1,
              "code": "mmol/L",
              "system": "http://unitsofmeasure.org"
            }
          }
        ],
        "text": {
          "status": "generated",
          "div": "<div xmlns=\"http://www.w3.org/1999/xhtml\"><table class=\"hl7__eu__lab__report\"><tr><th>Test</th><th>11-Jun-2023</th><th>Reference&#xA0;Range</th><th>Unit</th></tr><tr><td>Potassium [Moles/volume] in Blood</td><td>3.8</td><td>3.5 - 5.1</td><td></td><td>mmol/L</td></tr></table></div>"
        },
        "status": "final",
        "subject": {
          "reference": "urn:uuid:8b259a51-5380-497a-a108-d972e50720e9",
          "display": "Iva Kratochvílová"
        },
        "effectiveDateTime": "2023-06-11T16:10:29Z",
        "specimen": {
          "reference": "urn:uuid:4e753f93-c387-418a-ab31-e5c817155778"
        }
      }
    },
    {
      "fullUrl": "urn:uuid:7588091c-a9d8-420e-b014-2c0804a7277d",
      "resource": {
        "resourceType": "Observation",
        "id": "7588091c-a9d8-420e-b014-2c0804a7277d",
        "meta": {
          "profile": [
            "http://hl7.eu/fhir/laboratory/StructureDefinition/Observation-resultslab-eu-lab"
          ]
        },
        "performer": [
          {
            "display": "The Central European Lab"
          }
        ],
        "category": [
          {
            "coding": [
              {
                "system": "http://terminology.hl7.org/CodeSystem/observation-category",
                "code": "laboratory"
              }
            ]
          }
        ],
        "code": {
          "coding": [
            {
              "code": "2069-3",
              "system": "http://loinc.org",
              "display": "Chloride [Moles/volume] in Blood"
            }
          ],
          "text": "Chloride [Moles/volume] in Blood"
        },
        "valueQuantity": {
          "system": "http://unitsofmeasure.org",
          "value": 107.1,
          "unit": "mmol/L",
          "code": "mmol/L"
        },
        "referenceRange": [
          {
            "low": {
              "value": 98,
              "code": "mmol/L",
              "system": "http://unitsofmeasure.org"
            }
          },
          {
            "high": {
              "value": 110,
              "code": "mmol/L",
              "system": "http://unitsofmeasure.org"
            }
          }
        ],
        "text": {
          "status": "generated",
          "div": "<div xmlns=\"http://www.w3.org/1999/xhtml\"><table class=\"hl7__eu__lab__report\"><tr><th>Test</th><th>11-Jun-2023</th><th>Reference&#xA0;Range</th><th>Unit</th></tr><tr><td>Chloride [Moles/volume] in Blood</td><td>107.1</td><td>98 - 110</td><td></td><td>mmol/L</td></tr></table></div>"
        },
        "status": "final",
        "subject": {
          "reference": "urn:uuid:8b259a51-5380-497a-a108-d972e50720e9",
          "display": "Iva Kratochvílová"
        },
        "effectiveDateTime": "2023-06-11T16:10:29Z",
        "specimen": {
          "reference": "urn:uuid:4e753f93-c387-418a-ab31-e5c817155778"
        }
      }
    },
    {
      "fullUrl": "urn:uuid:444e7f1a-6fc8-41ee-9ec3-3acd29f57bd5",
      "resource": {
        "resourceType": "Observation",
        "id": "444e7f1a-6fc8-41ee-9ec3-3acd29f57bd5",
        "meta": {
          "profile": [
            "http://hl7.eu/fhir/laboratory/StructureDefinition/Observation-resultslab-eu-lab"
          ]
        },
        "performer": [
          {
            "display": "The Central European Lab"
          }
        ],
        "category": [
          {
            "coding": [
              {
                "system": "http://terminology.hl7.org/CodeSystem/observation-category",
                "code": "laboratory"
              }
            ]
          }
        ],
        "code": {
          "coding": [
            {
              "code": "20565-8",
              "system": "http://loinc.org",
              "display": "Carbon dioxide, total [Moles/volume] in Blood"
            }
          ],
          "text": "Carbon dioxide, total [Moles/volume] in Blood"
        },
        "valueQuantity": {
          "system": "http://unitsofmeasure.org",
          "value": 27.3,
          "unit": "mmol/L",
          "code": "mmol/L"
        },
        "referenceRange": [
          {
            "low": {
              "value": 22,
              "code": "mmol/L",
              "system": "http://unitsofmeasure.org"
            }
          },
          {
            "high": {
              "value": 29,
              "code": "mmol/L",
              "system": "http://unitsofmeasure.org"
            }
          }
        ],
        "text": {
          "status": "generated",
          "div": "<div xmlns=\"http://www.w3.org/1999/xhtml\"><table class=\"hl7__eu__lab__report\"><tr><th>Test</th><th>11-Jun-2023</th><th>Reference&#xA0;Range</th><th>Unit</th></tr><tr><td>Carbon dioxide, total [Moles/volume] in Blood</td><td>27.3</td><td>22 - 29</td><td></td><td>mmol/L</td></tr></table></div>"
        },
        "status": "final",
        "subject": {
          "reference": "urn:uuid:8b259a51-5380-497a-a108-d972e50720e9",
          "display": "Iva Kratochvílová"
        },
        "effectiveDateTime": "2023-06-11T16:10:29Z",
        "specimen": {
          "reference": "urn:uuid:4e753f93-c387-418a-ab31-e5c817155778"
        }
      }
    },
    {
      "fullUrl": "urn:uuid:018b0945-6fdd-495a-a609-77c73a2722ab",
      "resource": {
        "resourceType": "Device",
        "id": "018b0945-6fdd-495a-a609-77c73a2722ab",
        "deviceName": [
          {
            "name": "SYNDERAI Synthetic Generator",
            "type": "manufacturer-name"
          }
        ],
        "version": [
          {
            "value": "5.0"
          }
        ],
        "text": {
          "status": "generated",
          "div": "<div xmlns=\"http://www.w3.org/1999/xhtml\">SYNDERAI Synthetic Generator v5.0</div>"
        },
        "status": "active\"",
        "distinctIdentifier": "synderai-generator-50",
        "manufacturer": "SYNDERAI Project"
      }
    },
    {
      "fullUrl": "urn:uuid:fda0121f-9461-4b58-8b69-9d2477b5a830",
      "resource": {
        "resourceType": "Provenance",
        "id": "fda0121f-9461-4b58-8b69-9d2477b5a830",
        "target": [
          {
            "reference": "Patient/8b259a51-5380-497a-a108-d972e50720e9"
          },
          {
            "reference": "Bundle/2d13cfc8-9fb3-40e2-9f3b-728d807bd93a"
          },
          {
            "reference": "Composition/5fe21828-e3e9-46a1-b150-6f589ae9bffe"
          },
          {
            "reference": "PractitionerRole/f1710115-1976-4815-ba00-86a07183fc71"
          },
          {
            "reference": "Practitioner/e05b43d3-044b-41ce-970e-4d6c70436bec"
          },
          {
            "reference": "PractitionerRole/aa6f9e32-e5bc-4ba2-9885-35846b6e3c0f"
          },
          {
            "reference": "Organization/7b3acb3d-1191-4864-9f91-f6aa2ffba854"
          }
        ],
        "activity": {
          "text": "Synthetic Example Data Generation"
        },
        "policy": [
          "https://synderai.net/synderai-synthetic-data-policy"
        ],
        "agent": [
          {
            "type": {
              "text": "author"
            },
            "who": {
              "reference": "Device/018b0945-6fdd-495a-a609-77c73a2722ab"
            }
          }
        ],
        "reason": [
          {
            "text": "Interoperability Testing and Training (non-clinical use)"
          }
        ],
        "text": {
          "status": "generated",
          "div": "<div xmlns=\"http://www.w3.org/1999/xhtml\">Provenance for SYNDERAI Synthetic Example Data Resource</div>"
        },
        "recorded": "2023-06-11T18:10:29Z"
      }
    },
    {
      "fullUrl": "urn:uuid:f1710115-1976-4815-ba00-86a07183fc71",
      "resource": {
        "resourceType": "PractitionerRole",
        "id": "f1710115-1976-4815-ba00-86a07183fc71",
        "meta": {
          "profile": [
            "http://hl7.eu/fhir/base/StructureDefinition/practitionerRole-eu"
          ]
        },
        "text": {
          "status": "generated",
          "div": "<div xmlns=\"http://www.w3.org/1999/xhtml\">Laboratory Role Id: f1710115-1976-4815-ba00-86a07183fc71</div>"
        },
        "practitioner": {
          "reference": "urn:uuid:e05b43d3-044b-41ce-970e-4d6c70436bec"
        }
      }
    },
    {
      "fullUrl": "urn:uuid:e05b43d3-044b-41ce-970e-4d6c70436bec",
      "resource": {
        "resourceType": "Practitioner",
        "id": "e05b43d3-044b-41ce-970e-4d6c70436bec",
        "meta": {
          "profile": [
            "http://hl7.eu/fhir/base/StructureDefinition/practitioner-eu"
          ]
        },
        "identifier": [
          {
            "assigner": {
              "display": "HL7 Europe"
            },
            "system": "urn:oid:2.16.840.1.113883.2.51.999",
            "value": "c2ed7d0e-4d1e-4d8c-876c-e10320b6f471"
          }
        ],
        "name": [
          {
            "prefix": [
              "dr"
            ],
            "given": [
              "Ex"
            ],
            "family": "Ample"
          }
        ],
        "address": [
          {
            "line": [
              "Laboratoire Central Européenne",
              "Boulevard du Jardin Botanique 32"
            ],
            "postalCode": "1000",
            "city": "Brussels",
            "country": "Belgium"
          }
        ],
        "text": {
          "status": "generated",
          "div": "<div xmlns=\"http://www.w3.org/1999/xhtml\">Laboratory: Laboratoire Central Européenne, 1000 Brussels, Belgium</div>"
        }
      }
    }
  ],
  "type": "document",
  "timestamp": "2023-06-11T18:10:29Z"
}
