{
  "resourceType": "Bundle",
  "id": "9fcb429b-850e-470a-90f4-6e227f830c4b",
  "meta": {
    "profile": [
      "http://hl7.eu/fhir/laboratory/StructureDefinition/Bundle-eu-lab"
    ]
  },
  "identifier": {
    "assigner": {
      "display": "HL7 Europe"
    },
    "system": "urn:oid:2.16.840.1.113883.2.51.999",
    "value": "289e478a-fd3b-4cf6-9989-6f0a7e4ec2ed"
  },
  "entry": [
    {
      "fullUrl": "urn:uuid:17e18ede-8e6d-426e-adac-8ca452a1444b",
      "resource": {
        "resourceType": "Composition",
        "id": "17e18ede-8e6d-426e-adac-8ca452a1444b",
        "meta": {
          "profile": [
            "http://hl7.eu/fhir/laboratory/StructureDefinition/Composition-eu-lab"
          ]
        },
        "identifier": {
          "assigner": {
            "display": "HL7 Europe"
          },
          "system": "urn:oid:2.16.840.1.113883.2.51.999",
          "value": "4197bbc7-a81f-4354-baae-4970eff73bea"
        },
        "author": [
          {
            "reference": "urn:uuid:7f264467-006f-452b-b36f-e589ed6674ce"
          }
        ],
        "category": [
          {
            "coding": [
              {
                "code": "26436-6",
                "system": "http://loinc.org",
                "display": "Laboratory studies (set)"
              }
            ]
          }
        ],
        "type": {
          "coding": [
            {
              "code": "11502-2",
              "system": "http://loinc.org",
              "display": "Laboratory report"
            }
          ],
          "text": "Laboratory Report"
        },
        "section": [
          {
            "code": {
              "coding": [
                {
                  "code": "26436-6",
                  "system": "http://loinc.org",
                  "display": "Laboratory studies (set)"
                }
              ],
              "text": "Laboratory studies"
            },
            "section": [
              {
                "code": {
                  "coding": [
                    {
                      "code": "$18719-5",
                      "system": "http://loinc.org",
                      "display": "Chemistry studies (set)"
                    }
                  ],
                  "text": "Chemistry"
                },
                "entry": [
                  {
                    "reference": "urn:uuid:f2acc95d-594d-4701-af0e-7ec13d714904"
                  },
                  {
                    "reference": "urn:uuid:36b6cb3f-af06-42be-9f0f-4527ec940958"
                  },
                  {
                    "reference": "urn:uuid:3fe7dbc7-83ed-40bb-9879-339d3f7be23d"
                  },
                  {
                    "reference": "urn:uuid:98df79e6-e45f-4634-bada-a518ec6bbeac"
                  },
                  {
                    "reference": "urn:uuid:9c45c52d-d1d6-4bdd-bc8c-6adcec13c8d4"
                  },
                  {
                    "reference": "urn:uuid:f0c62f8c-1482-4b70-9083-8f594d181e19"
                  },
                  {
                    "reference": "urn:uuid:87fc2ba3-a116-4d42-9edc-dccfe2381c10"
                  },
                  {
                    "reference": "urn:uuid:903a864b-96e7-45a5-a506-eb2be52d5c57"
                  },
                  {
                    "reference": "urn:uuid:ee645f8f-2c30-4227-bf47-3a76226fc2f1"
                  },
                  {
                    "reference": "urn:uuid:c35a3a19-34ff-44a2-850e-1309caa9859e"
                  },
                  {
                    "reference": "urn:uuid:a4aa6c7d-0e33-47dc-8fdb-813ec40fe7d4"
                  },
                  {
                    "reference": "urn:uuid:d5f1e3b3-999a-4bac-a97f-fcaadf170b57"
                  },
                  {
                    "reference": "urn:uuid:39ac49b1-5fad-458e-946a-ba0e9f9e2983"
                  },
                  {
                    "reference": "urn:uuid:b793f38e-a691-4f3e-9d27-0419d205b809"
                  },
                  {
                    "reference": "urn:uuid:5460d127-160b-4193-91a6-a7ae43aba792"
                  },
                  {
                    "reference": "urn:uuid:86800169-16b2-4891-bc38-aa2fa100c034"
                  },
                  {
                    "reference": "urn:uuid:0530e12f-4054-4de5-9a07-095938838ac0"
                  },
                  {
                    "reference": "urn:uuid:c363bb10-8d9c-48ad-9074-e47b45277ad4"
                  }
                ],
                "text": {
                  "status": "generated",
                  "div": "<div xmlns=\"http://www.w3.org/1999/xhtml\"><h3>Chemistry</h3><table class=\"hl7__eu__lab__report\"><thead><tr><th>Test</th><th>28-SEP-2023</th><th>Reference&#xA0;Range</th><th>Unit</th></tr></thead><tbody><tr><td>Glucose [Mass/volume] in Serum or Plasma</td><td>90.5</td><td>70 - 139</td><td>mg/dL</td></tr><tr><td>Urea nitrogen [Mass/volume] in Serum or Plasma</td><td>16.4</td><td>7 - 20</td><td>mg/dL</td></tr><tr><td>Creatinine [Mass/volume] in Serum or Plasma</td><td><strong>1.9 H</strong></td><td>0.6 - 1.1</td><td>mg/dL</td></tr><tr><td>Calcium [Mass/volume] in Serum or Plasma</td><td>10.2</td><td>8.5 - 10.4</td><td>mg/dL</td></tr><tr><td>Sodium [Moles/volume] in Serum or Plasma</td><td>139.4</td><td>135 - 145</td><td>mmol/L</td></tr><tr><td>Potassium [Moles/volume] in Serum or Plasma</td><td>5.1</td><td>3.5 - 5.1</td><td>mmol/L</td></tr><tr><td>Chloride [Moles/volume] in Serum or Plasma</td><td>108.4</td><td>98 - 110</td><td>mmol/L</td></tr><tr><td>Carbon dioxide, total [Moles/volume] in Serum or Plasma</td><td><strong>21.8 L</strong></td><td>22 - 32</td><td>mmol/L</td></tr><tr><td>Ketones [Presence] in Urine by Test strip</td><td>Urine ketone test = +</td><td></td><td></td></tr><tr><td>Hemoglobin A1c/Hemoglobin.total in Blood</td><td><strong>3.1 L</strong></td><td>4 - 6</td><td>%</td></tr><tr><td>Glucose [Mass/volume] in Blood</td><td>90.5</td><td>70 - 100</td><td>mg/dL</td></tr><tr><td>Urea nitrogen [Mass/volume] in Blood</td><td>16.4</td><td>7 - 20</td><td>mg/dL</td></tr><tr><td>Creatinine [Mass/volume] in Blood</td><td>1.3</td><td>0.6 - 1.3</td><td>mg/dL</td></tr><tr><td>Calcium [Mass/volume] in Blood</td><td>10.2</td><td>8.6 - 10.4</td><td>mg/dL</td></tr><tr><td>Sodium [Moles/volume] in Blood</td><td>139.4</td><td>135 - 145</td><td>mmol/L</td></tr><tr><td>Potassium [Moles/volume] in Blood</td><td>5.1</td><td>3.5 - 5.1</td><td>mmol/L</td></tr><tr><td>Chloride [Moles/volume] in Blood</td><td>108.4</td><td>98 - 110</td><td>mmol/L</td></tr><tr><td>Carbon dioxide, total [Moles/volume] in Blood</td><td><strong>21.8 L</strong></td><td>22 - 29</td><td>mmol/L</td></tr></tbody></table></div>"
                },
                "title": "Chemistry"
              },
              {
                "code": {
                  "coding": [
                    {
                      "code": "$18729-4",
                      "system": "http://loinc.org",
                      "display": "Urinalysis studies (set)"
                    }
                  ],
                  "text": "Urinalysis"
                },
                "entry": [
                  {
                    "reference": "urn:uuid:cb744d08-19af-49c8-801d-797a70c585e0"
                  },
                  {
                    "reference": "urn:uuid:0d238be0-7b4c-4292-adc5-e363ac17ff6c"
                  },
                  {
                    "reference": "urn:uuid:aaa2db70-3332-4072-98a4-6077277429d2"
                  },
                  {
                    "reference": "urn:uuid:d8d1e672-6fdc-4e64-b68c-f8d7b3d30c1a"
                  },
                  {
                    "reference": "urn:uuid:afcfe495-30a3-4b61-88a8-fd0ccdafe971"
                  },
                  {
                    "reference": "urn:uuid:b87b5f9b-a747-4af6-a352-020355401f28"
                  },
                  {
                    "reference": "urn:uuid:f530d7d1-a04f-4afe-b041-fd16465a8da7"
                  },
                  {
                    "reference": "urn:uuid:d3227c1d-225f-4ca2-b94b-4317ab6cb151"
                  },
                  {
                    "reference": "urn:uuid:85d9cf07-68f9-42d4-8baf-65e13c25d87d"
                  },
                  {
                    "reference": "urn:uuid:7300dd00-5f4c-4030-8042-5b0e4005dbfe"
                  },
                  {
                    "reference": "urn:uuid:64960263-c712-416e-9e16-65845374a7db"
                  },
                  {
                    "reference": "urn:uuid:b3f77bc1-023a-4836-a494-7b5f523e1ae7"
                  }
                ],
                "text": {
                  "status": "generated",
                  "div": "<div xmlns=\"http://www.w3.org/1999/xhtml\"><h3>Urinalysis</h3><table class=\"hl7__eu__lab__report\"><thead><tr><th>Test</th><th>28-SEP-2023</th><th>Reference&#xA0;Range</th><th>Unit</th></tr></thead><tbody><tr><td>Glucose [Mass/volume] in Urine by Test strip</td><td><strong>1.8 H</strong></td><td>0 - 0</td><td>mg/dL</td></tr><tr><td>Glucose [Presence] in Urine by Test strip</td><td>++</td><td></td><td></td></tr><tr><td>Bilirubin.total [Mass/volume] in Urine by Test strip</td><td>1.0</td><td>0 - 1.6</td><td>mg/dL</td></tr><tr><td>Bilirubin.total [Presence] in Urine by Test strip</td><td>Finding of bilirubin in urine</td><td></td><td></td></tr><tr><td>Ketones [Mass/volume] in Urine by Test strip</td><td><strong>4.2 H</strong></td><td>0 - 0.5</td><td>mg/dL</td></tr><tr><td>Specific gravity of Urine by Test strip</td><td><strong>1.0 L</strong></td><td>1.005 - 1.03</td><td>{nominal}</td></tr><tr><td>pH of Urine by Test strip</td><td>5.6</td><td>4.5 - 7.5</td><td>pH</td></tr><tr><td>Protein [Mass/volume] in Urine by Test strip</td><td><strong>300.4 H</strong></td><td>0 - 15</td><td>mg/dL</td></tr><tr><td>Protein [Presence] in Urine by Test strip</td><td>Urine protein test = ++</td><td></td><td></td></tr><tr><td>Nitrite [Presence] in Urine by Test strip</td><td>Urine nitrite negative</td><td></td><td></td></tr><tr><td>Hemoglobin [Presence] in Urine by Test strip</td><td>Urine blood test = negative</td><td></td><td></td></tr><tr><td>Leukocyte esterase [Presence] in Urine by Test strip</td><td>Urine leukocyte test negative</td><td></td><td></td></tr></tbody></table></div>"
                },
                "title": "Urinalysis"
              },
              {
                "code": {
                  "coding": [
                    {
                      "code": "$LP7846-1",
                      "system": "http://loinc.org",
                      "display": "Specimen information"
                    }
                  ],
                  "text": "Specimen information"
                },
                "entry": [
                  {
                    "reference": "urn:uuid:b4f08d44-ae89-4abc-a57f-8a1af76b690f"
                  },
                  {
                    "reference": "urn:uuid:0c2aa290-1910-4c9e-b239-a1c254180c92"
                  },
                  {
                    "reference": "urn:uuid:bcebb04d-5af7-4954-9e7a-f8a937ff1640"
                  },
                  {
                    "reference": "urn:uuid:d9aec13a-ed0b-415c-8d30-f2d3f8c66f27"
                  }
                ],
                "text": {
                  "status": "generated",
                  "div": "<div xmlns=\"http://www.w3.org/1999/xhtml\"><h3>Specimen information</h3><table class=\"hl7__eu__lab__report\"><thead><tr><th>Test</th><th>28-SEP-2023</th><th>Specimen</th><th></th></tr></thead><tbody><tr><td>Appearance of Urine</td><td>Cloudy urine</td><td>Urine</td><td></td></tr><tr><td>Odor of Urine</td><td>Urine smell ammoniacal</td><td>Urine</td><td></td></tr><tr><td>Clarity of Urine</td><td>Translucent</td><td>Urine</td><td></td></tr><tr><td>Color of Urine</td><td>Brown color</td><td>Urine</td><td></td></tr></tbody></table></div>"
                },
                "title": "Specimen information"
              }
            ],
            "title": "Laboratory Report"
          },
          {
            "text": {
              "status": "generated",
              "div": "<div xmlns=\"http://www.w3.org/1999/xhtml\"><h3>Annotation</h3><table class=\"hl7__eu__lab__report\"><tr><th>Conclusion and Recommendations based on this report and previous findings known to us</th></tr><tr><td>The patient shows elevated serum creatinine, significant proteinuria, glycosuria, and ketonuria, with low urine specific gravity and cloudy, brown urine, suggesting possible renal dysfunction (likely glomerular) and impaired tubular reabsorption. Low HbA1c with normal blood glucose argues against chronic hyperglycemia. Mildly decreased CO₂ may indicate mild metabolic acidosis. Urine findings are not typical for infection. Recommend further nephrological evaluation for possible acute or chronic kidney disease and assessment for non-diabetic causes of glycosuria and proteinuria.</td></tr></table></div>"
            },
            "code": {
              "coding": [
                {
                  "system": "http://loinc.org",
                  "code": "48767-8",
                  "display": "Annotation comment"
                }
              ]
            },
            "title": "Annotation comment"
          }
        ],
        "status": "final",
        "subject": {
          "reference": "urn:uuid:7e3cfe2b-480f-4805-8b29-ef9f324ff230",
          "display": "Molly Jenkins"
        },
        "date": "2023-09-28T16:42:11Z",
        "title": "Laboratory Report",
        "confidentiality": "N"
      }
    },
    {
      "fullUrl": "urn:uuid:b6ef6f77-7f4f-4da6-9376-15459ab3b971",
      "resource": {
        "resourceType": "DiagnosticReport",
        "id": "b6ef6f77-7f4f-4da6-9376-15459ab3b971",
        "meta": {
          "profile": [
            "http://hl7.eu/fhir/laboratory/StructureDefinition/DiagnosticReport-eu-lab"
          ]
        },
        "identifier": [
          {
            "assigner": {
              "display": "HL7 Europe"
            },
            "system": "urn:oid:2.16.840.1.113883.2.51.999",
            "value": "5e692c81-4694-4c4d-8c01-9a0d5a170c63"
          }
        ],
        "extension": [
          {
            "url": "http://hl7.org/fhir/5.0/StructureDefinition/extension-DiagnosticReport.composition",
            "valueReference": {
              "reference": "urn:uuid:4197bbc7-a81f-4354-baae-4970eff73bea"
            }
          }
        ],
        "category": [
          {
            "coding": [
              {
                "code": "26436-6",
                "system": "http://loinc.org",
                "display": "Laboratory studies (set)"
              }
            ]
          }
        ],
        "specimen": [
          {
            "reference": "urn:uuid:ac3a6540-b8c8-4a9f-ab1b-30b1f19f92e3"
          },
          {
            "reference": "urn:uuid:16e01c94-f2bb-482b-b5a6-b1136b2d9ed1"
          },
          {
            "reference": "urn:uuid:b9a28b0b-e4d8-4787-adce-47dc32e0a3a9"
          }
        ],
        "result": [
          {
            "reference": "urn:uuid:f2acc95d-594d-4701-af0e-7ec13d714904"
          },
          {
            "reference": "urn:uuid:36b6cb3f-af06-42be-9f0f-4527ec940958"
          },
          {
            "reference": "urn:uuid:3fe7dbc7-83ed-40bb-9879-339d3f7be23d"
          },
          {
            "reference": "urn:uuid:98df79e6-e45f-4634-bada-a518ec6bbeac"
          },
          {
            "reference": "urn:uuid:9c45c52d-d1d6-4bdd-bc8c-6adcec13c8d4"
          },
          {
            "reference": "urn:uuid:f0c62f8c-1482-4b70-9083-8f594d181e19"
          },
          {
            "reference": "urn:uuid:87fc2ba3-a116-4d42-9edc-dccfe2381c10"
          },
          {
            "reference": "urn:uuid:903a864b-96e7-45a5-a506-eb2be52d5c57"
          },
          {
            "reference": "urn:uuid:b4f08d44-ae89-4abc-a57f-8a1af76b690f"
          },
          {
            "reference": "urn:uuid:0c2aa290-1910-4c9e-b239-a1c254180c92"
          },
          {
            "reference": "urn:uuid:bcebb04d-5af7-4954-9e7a-f8a937ff1640"
          },
          {
            "reference": "urn:uuid:d9aec13a-ed0b-415c-8d30-f2d3f8c66f27"
          },
          {
            "reference": "urn:uuid:cb744d08-19af-49c8-801d-797a70c585e0"
          },
          {
            "reference": "urn:uuid:0d238be0-7b4c-4292-adc5-e363ac17ff6c"
          },
          {
            "reference": "urn:uuid:aaa2db70-3332-4072-98a4-6077277429d2"
          },
          {
            "reference": "urn:uuid:d8d1e672-6fdc-4e64-b68c-f8d7b3d30c1a"
          },
          {
            "reference": "urn:uuid:afcfe495-30a3-4b61-88a8-fd0ccdafe971"
          },
          {
            "reference": "urn:uuid:ee645f8f-2c30-4227-bf47-3a76226fc2f1"
          },
          {
            "reference": "urn:uuid:b87b5f9b-a747-4af6-a352-020355401f28"
          },
          {
            "reference": "urn:uuid:f530d7d1-a04f-4afe-b041-fd16465a8da7"
          },
          {
            "reference": "urn:uuid:d3227c1d-225f-4ca2-b94b-4317ab6cb151"
          },
          {
            "reference": "urn:uuid:85d9cf07-68f9-42d4-8baf-65e13c25d87d"
          },
          {
            "reference": "urn:uuid:7300dd00-5f4c-4030-8042-5b0e4005dbfe"
          },
          {
            "reference": "urn:uuid:64960263-c712-416e-9e16-65845374a7db"
          },
          {
            "reference": "urn:uuid:b3f77bc1-023a-4836-a494-7b5f523e1ae7"
          },
          {
            "reference": "urn:uuid:c35a3a19-34ff-44a2-850e-1309caa9859e"
          },
          {
            "reference": "urn:uuid:a4aa6c7d-0e33-47dc-8fdb-813ec40fe7d4"
          },
          {
            "reference": "urn:uuid:d5f1e3b3-999a-4bac-a97f-fcaadf170b57"
          },
          {
            "reference": "urn:uuid:39ac49b1-5fad-458e-946a-ba0e9f9e2983"
          },
          {
            "reference": "urn:uuid:b793f38e-a691-4f3e-9d27-0419d205b809"
          },
          {
            "reference": "urn:uuid:5460d127-160b-4193-91a6-a7ae43aba792"
          },
          {
            "reference": "urn:uuid:86800169-16b2-4891-bc38-aa2fa100c034"
          },
          {
            "reference": "urn:uuid:0530e12f-4054-4de5-9a07-095938838ac0"
          },
          {
            "reference": "urn:uuid:c363bb10-8d9c-48ad-9074-e47b45277ad4"
          }
        ],
        "status": "registered",
        "code": {
          "coding": [
            {
              "code": "11502-2",
              "system": "http://loinc.org",
              "display": "Laboratory report"
            }
          ]
        },
        "subject": {
          "reference": "urn:uuid:7e3cfe2b-480f-4805-8b29-ef9f324ff230",
          "display": "Molly Jenkins"
        }
      }
    },
    {
      "fullUrl": "urn:uuid:7e3cfe2b-480f-4805-8b29-ef9f324ff230",
      "resource": {
        "resourceType": "Patient",
        "id": "7e3cfe2b-480f-4805-8b29-ef9f324ff230",
        "meta": {
          "security": [
            {
              "system": "http://terminology.hl7.org/CodeSystem/v3-ActReason",
              "code": "HTEST"
            },
            {
              "system": "http://terminology.hl7.org/CodeSystem/v3-ActReason",
              "code": "TRAIN"
            }
          ],
          "tag": [
            {
              "system": "https://synderai.net/fhir/CodeSystem/tags",
              "code": "synthetic",
              "display": "SYNDERAI Synthetic data"
            }
          ],
          "profile": [
            "http://hl7.eu/fhir/base/StructureDefinition/patient-eu-core"
          ]
        },
        "identifier": [
          {
            "type": {
              "coding": [
                {
                  "code": "PT",
                  "system": "http://terminology.hl7.org/CodeSystem/v2-0203"
                }
              ]
            },
            "system": "http://ec.europa.eu/identifier/eci",
            "value": "7634-012682-0"
          },
          {
            "type": {
              "coding": [
                {
                  "code": "MR",
                  "system": "http://terminology.hl7.org/CodeSystem/v2-0203"
                }
              ]
            },
            "system": "http://local.setting.eu/identifier",
            "value": "9934a8eb-b6e1-34e1-edf5-57a0262d1bea"
          }
        ],
        "name": [
          {
            "family": "Jenkins"
          },
          {
            "given": [
              "Molly"
            ]
          },
          {
            "text": "Molly Jenkins"
          }
        ],
        "address": [
          {
            "line": [
              "98 Ali field"
            ],
            "use": "home",
            "type": "physical",
            "postalCode": "AB42",
            "city": "Port Jennamouth",
            "country": "United Kingdom"
          }
        ],
        "telecom": [
          {
            "system": "phone",
            "value": "(0118) 496 0334"
          }
        ],
        "extension": [
          {
            "url": "http://hl7.org/fhir/StructureDefinition/patient-nationality",
            "valueCodeableConcept": {
              "coding": [
                {
                  "code": "GB",
                  "system": "http://hl7.org/fhir/ValueSet/country"
                }
              ]
            }
          }
        ],
        "text": {
          "status": "generated",
          "div": "<div xmlns=\"http://www.w3.org/1999/xhtml\"><table class=\"hl7__ips\"><tr><td>Molly Jenkins</td><td>female</td><td>14-Aug-1967</td></tr></table></div>"
        },
        "gender": "female",
        "birthDate": "1967-08-14"
      }
    },
    {
      "fullUrl": "urn:uuid:6a6318e9-e77b-4d52-a67f-ce1f39f96705",
      "resource": {
        "resourceType": "ServiceRequest",
        "id": "6a6318e9-e77b-4d52-a67f-ce1f39f96705",
        "meta": {
          "profile": [
            "http://hl7.eu/fhir/laboratory/StructureDefinition/ServiceRequest-eu-lab"
          ]
        },
        "identifier": [
          {
            "system": "http://example.org",
            "value": "5410f275-0a14-44ca-8d0a-06c16d339a03"
          }
        ],
        "specimen": [
          {
            "reference": "urn:uuid:ac3a6540-b8c8-4a9f-ab1b-30b1f19f92e3"
          },
          {
            "reference": "urn:uuid:16e01c94-f2bb-482b-b5a6-b1136b2d9ed1"
          },
          {
            "reference": "urn:uuid:b9a28b0b-e4d8-4787-adce-47dc32e0a3a9"
          }
        ],
        "reasonCode": [
          {
            "coding": [
              {
                "code": "431856006",
                "system": "http://snomed.info/sct",
                "display": "Chronic kidney disease stage 2"
              }
            ]
          },
          {
            "coding": [
              {
                "code": "90781000119102",
                "system": "http://snomed.info/sct",
                "display": "Microalbuminuria due to type 2 diabetes mellitus"
              }
            ]
          },
          {
            "coding": [
              {
                "code": "127013003",
                "system": "http://snomed.info/sct",
                "display": "Disorder of kidney due to diabetes mellitus"
              }
            ]
          },
          {
            "coding": [
              {
                "code": "431855005",
                "system": "http://snomed.info/sct",
                "display": "Chronic kidney disease stage 1"
              }
            ]
          },
          {
            "coding": [
              {
                "code": "15777000",
                "system": "http://snomed.info/sct",
                "display": "Prediabetes"
              }
            ]
          },
          {
            "coding": [
              {
                "code": "59621000",
                "system": "http://snomed.info/sct",
                "display": "Essential hypertension"
              }
            ]
          },
          {
            "coding": [
              {
                "code": "53827007",
                "system": "http://snomed.info/sct",
                "display": "Excessive salivation"
              }
            ]
          },
          {
            "coding": [
              {
                "code": "64859006",
                "system": "http://snomed.info/sct",
                "display": "Osteoporosis"
              }
            ]
          },
          {
            "coding": [
              {
                "code": "128188000",
                "system": "http://snomed.info/sct",
                "display": "Cerebral palsy"
              }
            ]
          },
          {
            "coding": [
              {
                "code": "235595009",
                "system": "http://snomed.info/sct",
                "display": "Gastroesophageal reflux disease"
              }
            ]
          }
        ],
        "status": "active",
        "intent": "order",
        "code": {
          "coding": [
            {
              "code": "108252007",
              "system": "http://snomed.info/sct",
              "display": "Laboratory procedure"
            }
          ]
        },
        "subject": {
          "reference": "urn:uuid:7e3cfe2b-480f-4805-8b29-ef9f324ff230",
          "display": "Molly Jenkins"
        },
        "requester": {
          "reference": "urn:uuid:1bb63627-e06f-4514-8842-d17d9849e502"
        }
      }
    },
    {
      "fullUrl": "urn:uuid:1bb63627-e06f-4514-8842-d17d9849e502",
      "resource": {
        "resourceType": "PractitionerRole",
        "id": "1bb63627-e06f-4514-8842-d17d9849e502",
        "meta": {
          "profile": [
            "http://hl7.eu/fhir/base/StructureDefinition/practitionerRole-eu"
          ]
        },
        "text": {
          "status": "generated",
          "div": "<div xmlns=\"http://www.w3.org/1999/xhtml\">Provider Role Id: 1bb63627-e06f-4514-8842-d17d9849e502</div>"
        },
        "organization": {
          "reference": "urn:uuid:dd6ea2e9-ac30-4b27-b198-9e3871465135"
        }
      }
    },
    {
      "fullUrl": "urn:uuid:dd6ea2e9-ac30-4b27-b198-9e3871465135",
      "resource": {
        "resourceType": "Organization",
        "id": "dd6ea2e9-ac30-4b27-b198-9e3871465135",
        "meta": {
          "profile": [
            "http://hl7.eu/fhir/base/StructureDefinition/organization-eu"
          ]
        },
        "identifier": [
          {
            "assigner": {
              "display": "HL7 Europe"
            },
            "system": "urn:oid:2.16.840.1.113883.2.51.999",
            "value": "2fe7d774-5d81-45ae-a3f7-31feb37d2de5"
          }
        ],
        "address": [
          {
            "city": "Aberdeen",
            "postalCode": "AB11 6",
            "country": "United Kingdom"
          }
        ],
        "text": {
          "status": "generated",
          "div": "<div xmlns=\"http://www.w3.org/1999/xhtml\">Provider Organization: Aberdeen Community Health and Care Village</div>"
        },
        "name": "Aberdeen Community Health and Care Village"
      }
    },
    {
      "fullUrl": "urn:uuid:ac3a6540-b8c8-4a9f-ab1b-30b1f19f92e3",
      "resource": {
        "resourceType": "Specimen",
        "id": "ac3a6540-b8c8-4a9f-ab1b-30b1f19f92e3",
        "meta": {
          "profile": [
            "http://hl7.eu/fhir/laboratory/StructureDefinition/Specimen-eu-lab"
          ]
        },
        "collection": {
          "collectedDateTime": "2023-09-28"
        },
        "text": {
          "status": "generated",
          "div": "<div xmlns=\"http://www.w3.org/1999/xhtml\"><table class=\"hl7__eu__lab__report\"><tr><th>Specimen</th><th>Collection Date</th></tr><tr><td>Acellular blood (serum or plasma) specimen</td><td><span class=\"nb\">28-Sep-2023</span></td></tr></table></div>"
        },
        "type": {
          "coding": [
            {
              "code": "122592007",
              "system": "http://snomed.info/sct",
              "display": "Acellular blood (serum or plasma) specimen"
            }
          ]
        }
      }
    },
    {
      "fullUrl": "urn:uuid:16e01c94-f2bb-482b-b5a6-b1136b2d9ed1",
      "resource": {
        "resourceType": "Specimen",
        "id": "16e01c94-f2bb-482b-b5a6-b1136b2d9ed1",
        "meta": {
          "profile": [
            "http://hl7.eu/fhir/laboratory/StructureDefinition/Specimen-eu-lab"
          ]
        },
        "collection": {
          "collectedDateTime": "2023-09-28"
        },
        "text": {
          "status": "generated",
          "div": "<div xmlns=\"http://www.w3.org/1999/xhtml\"><table class=\"hl7__eu__lab__report\"><tr><th>Specimen</th><th>Collection Date</th></tr><tr><td>Urine specimen</td><td><span class=\"nb\">28-Sep-2023</span></td></tr></table></div>"
        },
        "type": {
          "coding": [
            {
              "code": "122575003",
              "system": "http://snomed.info/sct",
              "display": "Urine specimen"
            }
          ]
        }
      }
    },
    {
      "fullUrl": "urn:uuid:b9a28b0b-e4d8-4787-adce-47dc32e0a3a9",
      "resource": {
        "resourceType": "Specimen",
        "id": "b9a28b0b-e4d8-4787-adce-47dc32e0a3a9",
        "meta": {
          "profile": [
            "http://hl7.eu/fhir/laboratory/StructureDefinition/Specimen-eu-lab"
          ]
        },
        "collection": {
          "collectedDateTime": "2023-09-28"
        },
        "text": {
          "status": "generated",
          "div": "<div xmlns=\"http://www.w3.org/1999/xhtml\"><table class=\"hl7__eu__lab__report\"><tr><th>Specimen</th><th>Collection Date</th></tr><tr><td>Whole blood specimen (specimen)</td><td><span class=\"nb\">28-Sep-2023</span></td></tr></table></div>"
        },
        "type": {
          "coding": [
            {
              "code": "258580003",
              "system": "http://snomed.info/sct",
              "display": "Whole blood specimen (specimen)"
            }
          ]
        }
      }
    },
    {
      "fullUrl": "urn:uuid:f2acc95d-594d-4701-af0e-7ec13d714904",
      "resource": {
        "resourceType": "Observation",
        "id": "f2acc95d-594d-4701-af0e-7ec13d714904",
        "meta": {
          "profile": [
            "http://hl7.eu/fhir/laboratory/StructureDefinition/Observation-resultslab-eu-lab"
          ]
        },
        "performer": [
          {
            "display": "The Central European Lab"
          }
        ],
        "category": [
          {
            "coding": [
              {
                "system": "http://terminology.hl7.org/CodeSystem/observation-category",
                "code": "laboratory"
              }
            ]
          }
        ],
        "code": {
          "coding": [
            {
              "code": "2345-7",
              "system": "http://loinc.org",
              "display": "Glucose [Mass/volume] in Serum or Plasma"
            }
          ],
          "text": "Glucose [Mass/volume] in Serum or Plasma"
        },
        "valueQuantity": {
          "system": "http://unitsofmeasure.org",
          "value": 90.5,
          "unit": "mg/dL",
          "code": "mg/dL"
        },
        "referenceRange": [
          {
            "low": {
              "value": 70,
              "code": "mg/dL",
              "system": "http://unitsofmeasure.org"
            }
          },
          {
            "high": {
              "value": 139,
              "code": "mg/dL",
              "system": "http://unitsofmeasure.org"
            }
          }
        ],
        "text": {
          "status": "generated",
          "div": "<div xmlns=\"http://www.w3.org/1999/xhtml\"><table class=\"hl7__eu__lab__report\"><tr><th>Test</th><th>28-Sep-2023</th><th>Reference&#xA0;Range</th><th>Unit</th></tr><tr><td>Glucose [Mass/volume] in Serum or Plasma</td><td>90.5</td><td>70 - 139</td><td></td><td>mg/dL</td></tr></table></div>"
        },
        "status": "final",
        "subject": {
          "reference": "urn:uuid:7e3cfe2b-480f-4805-8b29-ef9f324ff230",
          "display": "Molly Jenkins"
        },
        "effectiveDateTime": "2023-09-28T14:42:11Z",
        "specimen": {
          "reference": "urn:uuid:ac3a6540-b8c8-4a9f-ab1b-30b1f19f92e3"
        }
      }
    },
    {
      "fullUrl": "urn:uuid:36b6cb3f-af06-42be-9f0f-4527ec940958",
      "resource": {
        "resourceType": "Observation",
        "id": "36b6cb3f-af06-42be-9f0f-4527ec940958",
        "meta": {
          "profile": [
            "http://hl7.eu/fhir/laboratory/StructureDefinition/Observation-resultslab-eu-lab"
          ]
        },
        "performer": [
          {
            "display": "The Central European Lab"
          }
        ],
        "category": [
          {
            "coding": [
              {
                "system": "http://terminology.hl7.org/CodeSystem/observation-category",
                "code": "laboratory"
              }
            ]
          }
        ],
        "code": {
          "coding": [
            {
              "code": "3094-0",
              "system": "http://loinc.org",
              "display": "Urea nitrogen [Mass/volume] in Serum or Plasma"
            }
          ],
          "text": "Urea nitrogen [Mass/volume] in Serum or Plasma"
        },
        "valueQuantity": {
          "system": "http://unitsofmeasure.org",
          "value": 16.4,
          "unit": "mg/dL",
          "code": "mg/dL"
        },
        "referenceRange": [
          {
            "low": {
              "value": 7,
              "code": "mg/dL",
              "system": "http://unitsofmeasure.org"
            }
          },
          {
            "high": {
              "value": 20,
              "code": "mg/dL",
              "system": "http://unitsofmeasure.org"
            }
          }
        ],
        "text": {
          "status": "generated",
          "div": "<div xmlns=\"http://www.w3.org/1999/xhtml\"><table class=\"hl7__eu__lab__report\"><tr><th>Test</th><th>28-Sep-2023</th><th>Reference&#xA0;Range</th><th>Unit</th></tr><tr><td>Urea nitrogen [Mass/volume] in Serum or Plasma</td><td>16.4</td><td>7 - 20</td><td></td><td>mg/dL</td></tr></table></div>"
        },
        "status": "final",
        "subject": {
          "reference": "urn:uuid:7e3cfe2b-480f-4805-8b29-ef9f324ff230",
          "display": "Molly Jenkins"
        },
        "effectiveDateTime": "2023-09-28T14:42:11Z",
        "specimen": {
          "reference": "urn:uuid:ac3a6540-b8c8-4a9f-ab1b-30b1f19f92e3"
        }
      }
    },
    {
      "fullUrl": "urn:uuid:3fe7dbc7-83ed-40bb-9879-339d3f7be23d",
      "resource": {
        "resourceType": "Observation",
        "id": "3fe7dbc7-83ed-40bb-9879-339d3f7be23d",
        "meta": {
          "profile": [
            "http://hl7.eu/fhir/laboratory/StructureDefinition/Observation-resultslab-eu-lab"
          ]
        },
        "performer": [
          {
            "display": "The Central European Lab"
          }
        ],
        "category": [
          {
            "coding": [
              {
                "system": "http://terminology.hl7.org/CodeSystem/observation-category",
                "code": "laboratory"
              }
            ]
          }
        ],
        "code": {
          "coding": [
            {
              "code": "2160-0",
              "system": "http://loinc.org",
              "display": "Creatinine [Mass/volume] in Serum or Plasma"
            }
          ],
          "text": "Creatinine [Mass/volume] in Serum or Plasma"
        },
        "valueQuantity": {
          "system": "http://unitsofmeasure.org",
          "value": 1.9,
          "unit": "mg/dL",
          "code": "mg/dL"
        },
        "referenceRange": [
          {
            "low": {
              "value": 0.6,
              "code": "mg/dL",
              "system": "http://unitsofmeasure.org"
            }
          },
          {
            "high": {
              "value": 1.1,
              "code": "mg/dL",
              "system": "http://unitsofmeasure.org"
            }
          }
        ],
        "interpretation": [
          {
            "coding": [
              {
                "code": "H",
                "system": "http://terminology.hl7.org/CodeSystem/v3-ObservationInterpretation",
                "display": "High"
              }
            ]
          }
        ],
        "text": {
          "status": "generated",
          "div": "<div xmlns=\"http://www.w3.org/1999/xhtml\"><table class=\"hl7__eu__lab__report\"><tr><th>Test</th><th>28-Sep-2023</th><th>Reference&#xA0;Range</th><th>Unit</th></tr><tr><td>Creatinine [Mass/volume] in Serum or Plasma</td><td>1.9</td><td>0.6 - 1.1</td><td>H</td><td>mg/dL</td></tr></table></div>"
        },
        "status": "final",
        "subject": {
          "reference": "urn:uuid:7e3cfe2b-480f-4805-8b29-ef9f324ff230",
          "display": "Molly Jenkins"
        },
        "effectiveDateTime": "2023-09-28T14:42:11Z",
        "specimen": {
          "reference": "urn:uuid:ac3a6540-b8c8-4a9f-ab1b-30b1f19f92e3"
        }
      }
    },
    {
      "fullUrl": "urn:uuid:98df79e6-e45f-4634-bada-a518ec6bbeac",
      "resource": {
        "resourceType": "Observation",
        "id": "98df79e6-e45f-4634-bada-a518ec6bbeac",
        "meta": {
          "profile": [
            "http://hl7.eu/fhir/laboratory/StructureDefinition/Observation-resultslab-eu-lab"
          ]
        },
        "performer": [
          {
            "display": "The Central European Lab"
          }
        ],
        "category": [
          {
            "coding": [
              {
                "system": "http://terminology.hl7.org/CodeSystem/observation-category",
                "code": "laboratory"
              }
            ]
          }
        ],
        "code": {
          "coding": [
            {
              "code": "17861-6",
              "system": "http://loinc.org",
              "display": "Calcium [Mass/volume] in Serum or Plasma"
            }
          ],
          "text": "Calcium [Mass/volume] in Serum or Plasma"
        },
        "valueQuantity": {
          "system": "http://unitsofmeasure.org",
          "value": 10.2,
          "unit": "mg/dL",
          "code": "mg/dL"
        },
        "referenceRange": [
          {
            "low": {
              "value": 8.5,
              "code": "mg/dL",
              "system": "http://unitsofmeasure.org"
            }
          },
          {
            "high": {
              "value": 10.4,
              "code": "mg/dL",
              "system": "http://unitsofmeasure.org"
            }
          }
        ],
        "text": {
          "status": "generated",
          "div": "<div xmlns=\"http://www.w3.org/1999/xhtml\"><table class=\"hl7__eu__lab__report\"><tr><th>Test</th><th>28-Sep-2023</th><th>Reference&#xA0;Range</th><th>Unit</th></tr><tr><td>Calcium [Mass/volume] in Serum or Plasma</td><td>10.2</td><td>8.5 - 10.4</td><td></td><td>mg/dL</td></tr></table></div>"
        },
        "status": "final",
        "subject": {
          "reference": "urn:uuid:7e3cfe2b-480f-4805-8b29-ef9f324ff230",
          "display": "Molly Jenkins"
        },
        "effectiveDateTime": "2023-09-28T14:42:11Z",
        "specimen": {
          "reference": "urn:uuid:ac3a6540-b8c8-4a9f-ab1b-30b1f19f92e3"
        }
      }
    },
    {
      "fullUrl": "urn:uuid:9c45c52d-d1d6-4bdd-bc8c-6adcec13c8d4",
      "resource": {
        "resourceType": "Observation",
        "id": "9c45c52d-d1d6-4bdd-bc8c-6adcec13c8d4",
        "meta": {
          "profile": [
            "http://hl7.eu/fhir/laboratory/StructureDefinition/Observation-resultslab-eu-lab"
          ]
        },
        "performer": [
          {
            "display": "The Central European Lab"
          }
        ],
        "category": [
          {
            "coding": [
              {
                "system": "http://terminology.hl7.org/CodeSystem/observation-category",
                "code": "laboratory"
              }
            ]
          }
        ],
        "code": {
          "coding": [
            {
              "code": "2951-2",
              "system": "http://loinc.org",
              "display": "Sodium [Moles/volume] in Serum or Plasma"
            }
          ],
          "text": "Sodium [Moles/volume] in Serum or Plasma"
        },
        "valueQuantity": {
          "system": "http://unitsofmeasure.org",
          "value": 139.4,
          "unit": "mmol/L",
          "code": "mmol/L"
        },
        "referenceRange": [
          {
            "low": {
              "value": 135,
              "code": "mmol/L",
              "system": "http://unitsofmeasure.org"
            }
          },
          {
            "high": {
              "value": 145,
              "code": "mmol/L",
              "system": "http://unitsofmeasure.org"
            }
          }
        ],
        "text": {
          "status": "generated",
          "div": "<div xmlns=\"http://www.w3.org/1999/xhtml\"><table class=\"hl7__eu__lab__report\"><tr><th>Test</th><th>28-Sep-2023</th><th>Reference&#xA0;Range</th><th>Unit</th></tr><tr><td>Sodium [Moles/volume] in Serum or Plasma</td><td>139.4</td><td>135 - 145</td><td></td><td>mmol/L</td></tr></table></div>"
        },
        "status": "final",
        "subject": {
          "reference": "urn:uuid:7e3cfe2b-480f-4805-8b29-ef9f324ff230",
          "display": "Molly Jenkins"
        },
        "effectiveDateTime": "2023-09-28T14:42:11Z",
        "specimen": {
          "reference": "urn:uuid:ac3a6540-b8c8-4a9f-ab1b-30b1f19f92e3"
        }
      }
    },
    {
      "fullUrl": "urn:uuid:f0c62f8c-1482-4b70-9083-8f594d181e19",
      "resource": {
        "resourceType": "Observation",
        "id": "f0c62f8c-1482-4b70-9083-8f594d181e19",
        "meta": {
          "profile": [
            "http://hl7.eu/fhir/laboratory/StructureDefinition/Observation-resultslab-eu-lab"
          ]
        },
        "performer": [
          {
            "display": "The Central European Lab"
          }
        ],
        "category": [
          {
            "coding": [
              {
                "system": "http://terminology.hl7.org/CodeSystem/observation-category",
                "code": "laboratory"
              }
            ]
          }
        ],
        "code": {
          "coding": [
            {
              "code": "2823-3",
              "system": "http://loinc.org",
              "display": "Potassium [Moles/volume] in Serum or Plasma"
            }
          ],
          "text": "Potassium [Moles/volume] in Serum or Plasma"
        },
        "valueQuantity": {
          "system": "http://unitsofmeasure.org",
          "value": 5.1,
          "unit": "mmol/L",
          "code": "mmol/L"
        },
        "referenceRange": [
          {
            "low": {
              "value": 3.5,
              "code": "mmol/L",
              "system": "http://unitsofmeasure.org"
            }
          },
          {
            "high": {
              "value": 5.1,
              "code": "mmol/L",
              "system": "http://unitsofmeasure.org"
            }
          }
        ],
        "text": {
          "status": "generated",
          "div": "<div xmlns=\"http://www.w3.org/1999/xhtml\"><table class=\"hl7__eu__lab__report\"><tr><th>Test</th><th>28-Sep-2023</th><th>Reference&#xA0;Range</th><th>Unit</th></tr><tr><td>Potassium [Moles/volume] in Serum or Plasma</td><td>5.1</td><td>3.5 - 5.1</td><td></td><td>mmol/L</td></tr></table></div>"
        },
        "status": "final",
        "subject": {
          "reference": "urn:uuid:7e3cfe2b-480f-4805-8b29-ef9f324ff230",
          "display": "Molly Jenkins"
        },
        "effectiveDateTime": "2023-09-28T14:42:11Z",
        "specimen": {
          "reference": "urn:uuid:ac3a6540-b8c8-4a9f-ab1b-30b1f19f92e3"
        }
      }
    },
    {
      "fullUrl": "urn:uuid:87fc2ba3-a116-4d42-9edc-dccfe2381c10",
      "resource": {
        "resourceType": "Observation",
        "id": "87fc2ba3-a116-4d42-9edc-dccfe2381c10",
        "meta": {
          "profile": [
            "http://hl7.eu/fhir/laboratory/StructureDefinition/Observation-resultslab-eu-lab"
          ]
        },
        "performer": [
          {
            "display": "The Central European Lab"
          }
        ],
        "category": [
          {
            "coding": [
              {
                "system": "http://terminology.hl7.org/CodeSystem/observation-category",
                "code": "laboratory"
              }
            ]
          }
        ],
        "code": {
          "coding": [
            {
              "code": "2075-0",
              "system": "http://loinc.org",
              "display": "Chloride [Moles/volume] in Serum or Plasma"
            }
          ],
          "text": "Chloride [Moles/volume] in Serum or Plasma"
        },
        "valueQuantity": {
          "system": "http://unitsofmeasure.org",
          "value": 108.4,
          "unit": "mmol/L",
          "code": "mmol/L"
        },
        "referenceRange": [
          {
            "low": {
              "value": 98,
              "code": "mmol/L",
              "system": "http://unitsofmeasure.org"
            }
          },
          {
            "high": {
              "value": 110,
              "code": "mmol/L",
              "system": "http://unitsofmeasure.org"
            }
          }
        ],
        "text": {
          "status": "generated",
          "div": "<div xmlns=\"http://www.w3.org/1999/xhtml\"><table class=\"hl7__eu__lab__report\"><tr><th>Test</th><th>28-Sep-2023</th><th>Reference&#xA0;Range</th><th>Unit</th></tr><tr><td>Chloride [Moles/volume] in Serum or Plasma</td><td>108.4</td><td>98 - 110</td><td></td><td>mmol/L</td></tr></table></div>"
        },
        "status": "final",
        "subject": {
          "reference": "urn:uuid:7e3cfe2b-480f-4805-8b29-ef9f324ff230",
          "display": "Molly Jenkins"
        },
        "effectiveDateTime": "2023-09-28T14:42:11Z",
        "specimen": {
          "reference": "urn:uuid:ac3a6540-b8c8-4a9f-ab1b-30b1f19f92e3"
        }
      }
    },
    {
      "fullUrl": "urn:uuid:903a864b-96e7-45a5-a506-eb2be52d5c57",
      "resource": {
        "resourceType": "Observation",
        "id": "903a864b-96e7-45a5-a506-eb2be52d5c57",
        "meta": {
          "profile": [
            "http://hl7.eu/fhir/laboratory/StructureDefinition/Observation-resultslab-eu-lab"
          ]
        },
        "performer": [
          {
            "display": "The Central European Lab"
          }
        ],
        "category": [
          {
            "coding": [
              {
                "system": "http://terminology.hl7.org/CodeSystem/observation-category",
                "code": "laboratory"
              }
            ]
          }
        ],
        "code": {
          "coding": [
            {
              "code": "2028-9",
              "system": "http://loinc.org",
              "display": "Carbon dioxide, total [Moles/volume] in Serum or Plasma"
            }
          ],
          "text": "Carbon dioxide, total [Moles/volume] in Serum or Plasma"
        },
        "valueQuantity": {
          "system": "http://unitsofmeasure.org",
          "value": 21.8,
          "unit": "mmol/L",
          "code": "mmol/L"
        },
        "referenceRange": [
          {
            "low": {
              "value": 22,
              "code": "mmol/L",
              "system": "http://unitsofmeasure.org"
            }
          },
          {
            "high": {
              "value": 32,
              "code": "mmol/L",
              "system": "http://unitsofmeasure.org"
            }
          }
        ],
        "interpretation": [
          {
            "coding": [
              {
                "code": "L",
                "system": "http://terminology.hl7.org/CodeSystem/v3-ObservationInterpretation",
                "display": "Low"
              }
            ]
          }
        ],
        "text": {
          "status": "generated",
          "div": "<div xmlns=\"http://www.w3.org/1999/xhtml\"><table class=\"hl7__eu__lab__report\"><tr><th>Test</th><th>28-Sep-2023</th><th>Reference&#xA0;Range</th><th>Unit</th></tr><tr><td>Carbon dioxide, total [Moles/volume] in Serum or Plasma</td><td>21.8</td><td>22 - 32</td><td>L</td><td>mmol/L</td></tr></table></div>"
        },
        "status": "final",
        "subject": {
          "reference": "urn:uuid:7e3cfe2b-480f-4805-8b29-ef9f324ff230",
          "display": "Molly Jenkins"
        },
        "effectiveDateTime": "2023-09-28T14:42:11Z",
        "specimen": {
          "reference": "urn:uuid:ac3a6540-b8c8-4a9f-ab1b-30b1f19f92e3"
        }
      }
    },
    {
      "fullUrl": "urn:uuid:b4f08d44-ae89-4abc-a57f-8a1af76b690f",
      "resource": {
        "resourceType": "Observation",
        "id": "b4f08d44-ae89-4abc-a57f-8a1af76b690f",
        "meta": {
          "profile": [
            "http://hl7.eu/fhir/laboratory/StructureDefinition/Observation-resultslab-eu-lab"
          ]
        },
        "performer": [
          {
            "display": "The Central European Lab"
          }
        ],
        "category": [
          {
            "coding": [
              {
                "system": "http://terminology.hl7.org/CodeSystem/observation-category",
                "code": "laboratory"
              }
            ]
          }
        ],
        "code": {
          "coding": [
            {
              "code": "5767-9",
              "system": "http://loinc.org",
              "display": "Appearance of Urine"
            }
          ],
          "text": "Appearance of Urine"
        },
        "text": {
          "status": "generated",
          "div": "<div xmlns=\"http://www.w3.org/1999/xhtml\"><table class=\"hl7__eu__lab__report\"><tr><th>Test</th><th>28-Sep-2023</th><th>Reference&#xA0;Range</th><th>Unit</th></tr><tr><td>Appearance of Urine</td></tr></table></div>"
        },
        "status": "final",
        "subject": {
          "reference": "urn:uuid:7e3cfe2b-480f-4805-8b29-ef9f324ff230",
          "display": "Molly Jenkins"
        },
        "effectiveDateTime": "2023-09-28T14:42:11Z",
        "specimen": {
          "reference": "urn:uuid:16e01c94-f2bb-482b-b5a6-b1136b2d9ed1"
        }
      }
    },
    {
      "fullUrl": "urn:uuid:0c2aa290-1910-4c9e-b239-a1c254180c92",
      "resource": {
        "resourceType": "Observation",
        "id": "0c2aa290-1910-4c9e-b239-a1c254180c92",
        "meta": {
          "profile": [
            "http://hl7.eu/fhir/laboratory/StructureDefinition/Observation-resultslab-eu-lab"
          ]
        },
        "performer": [
          {
            "display": "The Central European Lab"
          }
        ],
        "category": [
          {
            "coding": [
              {
                "system": "http://terminology.hl7.org/CodeSystem/observation-category",
                "code": "laboratory"
              }
            ]
          }
        ],
        "code": {
          "coding": [
            {
              "code": "34533-0",
              "system": "http://loinc.org",
              "display": "Odor of Urine"
            }
          ],
          "text": "Odor of Urine"
        },
        "text": {
          "status": "generated",
          "div": "<div xmlns=\"http://www.w3.org/1999/xhtml\"><table class=\"hl7__eu__lab__report\"><tr><th>Test</th><th>28-Sep-2023</th><th>Reference&#xA0;Range</th><th>Unit</th></tr><tr><td>Odor of Urine</td></tr></table></div>"
        },
        "status": "final",
        "subject": {
          "reference": "urn:uuid:7e3cfe2b-480f-4805-8b29-ef9f324ff230",
          "display": "Molly Jenkins"
        },
        "effectiveDateTime": "2023-09-28T14:42:11Z",
        "specimen": {
          "reference": "urn:uuid:16e01c94-f2bb-482b-b5a6-b1136b2d9ed1"
        }
      }
    },
    {
      "fullUrl": "urn:uuid:bcebb04d-5af7-4954-9e7a-f8a937ff1640",
      "resource": {
        "resourceType": "Observation",
        "id": "bcebb04d-5af7-4954-9e7a-f8a937ff1640",
        "meta": {
          "profile": [
            "http://hl7.eu/fhir/laboratory/StructureDefinition/Observation-resultslab-eu-lab"
          ]
        },
        "performer": [
          {
            "display": "The Central European Lab"
          }
        ],
        "category": [
          {
            "coding": [
              {
                "system": "http://terminology.hl7.org/CodeSystem/observation-category",
                "code": "laboratory"
              }
            ]
          }
        ],
        "code": {
          "coding": [
            {
              "code": "32167-9",
              "system": "http://loinc.org",
              "display": "Clarity of Urine"
            }
          ],
          "text": "Clarity of Urine"
        },
        "text": {
          "status": "generated",
          "div": "<div xmlns=\"http://www.w3.org/1999/xhtml\"><table class=\"hl7__eu__lab__report\"><tr><th>Test</th><th>28-Sep-2023</th><th>Reference&#xA0;Range</th><th>Unit</th></tr><tr><td>Clarity of Urine</td></tr></table></div>"
        },
        "status": "final",
        "subject": {
          "reference": "urn:uuid:7e3cfe2b-480f-4805-8b29-ef9f324ff230",
          "display": "Molly Jenkins"
        },
        "effectiveDateTime": "2023-09-28T14:42:11Z",
        "specimen": {
          "reference": "urn:uuid:16e01c94-f2bb-482b-b5a6-b1136b2d9ed1"
        }
      }
    },
    {
      "fullUrl": "urn:uuid:d9aec13a-ed0b-415c-8d30-f2d3f8c66f27",
      "resource": {
        "resourceType": "Observation",
        "id": "d9aec13a-ed0b-415c-8d30-f2d3f8c66f27",
        "meta": {
          "profile": [
            "http://hl7.eu/fhir/laboratory/StructureDefinition/Observation-resultslab-eu-lab"
          ]
        },
        "performer": [
          {
            "display": "The Central European Lab"
          }
        ],
        "category": [
          {
            "coding": [
              {
                "system": "http://terminology.hl7.org/CodeSystem/observation-category",
                "code": "laboratory"
              }
            ]
          }
        ],
        "code": {
          "coding": [
            {
              "code": "5778-6",
              "system": "http://loinc.org",
              "display": "Color of Urine"
            }
          ],
          "text": "Color of Urine"
        },
        "text": {
          "status": "generated",
          "div": "<div xmlns=\"http://www.w3.org/1999/xhtml\"><table class=\"hl7__eu__lab__report\"><tr><th>Test</th><th>28-Sep-2023</th><th>Reference&#xA0;Range</th><th>Unit</th></tr><tr><td>Color of Urine</td></tr></table></div>"
        },
        "status": "final",
        "subject": {
          "reference": "urn:uuid:7e3cfe2b-480f-4805-8b29-ef9f324ff230",
          "display": "Molly Jenkins"
        },
        "effectiveDateTime": "2023-09-28T14:42:11Z",
        "specimen": {
          "reference": "urn:uuid:16e01c94-f2bb-482b-b5a6-b1136b2d9ed1"
        }
      }
    },
    {
      "fullUrl": "urn:uuid:cb744d08-19af-49c8-801d-797a70c585e0",
      "resource": {
        "resourceType": "Observation",
        "id": "cb744d08-19af-49c8-801d-797a70c585e0",
        "meta": {
          "profile": [
            "http://hl7.eu/fhir/laboratory/StructureDefinition/Observation-resultslab-eu-lab"
          ]
        },
        "performer": [
          {
            "display": "The Central European Lab"
          }
        ],
        "category": [
          {
            "coding": [
              {
                "system": "http://terminology.hl7.org/CodeSystem/observation-category",
                "code": "laboratory"
              }
            ]
          }
        ],
        "code": {
          "coding": [
            {
              "code": "5792-7",
              "system": "http://loinc.org",
              "display": "Glucose [Mass/volume] in Urine by Test strip"
            }
          ],
          "text": "Glucose [Mass/volume] in Urine by Test strip"
        },
        "valueQuantity": {
          "system": "http://unitsofmeasure.org",
          "value": 1.8,
          "unit": "mg/dL",
          "code": "mg/dL"
        },
        "referenceRange": [
          {
            "low": {
              "value": 0,
              "code": "mg/dL",
              "system": "http://unitsofmeasure.org"
            }
          },
          {
            "high": {
              "value": 0,
              "code": "mg/dL",
              "system": "http://unitsofmeasure.org"
            }
          }
        ],
        "interpretation": [
          {
            "coding": [
              {
                "code": "H",
                "system": "http://terminology.hl7.org/CodeSystem/v3-ObservationInterpretation",
                "display": "High"
              }
            ]
          }
        ],
        "text": {
          "status": "generated",
          "div": "<div xmlns=\"http://www.w3.org/1999/xhtml\"><table class=\"hl7__eu__lab__report\"><tr><th>Test</th><th>28-Sep-2023</th><th>Reference&#xA0;Range</th><th>Unit</th></tr><tr><td>Glucose [Mass/volume] in Urine by Test strip</td><td>1.8</td><td>0 - 0</td><td>H</td><td>mg/dL</td></tr></table></div>"
        },
        "status": "final",
        "subject": {
          "reference": "urn:uuid:7e3cfe2b-480f-4805-8b29-ef9f324ff230",
          "display": "Molly Jenkins"
        },
        "effectiveDateTime": "2023-09-28T14:42:11Z",
        "specimen": {
          "reference": "urn:uuid:16e01c94-f2bb-482b-b5a6-b1136b2d9ed1"
        }
      }
    },
    {
      "fullUrl": "urn:uuid:0d238be0-7b4c-4292-adc5-e363ac17ff6c",
      "resource": {
        "resourceType": "Observation",
        "id": "0d238be0-7b4c-4292-adc5-e363ac17ff6c",
        "meta": {
          "profile": [
            "http://hl7.eu/fhir/laboratory/StructureDefinition/Observation-resultslab-eu-lab"
          ]
        },
        "performer": [
          {
            "display": "The Central European Lab"
          }
        ],
        "category": [
          {
            "coding": [
              {
                "system": "http://terminology.hl7.org/CodeSystem/observation-category",
                "code": "laboratory"
              }
            ]
          }
        ],
        "code": {
          "coding": [
            {
              "code": "25428-4",
              "system": "http://loinc.org",
              "display": "Glucose [Presence] in Urine by Test strip"
            }
          ],
          "text": "Glucose [Presence] in Urine by Test strip"
        },
        "text": {
          "status": "generated",
          "div": "<div xmlns=\"http://www.w3.org/1999/xhtml\"><table class=\"hl7__eu__lab__report\"><tr><th>Test</th><th>28-Sep-2023</th><th>Reference&#xA0;Range</th><th>Unit</th></tr><tr><td>Glucose [Presence] in Urine by Test strip</td></tr></table></div>"
        },
        "status": "final",
        "subject": {
          "reference": "urn:uuid:7e3cfe2b-480f-4805-8b29-ef9f324ff230",
          "display": "Molly Jenkins"
        },
        "effectiveDateTime": "2023-09-28T14:42:11Z",
        "specimen": {
          "reference": "urn:uuid:16e01c94-f2bb-482b-b5a6-b1136b2d9ed1"
        }
      }
    },
    {
      "fullUrl": "urn:uuid:aaa2db70-3332-4072-98a4-6077277429d2",
      "resource": {
        "resourceType": "Observation",
        "id": "aaa2db70-3332-4072-98a4-6077277429d2",
        "meta": {
          "profile": [
            "http://hl7.eu/fhir/laboratory/StructureDefinition/Observation-resultslab-eu-lab"
          ]
        },
        "performer": [
          {
            "display": "The Central European Lab"
          }
        ],
        "category": [
          {
            "coding": [
              {
                "system": "http://terminology.hl7.org/CodeSystem/observation-category",
                "code": "laboratory"
              }
            ]
          }
        ],
        "code": {
          "coding": [
            {
              "code": "20505-4",
              "system": "http://loinc.org",
              "display": "Bilirubin.total [Mass/volume] in Urine by Test strip"
            }
          ],
          "text": "Bilirubin.total [Mass/volume] in Urine by Test strip"
        },
        "valueQuantity": {
          "system": "http://unitsofmeasure.org",
          "value": 1,
          "unit": "mg/dL",
          "code": "mg/dL"
        },
        "referenceRange": [
          {
            "low": {
              "value": 0,
              "code": "mg/dL",
              "system": "http://unitsofmeasure.org"
            }
          },
          {
            "high": {
              "value": 1.6,
              "code": "mg/dL",
              "system": "http://unitsofmeasure.org"
            }
          }
        ],
        "text": {
          "status": "generated",
          "div": "<div xmlns=\"http://www.w3.org/1999/xhtml\"><table class=\"hl7__eu__lab__report\"><tr><th>Test</th><th>28-Sep-2023</th><th>Reference&#xA0;Range</th><th>Unit</th></tr><tr><td>Bilirubin.total [Mass/volume] in Urine by Test strip</td><td>1.0</td><td>0 - 1.6</td><td></td><td>mg/dL</td></tr></table></div>"
        },
        "status": "final",
        "subject": {
          "reference": "urn:uuid:7e3cfe2b-480f-4805-8b29-ef9f324ff230",
          "display": "Molly Jenkins"
        },
        "effectiveDateTime": "2023-09-28T14:42:11Z",
        "specimen": {
          "reference": "urn:uuid:16e01c94-f2bb-482b-b5a6-b1136b2d9ed1"
        }
      }
    },
    {
      "fullUrl": "urn:uuid:d8d1e672-6fdc-4e64-b68c-f8d7b3d30c1a",
      "resource": {
        "resourceType": "Observation",
        "id": "d8d1e672-6fdc-4e64-b68c-f8d7b3d30c1a",
        "meta": {
          "profile": [
            "http://hl7.eu/fhir/laboratory/StructureDefinition/Observation-resultslab-eu-lab"
          ]
        },
        "performer": [
          {
            "display": "The Central European Lab"
          }
        ],
        "category": [
          {
            "coding": [
              {
                "system": "http://terminology.hl7.org/CodeSystem/observation-category",
                "code": "laboratory"
              }
            ]
          }
        ],
        "code": {
          "coding": [
            {
              "code": "5770-3",
              "system": "http://loinc.org",
              "display": "Bilirubin.total [Presence] in Urine by Test strip"
            }
          ],
          "text": "Bilirubin.total [Presence] in Urine by Test strip"
        },
        "text": {
          "status": "generated",
          "div": "<div xmlns=\"http://www.w3.org/1999/xhtml\"><table class=\"hl7__eu__lab__report\"><tr><th>Test</th><th>28-Sep-2023</th><th>Reference&#xA0;Range</th><th>Unit</th></tr><tr><td>Bilirubin.total [Presence] in Urine by Test strip</td></tr></table></div>"
        },
        "status": "final",
        "subject": {
          "reference": "urn:uuid:7e3cfe2b-480f-4805-8b29-ef9f324ff230",
          "display": "Molly Jenkins"
        },
        "effectiveDateTime": "2023-09-28T14:42:11Z",
        "specimen": {
          "reference": "urn:uuid:16e01c94-f2bb-482b-b5a6-b1136b2d9ed1"
        }
      }
    },
    {
      "fullUrl": "urn:uuid:afcfe495-30a3-4b61-88a8-fd0ccdafe971",
      "resource": {
        "resourceType": "Observation",
        "id": "afcfe495-30a3-4b61-88a8-fd0ccdafe971",
        "meta": {
          "profile": [
            "http://hl7.eu/fhir/laboratory/StructureDefinition/Observation-resultslab-eu-lab"
          ]
        },
        "performer": [
          {
            "display": "The Central European Lab"
          }
        ],
        "category": [
          {
            "coding": [
              {
                "system": "http://terminology.hl7.org/CodeSystem/observation-category",
                "code": "laboratory"
              }
            ]
          }
        ],
        "code": {
          "coding": [
            {
              "code": "5797-6",
              "system": "http://loinc.org",
              "display": "Ketones [Mass/volume] in Urine by Test strip"
            }
          ],
          "text": "Ketones [Mass/volume] in Urine by Test strip"
        },
        "valueQuantity": {
          "system": "http://unitsofmeasure.org",
          "value": 4.2,
          "unit": "mg/dL",
          "code": "mg/dL"
        },
        "referenceRange": [
          {
            "low": {
              "value": 0,
              "code": "mg/dL",
              "system": "http://unitsofmeasure.org"
            }
          },
          {
            "high": {
              "value": 0.5,
              "code": "mg/dL",
              "system": "http://unitsofmeasure.org"
            }
          }
        ],
        "interpretation": [
          {
            "coding": [
              {
                "code": "H",
                "system": "http://terminology.hl7.org/CodeSystem/v3-ObservationInterpretation",
                "display": "High"
              }
            ]
          }
        ],
        "text": {
          "status": "generated",
          "div": "<div xmlns=\"http://www.w3.org/1999/xhtml\"><table class=\"hl7__eu__lab__report\"><tr><th>Test</th><th>28-Sep-2023</th><th>Reference&#xA0;Range</th><th>Unit</th></tr><tr><td>Ketones [Mass/volume] in Urine by Test strip</td><td>4.2</td><td>0 - 0.5</td><td>H</td><td>mg/dL</td></tr></table></div>"
        },
        "status": "final",
        "subject": {
          "reference": "urn:uuid:7e3cfe2b-480f-4805-8b29-ef9f324ff230",
          "display": "Molly Jenkins"
        },
        "effectiveDateTime": "2023-09-28T14:42:11Z",
        "specimen": {
          "reference": "urn:uuid:16e01c94-f2bb-482b-b5a6-b1136b2d9ed1"
        }
      }
    },
    {
      "fullUrl": "urn:uuid:ee645f8f-2c30-4227-bf47-3a76226fc2f1",
      "resource": {
        "resourceType": "Observation",
        "id": "ee645f8f-2c30-4227-bf47-3a76226fc2f1",
        "meta": {
          "profile": [
            "http://hl7.eu/fhir/laboratory/StructureDefinition/Observation-resultslab-eu-lab"
          ]
        },
        "performer": [
          {
            "display": "The Central European Lab"
          }
        ],
        "category": [
          {
            "coding": [
              {
                "system": "http://terminology.hl7.org/CodeSystem/observation-category",
                "code": "laboratory"
              }
            ]
          }
        ],
        "code": {
          "coding": [
            {
              "code": "2514-8",
              "system": "http://loinc.org",
              "display": "Ketones [Presence] in Urine by Test strip"
            }
          ],
          "text": "Ketones [Presence] in Urine by Test strip"
        },
        "text": {
          "status": "generated",
          "div": "<div xmlns=\"http://www.w3.org/1999/xhtml\"><table class=\"hl7__eu__lab__report\"><tr><th>Test</th><th>28-Sep-2023</th><th>Reference&#xA0;Range</th><th>Unit</th></tr><tr><td>Ketones [Presence] in Urine by Test strip</td></tr></table></div>"
        },
        "status": "final",
        "subject": {
          "reference": "urn:uuid:7e3cfe2b-480f-4805-8b29-ef9f324ff230",
          "display": "Molly Jenkins"
        },
        "effectiveDateTime": "2023-09-28T14:42:11Z",
        "specimen": {
          "reference": "urn:uuid:16e01c94-f2bb-482b-b5a6-b1136b2d9ed1"
        }
      }
    },
    {
      "fullUrl": "urn:uuid:b87b5f9b-a747-4af6-a352-020355401f28",
      "resource": {
        "resourceType": "Observation",
        "id": "b87b5f9b-a747-4af6-a352-020355401f28",
        "meta": {
          "profile": [
            "http://hl7.eu/fhir/laboratory/StructureDefinition/Observation-resultslab-eu-lab"
          ]
        },
        "performer": [
          {
            "display": "The Central European Lab"
          }
        ],
        "category": [
          {
            "coding": [
              {
                "system": "http://terminology.hl7.org/CodeSystem/observation-category",
                "code": "laboratory"
              }
            ]
          }
        ],
        "code": {
          "coding": [
            {
              "code": "5811-5",
              "system": "http://loinc.org",
              "display": "Specific gravity of Urine by Test strip"
            }
          ],
          "text": "Specific gravity of Urine by Test strip"
        },
        "valueQuantity": {
          "system": "http://unitsofmeasure.org",
          "value": 1,
          "unit": "{nominal}",
          "code": "{nominal}"
        },
        "referenceRange": [
          {
            "low": {
              "value": 1.005,
              "code": "g/mL",
              "system": "http://unitsofmeasure.org"
            }
          },
          {
            "high": {
              "value": 1.03,
              "code": "g/mL",
              "system": "http://unitsofmeasure.org"
            }
          }
        ],
        "interpretation": [
          {
            "coding": [
              {
                "code": "L",
                "system": "http://terminology.hl7.org/CodeSystem/v3-ObservationInterpretation",
                "display": "Low"
              }
            ]
          }
        ],
        "text": {
          "status": "generated",
          "div": "<div xmlns=\"http://www.w3.org/1999/xhtml\"><table class=\"hl7__eu__lab__report\"><tr><th>Test</th><th>28-Sep-2023</th><th>Reference&#xA0;Range</th><th>Unit</th></tr><tr><td>Specific gravity of Urine by Test strip</td><td>1.0</td><td>1.005 - 1.03</td><td>L</td><td>{nominal}</td></tr></table></div>"
        },
        "status": "final",
        "subject": {
          "reference": "urn:uuid:7e3cfe2b-480f-4805-8b29-ef9f324ff230",
          "display": "Molly Jenkins"
        },
        "effectiveDateTime": "2023-09-28T14:42:11Z",
        "specimen": {
          "reference": "urn:uuid:16e01c94-f2bb-482b-b5a6-b1136b2d9ed1"
        }
      }
    },
    {
      "fullUrl": "urn:uuid:f530d7d1-a04f-4afe-b041-fd16465a8da7",
      "resource": {
        "resourceType": "Observation",
        "id": "f530d7d1-a04f-4afe-b041-fd16465a8da7",
        "meta": {
          "profile": [
            "http://hl7.eu/fhir/laboratory/StructureDefinition/Observation-resultslab-eu-lab"
          ]
        },
        "performer": [
          {
            "display": "The Central European Lab"
          }
        ],
        "category": [
          {
            "coding": [
              {
                "system": "http://terminology.hl7.org/CodeSystem/observation-category",
                "code": "laboratory"
              }
            ]
          }
        ],
        "code": {
          "coding": [
            {
              "code": "5803-2",
              "system": "http://loinc.org",
              "display": "pH of Urine by Test strip"
            }
          ],
          "text": "pH of Urine by Test strip"
        },
        "valueQuantity": {
          "system": "http://unitsofmeasure.org",
          "value": 5.6,
          "unit": "pH",
          "code": "pH"
        },
        "referenceRange": [
          {
            "low": {
              "value": 4.5,
              "code": "pH",
              "system": "http://unitsofmeasure.org"
            }
          },
          {
            "high": {
              "value": 7.5,
              "code": "pH",
              "system": "http://unitsofmeasure.org"
            }
          }
        ],
        "text": {
          "status": "generated",
          "div": "<div xmlns=\"http://www.w3.org/1999/xhtml\"><table class=\"hl7__eu__lab__report\"><tr><th>Test</th><th>28-Sep-2023</th><th>Reference&#xA0;Range</th><th>Unit</th></tr><tr><td>pH of Urine by Test strip</td><td>5.6</td><td>4.5 - 7.5</td><td></td><td>pH</td></tr></table></div>"
        },
        "status": "final",
        "subject": {
          "reference": "urn:uuid:7e3cfe2b-480f-4805-8b29-ef9f324ff230",
          "display": "Molly Jenkins"
        },
        "effectiveDateTime": "2023-09-28T14:42:11Z",
        "specimen": {
          "reference": "urn:uuid:16e01c94-f2bb-482b-b5a6-b1136b2d9ed1"
        }
      }
    },
    {
      "fullUrl": "urn:uuid:d3227c1d-225f-4ca2-b94b-4317ab6cb151",
      "resource": {
        "resourceType": "Observation",
        "id": "d3227c1d-225f-4ca2-b94b-4317ab6cb151",
        "meta": {
          "profile": [
            "http://hl7.eu/fhir/laboratory/StructureDefinition/Observation-resultslab-eu-lab"
          ]
        },
        "performer": [
          {
            "display": "The Central European Lab"
          }
        ],
        "category": [
          {
            "coding": [
              {
                "system": "http://terminology.hl7.org/CodeSystem/observation-category",
                "code": "laboratory"
              }
            ]
          }
        ],
        "code": {
          "coding": [
            {
              "code": "5804-0",
              "system": "http://loinc.org",
              "display": "Protein [Mass/volume] in Urine by Test strip"
            }
          ],
          "text": "Protein [Mass/volume] in Urine by Test strip"
        },
        "valueQuantity": {
          "system": "http://unitsofmeasure.org",
          "value": 300.4,
          "unit": "mg/dL",
          "code": "mg/dL"
        },
        "referenceRange": [
          {
            "low": {
              "value": 0,
              "code": "mg/dL",
              "system": "http://unitsofmeasure.org"
            }
          },
          {
            "high": {
              "value": 15,
              "code": "mg/dL",
              "system": "http://unitsofmeasure.org"
            }
          }
        ],
        "interpretation": [
          {
            "coding": [
              {
                "code": "H",
                "system": "http://terminology.hl7.org/CodeSystem/v3-ObservationInterpretation",
                "display": "High"
              }
            ]
          }
        ],
        "text": {
          "status": "generated",
          "div": "<div xmlns=\"http://www.w3.org/1999/xhtml\"><table class=\"hl7__eu__lab__report\"><tr><th>Test</th><th>28-Sep-2023</th><th>Reference&#xA0;Range</th><th>Unit</th></tr><tr><td>Protein [Mass/volume] in Urine by Test strip</td><td>300.4</td><td>0 - 15</td><td>H</td><td>mg/dL</td></tr></table></div>"
        },
        "status": "final",
        "subject": {
          "reference": "urn:uuid:7e3cfe2b-480f-4805-8b29-ef9f324ff230",
          "display": "Molly Jenkins"
        },
        "effectiveDateTime": "2023-09-28T14:42:11Z",
        "specimen": {
          "reference": "urn:uuid:16e01c94-f2bb-482b-b5a6-b1136b2d9ed1"
        }
      }
    },
    {
      "fullUrl": "urn:uuid:85d9cf07-68f9-42d4-8baf-65e13c25d87d",
      "resource": {
        "resourceType": "Observation",
        "id": "85d9cf07-68f9-42d4-8baf-65e13c25d87d",
        "meta": {
          "profile": [
            "http://hl7.eu/fhir/laboratory/StructureDefinition/Observation-resultslab-eu-lab"
          ]
        },
        "performer": [
          {
            "display": "The Central European Lab"
          }
        ],
        "category": [
          {
            "coding": [
              {
                "system": "http://terminology.hl7.org/CodeSystem/observation-category",
                "code": "laboratory"
              }
            ]
          }
        ],
        "code": {
          "coding": [
            {
              "code": "20454-5",
              "system": "http://loinc.org",
              "display": "Protein [Presence] in Urine by Test strip"
            }
          ],
          "text": "Protein [Presence] in Urine by Test strip"
        },
        "text": {
          "status": "generated",
          "div": "<div xmlns=\"http://www.w3.org/1999/xhtml\"><table class=\"hl7__eu__lab__report\"><tr><th>Test</th><th>28-Sep-2023</th><th>Reference&#xA0;Range</th><th>Unit</th></tr><tr><td>Protein [Presence] in Urine by Test strip</td></tr></table></div>"
        },
        "status": "final",
        "subject": {
          "reference": "urn:uuid:7e3cfe2b-480f-4805-8b29-ef9f324ff230",
          "display": "Molly Jenkins"
        },
        "effectiveDateTime": "2023-09-28T14:42:11Z",
        "specimen": {
          "reference": "urn:uuid:16e01c94-f2bb-482b-b5a6-b1136b2d9ed1"
        }
      }
    },
    {
      "fullUrl": "urn:uuid:7300dd00-5f4c-4030-8042-5b0e4005dbfe",
      "resource": {
        "resourceType": "Observation",
        "id": "7300dd00-5f4c-4030-8042-5b0e4005dbfe",
        "meta": {
          "profile": [
            "http://hl7.eu/fhir/laboratory/StructureDefinition/Observation-resultslab-eu-lab"
          ]
        },
        "performer": [
          {
            "display": "The Central European Lab"
          }
        ],
        "category": [
          {
            "coding": [
              {
                "system": "http://terminology.hl7.org/CodeSystem/observation-category",
                "code": "laboratory"
              }
            ]
          }
        ],
        "code": {
          "coding": [
            {
              "code": "5802-4",
              "system": "http://loinc.org",
              "display": "Nitrite [Presence] in Urine by Test strip"
            }
          ],
          "text": "Nitrite [Presence] in Urine by Test strip"
        },
        "text": {
          "status": "generated",
          "div": "<div xmlns=\"http://www.w3.org/1999/xhtml\"><table class=\"hl7__eu__lab__report\"><tr><th>Test</th><th>28-Sep-2023</th><th>Reference&#xA0;Range</th><th>Unit</th></tr><tr><td>Nitrite [Presence] in Urine by Test strip</td></tr></table></div>"
        },
        "status": "final",
        "subject": {
          "reference": "urn:uuid:7e3cfe2b-480f-4805-8b29-ef9f324ff230",
          "display": "Molly Jenkins"
        },
        "effectiveDateTime": "2023-09-28T14:42:11Z",
        "specimen": {
          "reference": "urn:uuid:16e01c94-f2bb-482b-b5a6-b1136b2d9ed1"
        }
      }
    },
    {
      "fullUrl": "urn:uuid:64960263-c712-416e-9e16-65845374a7db",
      "resource": {
        "resourceType": "Observation",
        "id": "64960263-c712-416e-9e16-65845374a7db",
        "meta": {
          "profile": [
            "http://hl7.eu/fhir/laboratory/StructureDefinition/Observation-resultslab-eu-lab"
          ]
        },
        "performer": [
          {
            "display": "The Central European Lab"
          }
        ],
        "category": [
          {
            "coding": [
              {
                "system": "http://terminology.hl7.org/CodeSystem/observation-category",
                "code": "laboratory"
              }
            ]
          }
        ],
        "code": {
          "coding": [
            {
              "code": "5794-3",
              "system": "http://loinc.org",
              "display": "Hemoglobin [Presence] in Urine by Test strip"
            }
          ],
          "text": "Hemoglobin [Presence] in Urine by Test strip"
        },
        "text": {
          "status": "generated",
          "div": "<div xmlns=\"http://www.w3.org/1999/xhtml\"><table class=\"hl7__eu__lab__report\"><tr><th>Test</th><th>28-Sep-2023</th><th>Reference&#xA0;Range</th><th>Unit</th></tr><tr><td>Hemoglobin [Presence] in Urine by Test strip</td></tr></table></div>"
        },
        "status": "final",
        "subject": {
          "reference": "urn:uuid:7e3cfe2b-480f-4805-8b29-ef9f324ff230",
          "display": "Molly Jenkins"
        },
        "effectiveDateTime": "2023-09-28T14:42:11Z",
        "specimen": {
          "reference": "urn:uuid:16e01c94-f2bb-482b-b5a6-b1136b2d9ed1"
        }
      }
    },
    {
      "fullUrl": "urn:uuid:b3f77bc1-023a-4836-a494-7b5f523e1ae7",
      "resource": {
        "resourceType": "Observation",
        "id": "b3f77bc1-023a-4836-a494-7b5f523e1ae7",
        "meta": {
          "profile": [
            "http://hl7.eu/fhir/laboratory/StructureDefinition/Observation-resultslab-eu-lab"
          ]
        },
        "performer": [
          {
            "display": "The Central European Lab"
          }
        ],
        "category": [
          {
            "coding": [
              {
                "system": "http://terminology.hl7.org/CodeSystem/observation-category",
                "code": "laboratory"
              }
            ]
          }
        ],
        "code": {
          "coding": [
            {
              "code": "5799-2",
              "system": "http://loinc.org",
              "display": "Leukocyte esterase [Presence] in Urine by Test strip"
            }
          ],
          "text": "Leukocyte esterase [Presence] in Urine by Test strip"
        },
        "text": {
          "status": "generated",
          "div": "<div xmlns=\"http://www.w3.org/1999/xhtml\"><table class=\"hl7__eu__lab__report\"><tr><th>Test</th><th>28-Sep-2023</th><th>Reference&#xA0;Range</th><th>Unit</th></tr><tr><td>Leukocyte esterase [Presence] in Urine by Test strip</td></tr></table></div>"
        },
        "status": "final",
        "subject": {
          "reference": "urn:uuid:7e3cfe2b-480f-4805-8b29-ef9f324ff230",
          "display": "Molly Jenkins"
        },
        "effectiveDateTime": "2023-09-28T14:42:11Z",
        "specimen": {
          "reference": "urn:uuid:16e01c94-f2bb-482b-b5a6-b1136b2d9ed1"
        }
      }
    },
    {
      "fullUrl": "urn:uuid:c35a3a19-34ff-44a2-850e-1309caa9859e",
      "resource": {
        "resourceType": "Observation",
        "id": "c35a3a19-34ff-44a2-850e-1309caa9859e",
        "meta": {
          "profile": [
            "http://hl7.eu/fhir/laboratory/StructureDefinition/Observation-resultslab-eu-lab"
          ]
        },
        "performer": [
          {
            "display": "The Central European Lab"
          }
        ],
        "category": [
          {
            "coding": [
              {
                "system": "http://terminology.hl7.org/CodeSystem/observation-category",
                "code": "laboratory"
              }
            ]
          }
        ],
        "code": {
          "coding": [
            {
              "code": "4548-4",
              "system": "http://loinc.org",
              "display": "Hemoglobin A1c/Hemoglobin.total in Blood"
            }
          ],
          "text": "Hemoglobin A1c/Hemoglobin.total in Blood"
        },
        "valueQuantity": {
          "system": "http://unitsofmeasure.org",
          "value": 3.1,
          "unit": "%",
          "code": "%"
        },
        "referenceRange": [
          {
            "low": {
              "value": 4,
              "code": "%",
              "system": "http://unitsofmeasure.org"
            }
          },
          {
            "high": {
              "value": 6,
              "code": "%",
              "system": "http://unitsofmeasure.org"
            }
          }
        ],
        "interpretation": [
          {
            "coding": [
              {
                "code": "L",
                "system": "http://terminology.hl7.org/CodeSystem/v3-ObservationInterpretation",
                "display": "Low"
              }
            ]
          }
        ],
        "text": {
          "status": "generated",
          "div": "<div xmlns=\"http://www.w3.org/1999/xhtml\"><table class=\"hl7__eu__lab__report\"><tr><th>Test</th><th>28-Sep-2023</th><th>Reference&#xA0;Range</th><th>Unit</th></tr><tr><td>Hemoglobin A1c/Hemoglobin.total in Blood</td><td>3.1</td><td>4 - 6</td><td>L</td><td>%</td></tr></table></div>"
        },
        "status": "final",
        "subject": {
          "reference": "urn:uuid:7e3cfe2b-480f-4805-8b29-ef9f324ff230",
          "display": "Molly Jenkins"
        },
        "effectiveDateTime": "2023-09-28T14:42:11Z",
        "specimen": {
          "reference": "urn:uuid:b9a28b0b-e4d8-4787-adce-47dc32e0a3a9"
        }
      }
    },
    {
      "fullUrl": "urn:uuid:a4aa6c7d-0e33-47dc-8fdb-813ec40fe7d4",
      "resource": {
        "resourceType": "Observation",
        "id": "a4aa6c7d-0e33-47dc-8fdb-813ec40fe7d4",
        "meta": {
          "profile": [
            "http://hl7.eu/fhir/laboratory/StructureDefinition/Observation-resultslab-eu-lab"
          ]
        },
        "performer": [
          {
            "display": "The Central European Lab"
          }
        ],
        "category": [
          {
            "coding": [
              {
                "system": "http://terminology.hl7.org/CodeSystem/observation-category",
                "code": "laboratory"
              }
            ]
          }
        ],
        "code": {
          "coding": [
            {
              "code": "2339-0",
              "system": "http://loinc.org",
              "display": "Glucose [Mass/volume] in Blood"
            }
          ],
          "text": "Glucose [Mass/volume] in Blood"
        },
        "valueQuantity": {
          "system": "http://unitsofmeasure.org",
          "value": 90.5,
          "unit": "mg/dL",
          "code": "mg/dL"
        },
        "referenceRange": [
          {
            "low": {
              "value": 70,
              "code": "mg/dL",
              "system": "http://unitsofmeasure.org"
            }
          },
          {
            "high": {
              "value": 100,
              "code": "mg/dL",
              "system": "http://unitsofmeasure.org"
            }
          }
        ],
        "text": {
          "status": "generated",
          "div": "<div xmlns=\"http://www.w3.org/1999/xhtml\"><table class=\"hl7__eu__lab__report\"><tr><th>Test</th><th>28-Sep-2023</th><th>Reference&#xA0;Range</th><th>Unit</th></tr><tr><td>Glucose [Mass/volume] in Blood</td><td>90.5</td><td>70 - 100</td><td></td><td>mg/dL</td></tr></table></div>"
        },
        "status": "final",
        "subject": {
          "reference": "urn:uuid:7e3cfe2b-480f-4805-8b29-ef9f324ff230",
          "display": "Molly Jenkins"
        },
        "effectiveDateTime": "2023-09-28T14:42:11Z",
        "specimen": {
          "reference": "urn:uuid:b9a28b0b-e4d8-4787-adce-47dc32e0a3a9"
        }
      }
    },
    {
      "fullUrl": "urn:uuid:d5f1e3b3-999a-4bac-a97f-fcaadf170b57",
      "resource": {
        "resourceType": "Observation",
        "id": "d5f1e3b3-999a-4bac-a97f-fcaadf170b57",
        "meta": {
          "profile": [
            "http://hl7.eu/fhir/laboratory/StructureDefinition/Observation-resultslab-eu-lab"
          ]
        },
        "performer": [
          {
            "display": "The Central European Lab"
          }
        ],
        "category": [
          {
            "coding": [
              {
                "system": "http://terminology.hl7.org/CodeSystem/observation-category",
                "code": "laboratory"
              }
            ]
          }
        ],
        "code": {
          "coding": [
            {
              "code": "6299-2",
              "system": "http://loinc.org",
              "display": "Urea nitrogen [Mass/volume] in Blood"
            }
          ],
          "text": "Urea nitrogen [Mass/volume] in Blood"
        },
        "valueQuantity": {
          "system": "http://unitsofmeasure.org",
          "value": 16.4,
          "unit": "mg/dL",
          "code": "mg/dL"
        },
        "referenceRange": [
          {
            "low": {
              "value": 7,
              "code": "mg/dL",
              "system": "http://unitsofmeasure.org"
            }
          },
          {
            "high": {
              "value": 20,
              "code": "mg/dL",
              "system": "http://unitsofmeasure.org"
            }
          }
        ],
        "text": {
          "status": "generated",
          "div": "<div xmlns=\"http://www.w3.org/1999/xhtml\"><table class=\"hl7__eu__lab__report\"><tr><th>Test</th><th>28-Sep-2023</th><th>Reference&#xA0;Range</th><th>Unit</th></tr><tr><td>Urea nitrogen [Mass/volume] in Blood</td><td>16.4</td><td>7 - 20</td><td></td><td>mg/dL</td></tr></table></div>"
        },
        "status": "final",
        "subject": {
          "reference": "urn:uuid:7e3cfe2b-480f-4805-8b29-ef9f324ff230",
          "display": "Molly Jenkins"
        },
        "effectiveDateTime": "2023-09-28T14:42:11Z",
        "specimen": {
          "reference": "urn:uuid:b9a28b0b-e4d8-4787-adce-47dc32e0a3a9"
        }
      }
    },
    {
      "fullUrl": "urn:uuid:39ac49b1-5fad-458e-946a-ba0e9f9e2983",
      "resource": {
        "resourceType": "Observation",
        "id": "39ac49b1-5fad-458e-946a-ba0e9f9e2983",
        "meta": {
          "profile": [
            "http://hl7.eu/fhir/laboratory/StructureDefinition/Observation-resultslab-eu-lab"
          ]
        },
        "performer": [
          {
            "display": "The Central European Lab"
          }
        ],
        "category": [
          {
            "coding": [
              {
                "system": "http://terminology.hl7.org/CodeSystem/observation-category",
                "code": "laboratory"
              }
            ]
          }
        ],
        "code": {
          "coding": [
            {
              "code": "38483-4",
              "system": "http://loinc.org",
              "display": "Creatinine [Mass/volume] in Blood"
            }
          ],
          "text": "Creatinine [Mass/volume] in Blood"
        },
        "valueQuantity": {
          "system": "http://unitsofmeasure.org",
          "value": 1.3,
          "unit": "mg/dL",
          "code": "mg/dL"
        },
        "referenceRange": [
          {
            "low": {
              "value": 0.6,
              "code": "mg/dL",
              "system": "http://unitsofmeasure.org"
            }
          },
          {
            "high": {
              "value": 1.3,
              "code": "mg/dL",
              "system": "http://unitsofmeasure.org"
            }
          }
        ],
        "text": {
          "status": "generated",
          "div": "<div xmlns=\"http://www.w3.org/1999/xhtml\"><table class=\"hl7__eu__lab__report\"><tr><th>Test</th><th>28-Sep-2023</th><th>Reference&#xA0;Range</th><th>Unit</th></tr><tr><td>Creatinine [Mass/volume] in Blood</td><td>1.3</td><td>0.6 - 1.3</td><td></td><td>mg/dL</td></tr></table></div>"
        },
        "status": "final",
        "subject": {
          "reference": "urn:uuid:7e3cfe2b-480f-4805-8b29-ef9f324ff230",
          "display": "Molly Jenkins"
        },
        "effectiveDateTime": "2023-09-28T14:42:11Z",
        "specimen": {
          "reference": "urn:uuid:b9a28b0b-e4d8-4787-adce-47dc32e0a3a9"
        }
      }
    },
    {
      "fullUrl": "urn:uuid:b793f38e-a691-4f3e-9d27-0419d205b809",
      "resource": {
        "resourceType": "Observation",
        "id": "b793f38e-a691-4f3e-9d27-0419d205b809",
        "meta": {
          "profile": [
            "http://hl7.eu/fhir/laboratory/StructureDefinition/Observation-resultslab-eu-lab"
          ]
        },
        "performer": [
          {
            "display": "The Central European Lab"
          }
        ],
        "category": [
          {
            "coding": [
              {
                "system": "http://terminology.hl7.org/CodeSystem/observation-category",
                "code": "laboratory"
              }
            ]
          }
        ],
        "code": {
          "coding": [
            {
              "code": "49765-1",
              "system": "http://loinc.org",
              "display": "Calcium [Mass/volume] in Blood"
            }
          ],
          "text": "Calcium [Mass/volume] in Blood"
        },
        "valueQuantity": {
          "system": "http://unitsofmeasure.org",
          "value": 10.2,
          "unit": "mg/dL",
          "code": "mg/dL"
        },
        "referenceRange": [
          {
            "low": {
              "value": 8.6,
              "code": "mg/dL",
              "system": "http://unitsofmeasure.org"
            }
          },
          {
            "high": {
              "value": 10.4,
              "code": "mg/dL",
              "system": "http://unitsofmeasure.org"
            }
          }
        ],
        "text": {
          "status": "generated",
          "div": "<div xmlns=\"http://www.w3.org/1999/xhtml\"><table class=\"hl7__eu__lab__report\"><tr><th>Test</th><th>28-Sep-2023</th><th>Reference&#xA0;Range</th><th>Unit</th></tr><tr><td>Calcium [Mass/volume] in Blood</td><td>10.2</td><td>8.6 - 10.4</td><td></td><td>mg/dL</td></tr></table></div>"
        },
        "status": "final",
        "subject": {
          "reference": "urn:uuid:7e3cfe2b-480f-4805-8b29-ef9f324ff230",
          "display": "Molly Jenkins"
        },
        "effectiveDateTime": "2023-09-28T14:42:11Z",
        "specimen": {
          "reference": "urn:uuid:b9a28b0b-e4d8-4787-adce-47dc32e0a3a9"
        }
      }
    },
    {
      "fullUrl": "urn:uuid:5460d127-160b-4193-91a6-a7ae43aba792",
      "resource": {
        "resourceType": "Observation",
        "id": "5460d127-160b-4193-91a6-a7ae43aba792",
        "meta": {
          "profile": [
            "http://hl7.eu/fhir/laboratory/StructureDefinition/Observation-resultslab-eu-lab"
          ]
        },
        "performer": [
          {
            "display": "The Central European Lab"
          }
        ],
        "category": [
          {
            "coding": [
              {
                "system": "http://terminology.hl7.org/CodeSystem/observation-category",
                "code": "laboratory"
              }
            ]
          }
        ],
        "code": {
          "coding": [
            {
              "code": "2947-0",
              "system": "http://loinc.org",
              "display": "Sodium [Moles/volume] in Blood"
            }
          ],
          "text": "Sodium [Moles/volume] in Blood"
        },
        "valueQuantity": {
          "system": "http://unitsofmeasure.org",
          "value": 139.4,
          "unit": "mmol/L",
          "code": "mmol/L"
        },
        "referenceRange": [
          {
            "low": {
              "value": 135,
              "code": "mmol/L",
              "system": "http://unitsofmeasure.org"
            }
          },
          {
            "high": {
              "value": 145,
              "code": "mmol/L",
              "system": "http://unitsofmeasure.org"
            }
          }
        ],
        "text": {
          "status": "generated",
          "div": "<div xmlns=\"http://www.w3.org/1999/xhtml\"><table class=\"hl7__eu__lab__report\"><tr><th>Test</th><th>28-Sep-2023</th><th>Reference&#xA0;Range</th><th>Unit</th></tr><tr><td>Sodium [Moles/volume] in Blood</td><td>139.4</td><td>135 - 145</td><td></td><td>mmol/L</td></tr></table></div>"
        },
        "status": "final",
        "subject": {
          "reference": "urn:uuid:7e3cfe2b-480f-4805-8b29-ef9f324ff230",
          "display": "Molly Jenkins"
        },
        "effectiveDateTime": "2023-09-28T14:42:11Z",
        "specimen": {
          "reference": "urn:uuid:b9a28b0b-e4d8-4787-adce-47dc32e0a3a9"
        }
      }
    },
    {
      "fullUrl": "urn:uuid:86800169-16b2-4891-bc38-aa2fa100c034",
      "resource": {
        "resourceType": "Observation",
        "id": "86800169-16b2-4891-bc38-aa2fa100c034",
        "meta": {
          "profile": [
            "http://hl7.eu/fhir/laboratory/StructureDefinition/Observation-resultslab-eu-lab"
          ]
        },
        "performer": [
          {
            "display": "The Central European Lab"
          }
        ],
        "category": [
          {
            "coding": [
              {
                "system": "http://terminology.hl7.org/CodeSystem/observation-category",
                "code": "laboratory"
              }
            ]
          }
        ],
        "code": {
          "coding": [
            {
              "code": "6298-4",
              "system": "http://loinc.org",
              "display": "Potassium [Moles/volume] in Blood"
            }
          ],
          "text": "Potassium [Moles/volume] in Blood"
        },
        "valueQuantity": {
          "system": "http://unitsofmeasure.org",
          "value": 5.1,
          "unit": "mmol/L",
          "code": "mmol/L"
        },
        "referenceRange": [
          {
            "low": {
              "value": 3.5,
              "code": "mmol/L",
              "system": "http://unitsofmeasure.org"
            }
          },
          {
            "high": {
              "value": 5.1,
              "code": "mmol/L",
              "system": "http://unitsofmeasure.org"
            }
          }
        ],
        "text": {
          "status": "generated",
          "div": "<div xmlns=\"http://www.w3.org/1999/xhtml\"><table class=\"hl7__eu__lab__report\"><tr><th>Test</th><th>28-Sep-2023</th><th>Reference&#xA0;Range</th><th>Unit</th></tr><tr><td>Potassium [Moles/volume] in Blood</td><td>5.1</td><td>3.5 - 5.1</td><td></td><td>mmol/L</td></tr></table></div>"
        },
        "status": "final",
        "subject": {
          "reference": "urn:uuid:7e3cfe2b-480f-4805-8b29-ef9f324ff230",
          "display": "Molly Jenkins"
        },
        "effectiveDateTime": "2023-09-28T14:42:11Z",
        "specimen": {
          "reference": "urn:uuid:b9a28b0b-e4d8-4787-adce-47dc32e0a3a9"
        }
      }
    },
    {
      "fullUrl": "urn:uuid:0530e12f-4054-4de5-9a07-095938838ac0",
      "resource": {
        "resourceType": "Observation",
        "id": "0530e12f-4054-4de5-9a07-095938838ac0",
        "meta": {
          "profile": [
            "http://hl7.eu/fhir/laboratory/StructureDefinition/Observation-resultslab-eu-lab"
          ]
        },
        "performer": [
          {
            "display": "The Central European Lab"
          }
        ],
        "category": [
          {
            "coding": [
              {
                "system": "http://terminology.hl7.org/CodeSystem/observation-category",
                "code": "laboratory"
              }
            ]
          }
        ],
        "code": {
          "coding": [
            {
              "code": "2069-3",
              "system": "http://loinc.org",
              "display": "Chloride [Moles/volume] in Blood"
            }
          ],
          "text": "Chloride [Moles/volume] in Blood"
        },
        "valueQuantity": {
          "system": "http://unitsofmeasure.org",
          "value": 108.4,
          "unit": "mmol/L",
          "code": "mmol/L"
        },
        "referenceRange": [
          {
            "low": {
              "value": 98,
              "code": "mmol/L",
              "system": "http://unitsofmeasure.org"
            }
          },
          {
            "high": {
              "value": 110,
              "code": "mmol/L",
              "system": "http://unitsofmeasure.org"
            }
          }
        ],
        "text": {
          "status": "generated",
          "div": "<div xmlns=\"http://www.w3.org/1999/xhtml\"><table class=\"hl7__eu__lab__report\"><tr><th>Test</th><th>28-Sep-2023</th><th>Reference&#xA0;Range</th><th>Unit</th></tr><tr><td>Chloride [Moles/volume] in Blood</td><td>108.4</td><td>98 - 110</td><td></td><td>mmol/L</td></tr></table></div>"
        },
        "status": "final",
        "subject": {
          "reference": "urn:uuid:7e3cfe2b-480f-4805-8b29-ef9f324ff230",
          "display": "Molly Jenkins"
        },
        "effectiveDateTime": "2023-09-28T14:42:11Z",
        "specimen": {
          "reference": "urn:uuid:b9a28b0b-e4d8-4787-adce-47dc32e0a3a9"
        }
      }
    },
    {
      "fullUrl": "urn:uuid:c363bb10-8d9c-48ad-9074-e47b45277ad4",
      "resource": {
        "resourceType": "Observation",
        "id": "c363bb10-8d9c-48ad-9074-e47b45277ad4",
        "meta": {
          "profile": [
            "http://hl7.eu/fhir/laboratory/StructureDefinition/Observation-resultslab-eu-lab"
          ]
        },
        "performer": [
          {
            "display": "The Central European Lab"
          }
        ],
        "category": [
          {
            "coding": [
              {
                "system": "http://terminology.hl7.org/CodeSystem/observation-category",
                "code": "laboratory"
              }
            ]
          }
        ],
        "code": {
          "coding": [
            {
              "code": "20565-8",
              "system": "http://loinc.org",
              "display": "Carbon dioxide, total [Moles/volume] in Blood"
            }
          ],
          "text": "Carbon dioxide, total [Moles/volume] in Blood"
        },
        "valueQuantity": {
          "system": "http://unitsofmeasure.org",
          "value": 21.8,
          "unit": "mmol/L",
          "code": "mmol/L"
        },
        "referenceRange": [
          {
            "low": {
              "value": 22,
              "code": "mmol/L",
              "system": "http://unitsofmeasure.org"
            }
          },
          {
            "high": {
              "value": 29,
              "code": "mmol/L",
              "system": "http://unitsofmeasure.org"
            }
          }
        ],
        "interpretation": [
          {
            "coding": [
              {
                "code": "L",
                "system": "http://terminology.hl7.org/CodeSystem/v3-ObservationInterpretation",
                "display": "Low"
              }
            ]
          }
        ],
        "text": {
          "status": "generated",
          "div": "<div xmlns=\"http://www.w3.org/1999/xhtml\"><table class=\"hl7__eu__lab__report\"><tr><th>Test</th><th>28-Sep-2023</th><th>Reference&#xA0;Range</th><th>Unit</th></tr><tr><td>Carbon dioxide, total [Moles/volume] in Blood</td><td>21.8</td><td>22 - 29</td><td>L</td><td>mmol/L</td></tr></table></div>"
        },
        "status": "final",
        "subject": {
          "reference": "urn:uuid:7e3cfe2b-480f-4805-8b29-ef9f324ff230",
          "display": "Molly Jenkins"
        },
        "effectiveDateTime": "2023-09-28T14:42:11Z",
        "specimen": {
          "reference": "urn:uuid:b9a28b0b-e4d8-4787-adce-47dc32e0a3a9"
        }
      }
    },
    {
      "fullUrl": "urn:uuid:7693a653-2620-413e-8d4a-f390971eae00",
      "resource": {
        "resourceType": "Device",
        "id": "7693a653-2620-413e-8d4a-f390971eae00",
        "deviceName": [
          {
            "name": "SYNDERAI Synthetic Generator",
            "type": "manufacturer-name"
          }
        ],
        "version": [
          {
            "value": "5.0"
          }
        ],
        "text": {
          "status": "generated",
          "div": "<div xmlns=\"http://www.w3.org/1999/xhtml\">SYNDERAI Synthetic Generator v5.0</div>"
        },
        "status": "active\"",
        "distinctIdentifier": "synderai-generator-50",
        "manufacturer": "SYNDERAI Project"
      }
    },
    {
      "fullUrl": "urn:uuid:90322122-180d-40f2-8f3a-87471a731693",
      "resource": {
        "resourceType": "Provenance",
        "id": "90322122-180d-40f2-8f3a-87471a731693",
        "target": [
          {
            "reference": "Patient/7e3cfe2b-480f-4805-8b29-ef9f324ff230"
          },
          {
            "reference": "Bundle/9fcb429b-850e-470a-90f4-6e227f830c4b"
          },
          {
            "reference": "Composition/17e18ede-8e6d-426e-adac-8ca452a1444b"
          },
          {
            "reference": "PractitionerRole/7f264467-006f-452b-b36f-e589ed6674ce"
          },
          {
            "reference": "Practitioner/1d5be815-997b-40f4-9a43-7bffc25675d7"
          },
          {
            "reference": "PractitionerRole/1bb63627-e06f-4514-8842-d17d9849e502"
          },
          {
            "reference": "Organization/dd6ea2e9-ac30-4b27-b198-9e3871465135"
          }
        ],
        "activity": {
          "text": "Synthetic Example Data Generation"
        },
        "policy": [
          "https://synderai.net/synderai-synthetic-data-policy"
        ],
        "agent": [
          {
            "type": {
              "text": "author"
            },
            "who": {
              "reference": "Device/7693a653-2620-413e-8d4a-f390971eae00"
            }
          }
        ],
        "reason": [
          {
            "text": "Interoperability Testing and Training (non-clinical use)"
          }
        ],
        "text": {
          "status": "generated",
          "div": "<div xmlns=\"http://www.w3.org/1999/xhtml\">Provenance for SYNDERAI Synthetic Example Data Resource</div>"
        },
        "recorded": "2023-09-28T16:42:11Z"
      }
    },
    {
      "fullUrl": "urn:uuid:7f264467-006f-452b-b36f-e589ed6674ce",
      "resource": {
        "resourceType": "PractitionerRole",
        "id": "7f264467-006f-452b-b36f-e589ed6674ce",
        "meta": {
          "profile": [
            "http://hl7.eu/fhir/base/StructureDefinition/practitionerRole-eu"
          ]
        },
        "text": {
          "status": "generated",
          "div": "<div xmlns=\"http://www.w3.org/1999/xhtml\">Laboratory Role Id: 7f264467-006f-452b-b36f-e589ed6674ce</div>"
        },
        "practitioner": {
          "reference": "urn:uuid:1d5be815-997b-40f4-9a43-7bffc25675d7"
        }
      }
    },
    {
      "fullUrl": "urn:uuid:1d5be815-997b-40f4-9a43-7bffc25675d7",
      "resource": {
        "resourceType": "Practitioner",
        "id": "1d5be815-997b-40f4-9a43-7bffc25675d7",
        "meta": {
          "profile": [
            "http://hl7.eu/fhir/base/StructureDefinition/practitioner-eu"
          ]
        },
        "identifier": [
          {
            "assigner": {
              "display": "HL7 Europe"
            },
            "system": "urn:oid:2.16.840.1.113883.2.51.999",
            "value": "04ba4560-1a72-498a-9416-0d327464bd2c"
          }
        ],
        "name": [
          {
            "prefix": [
              "dr"
            ],
            "given": [
              "Ex"
            ],
            "family": "Ample"
          }
        ],
        "address": [
          {
            "line": [
              "Laboratoire Central Européenne",
              "Boulevard du Jardin Botanique 32"
            ],
            "postalCode": "1000",
            "city": "Brussels",
            "country": "Belgium"
          }
        ],
        "text": {
          "status": "generated",
          "div": "<div xmlns=\"http://www.w3.org/1999/xhtml\">Laboratory: Laboratoire Central Européenne, 1000 Brussels, Belgium</div>"
        }
      }
    }
  ],
  "type": "document",
  "timestamp": "2023-09-28T16:42:11Z"
}
