{
  "resourceType": "Bundle",
  "id": "0f2007bc-d97f-4dab-a30b-5122d12a59e0",
  "meta": {
    "profile": [
      "http://hl7.eu/fhir/laboratory/StructureDefinition/Bundle-eu-lab"
    ]
  },
  "identifier": {
    "assigner": {
      "display": "HL7 Europe"
    },
    "system": "urn:oid:2.16.840.1.113883.2.51.999",
    "value": "25e4cd77-4479-4e0f-8a41-4c59949da25f"
  },
  "entry": [
    {
      "fullUrl": "urn:uuid:2d50a7dd-e636-48e7-9b73-d95d407cf5cc",
      "resource": {
        "resourceType": "Composition",
        "id": "2d50a7dd-e636-48e7-9b73-d95d407cf5cc",
        "meta": {
          "profile": [
            "http://hl7.eu/fhir/laboratory/StructureDefinition/Composition-eu-lab"
          ]
        },
        "identifier": {
          "assigner": {
            "display": "HL7 Europe"
          },
          "system": "urn:oid:2.16.840.1.113883.2.51.999",
          "value": "69aaddb8-2d07-48aa-aee6-b5765963e94b"
        },
        "author": [
          {
            "reference": "urn:uuid:38bbf25e-e824-4e0e-9dca-286392b9beef"
          }
        ],
        "category": [
          {
            "coding": [
              {
                "code": "26436-6",
                "system": "http://loinc.org",
                "display": "Laboratory studies (set)"
              }
            ]
          }
        ],
        "type": {
          "coding": [
            {
              "code": "11502-2",
              "system": "http://loinc.org",
              "display": "Laboratory report"
            }
          ],
          "text": "Laboratory Report"
        },
        "section": [
          {
            "code": {
              "coding": [
                {
                  "code": "26436-6",
                  "system": "http://loinc.org",
                  "display": "Laboratory studies (set)"
                }
              ],
              "text": "Laboratory studies"
            },
            "section": [
              {
                "code": {
                  "coding": [
                    {
                      "code": "$18719-5",
                      "system": "http://loinc.org",
                      "display": "Chemistry studies (set)"
                    }
                  ],
                  "text": "Chemistry"
                },
                "entry": [
                  {
                    "reference": "urn:uuid:d33e3731-d8c6-4eeb-9e11-dabb3b56e1f5"
                  },
                  {
                    "reference": "urn:uuid:50cf9614-fc59-470e-8566-4bddb42d6c04"
                  },
                  {
                    "reference": "urn:uuid:093dcaf0-51c9-4774-ab67-afba6a7157c9"
                  },
                  {
                    "reference": "urn:uuid:1e2c6800-240b-4462-9f2b-1cd404639a1f"
                  },
                  {
                    "reference": "urn:uuid:24426a6b-e3e0-4134-bc34-140f883f4540"
                  },
                  {
                    "reference": "urn:uuid:6c20610e-2750-4eab-a704-cfb7dea57b3a"
                  },
                  {
                    "reference": "urn:uuid:e17a7c45-28fa-43fe-9b8d-b4d5a675b6f2"
                  },
                  {
                    "reference": "urn:uuid:b71a6f38-3426-48c5-93aa-44eeda10f4da"
                  },
                  {
                    "reference": "urn:uuid:9fef9b26-665d-4dc5-9df7-6b23b56018c5"
                  },
                  {
                    "reference": "urn:uuid:b8dd8b57-6be2-40e7-bf13-739f3ddd0c7b"
                  },
                  {
                    "reference": "urn:uuid:bbdd819c-5814-411e-a38a-ec2856bd10f3"
                  },
                  {
                    "reference": "urn:uuid:34c690c5-3ffd-416d-a773-fd11476f93e9"
                  },
                  {
                    "reference": "urn:uuid:24f14e91-cc06-4f60-94d7-a0cdf6705086"
                  },
                  {
                    "reference": "urn:uuid:00b53a40-8c73-425b-b6bc-20f597e4d515"
                  },
                  {
                    "reference": "urn:uuid:d17c4ae1-eaf9-474e-aad6-2284ee4b14a6"
                  },
                  {
                    "reference": "urn:uuid:4fbed843-3740-4799-981e-22de567e979f"
                  },
                  {
                    "reference": "urn:uuid:308a56a5-5a3c-4142-9341-ba041ce3975d"
                  },
                  {
                    "reference": "urn:uuid:f23b4fec-36b9-462b-84bf-b9812da558b3"
                  },
                  {
                    "reference": "urn:uuid:5decf5bf-e0ab-43dc-8763-399df8062192"
                  }
                ],
                "text": {
                  "status": "generated",
                  "div": "<div xmlns=\"http://www.w3.org/1999/xhtml\"><h3>Chemistry</h3><table class=\"hl7__eu__lab__report\"><thead><tr><th>Test</th><th>07-NOV-2020</th><th>Reference&#xA0;Range</th><th>Unit</th></tr></thead><tbody><tr><td>Glucose [Mass/volume] in Blood</td><td>83.7</td><td>70 - 140</td><td>mg/dL</td></tr><tr><td>Urea nitrogen [Mass/volume] in Blood</td><td>12.8</td><td>7 - 25</td><td>mg/dL</td></tr><tr><td>Creatinine [Mass/volume] in Blood</td><td><strong>2.9 H</strong></td><td>0.6 - 1.1</td><td>mg/dL</td></tr><tr><td>Calcium [Mass/volume] in Blood</td><td>9.2</td><td>8.6 - 10.4</td><td>mg/dL</td></tr><tr><td>Sodium [Moles/volume] in Blood</td><td>138.8</td><td>135 - 145</td><td>mmol/L</td></tr><tr><td>Potassium [Moles/volume] in Blood</td><td>5.0</td><td>3.5 - 5.3</td><td>mmol/L</td></tr><tr><td>Chloride [Moles/volume] in Blood</td><td>104.3</td><td>98 - 108</td><td>mmol/L</td></tr><tr><td>Carbon dioxide, total [Moles/volume] in Blood</td><td>24.7</td><td>22 - 32</td><td>mmol/L</td></tr><tr><td>Protein [Mass/volume] in Serum or Plasma</td><td>7.8</td><td>6.6 - 8.3</td><td>g/dL</td></tr><tr><td>Albumin [Mass/volume] in Serum or Plasma</td><td>4.9</td><td>3.5 - 5.5</td><td>g/dL</td></tr><tr><td>Globulin [Mass/volume] in Serum by calculation</td><td><strong>2.0 L</strong></td><td>2.2 - 3.7</td><td>g/L</td></tr><tr><td>Bilirubin.total [Mass/volume] in Serum or Plasma</td><td>1.1</td><td>0.3 - 1.2</td><td>mg/dL</td></tr><tr><td>Alkaline phosphatase [Enzymatic activity/volume] in Serum or Plasma</td><td>78.5</td><td>40 - 130</td><td>U/L</td></tr><tr><td>Alanine aminotransferase [Enzymatic activity/volume] in Serum or Plasma</td><td>54.9</td><td>7 - 55</td><td>U/L</td></tr><tr><td>Aspartate aminotransferase [Enzymatic activity/volume] in Serum or Plasma</td><td>34.5</td><td>10 - 40</td><td>U/L</td></tr><tr><td>Cholesterol [Mass/volume] in Serum or Plasma</td><td>189.8</td><td>125 - 200</td><td>mg/dL</td></tr><tr><td>Triglyceride [Mass/volume] in Serum or Plasma</td><td>146.6</td><td>10 - 175</td><td>mg/dL</td></tr><tr><td>Cholesterol in LDL [Mass/volume] in Serum or Plasma by Direct assay</td><td>93.7</td><td>0 - 130</td><td>mg/dL</td></tr><tr><td>Cholesterol in HDL [Mass/volume] in Serum or Plasma</td><td><strong>30.9 L</strong></td><td>50 - 100</td><td>mg/dL</td></tr></tbody></table></div>"
                },
                "title": "Chemistry"
              }
            ],
            "title": "Laboratory Report"
          },
          {
            "text": {
              "status": "generated",
              "div": "<div xmlns=\"http://www.w3.org/1999/xhtml\"><h3>Annotation</h3><table class=\"hl7__eu__lab__report\"><tr><th>Conclusion and Recommendations based on this report and previous findings known to us</th></tr><tr><td>The patient shows elevated creatinine, suggesting impaired renal function, and low globulin and HDL cholesterol levels. Other parameters, including liver enzymes, electrolytes, and glucose, are within normal limits. The findings warrant further evaluation of renal function and cardiovascular risk, especially considering the patient&quot;s age. Clinical correlation and follow-up are recommended.</td></tr></table></div>"
            },
            "code": {
              "coding": [
                {
                  "system": "http://loinc.org",
                  "code": "48767-8",
                  "display": "Annotation comment"
                }
              ]
            },
            "title": "Annotation comment"
          }
        ],
        "status": "final",
        "subject": {
          "reference": "urn:uuid:9541963f-2685-411b-8d40-ebd2131b879a",
          "display": "Helene Andresen"
        },
        "date": "2020-11-07T23:53:36Z",
        "title": "Laboratory Report",
        "confidentiality": "N"
      }
    },
    {
      "fullUrl": "urn:uuid:7de4b7d2-9532-4971-9e05-9ef5cc34f94c",
      "resource": {
        "resourceType": "DiagnosticReport",
        "id": "7de4b7d2-9532-4971-9e05-9ef5cc34f94c",
        "meta": {
          "profile": [
            "http://hl7.eu/fhir/laboratory/StructureDefinition/DiagnosticReport-eu-lab"
          ]
        },
        "identifier": [
          {
            "assigner": {
              "display": "HL7 Europe"
            },
            "system": "urn:oid:2.16.840.1.113883.2.51.999",
            "value": "d8cd4a06-8f48-4da6-a41f-f69ed2da0501"
          }
        ],
        "extension": [
          {
            "url": "http://hl7.org/fhir/5.0/StructureDefinition/extension-DiagnosticReport.composition",
            "valueReference": {
              "reference": "urn:uuid:69aaddb8-2d07-48aa-aee6-b5765963e94b"
            }
          }
        ],
        "category": [
          {
            "coding": [
              {
                "code": "26436-6",
                "system": "http://loinc.org",
                "display": "Laboratory studies (set)"
              }
            ]
          }
        ],
        "specimen": [
          {
            "reference": "urn:uuid:9972d7a7-0aef-4f7c-9f1e-bae16d27f61d"
          },
          {
            "reference": "urn:uuid:55134d40-581b-4c1d-b29c-475310273925"
          },
          {
            "reference": "urn:uuid:4cab4b6b-0ff2-4c73-b654-16b1cc8201af"
          }
        ],
        "result": [
          {
            "reference": "urn:uuid:d33e3731-d8c6-4eeb-9e11-dabb3b56e1f5"
          },
          {
            "reference": "urn:uuid:50cf9614-fc59-470e-8566-4bddb42d6c04"
          },
          {
            "reference": "urn:uuid:093dcaf0-51c9-4774-ab67-afba6a7157c9"
          },
          {
            "reference": "urn:uuid:1e2c6800-240b-4462-9f2b-1cd404639a1f"
          },
          {
            "reference": "urn:uuid:24426a6b-e3e0-4134-bc34-140f883f4540"
          },
          {
            "reference": "urn:uuid:6c20610e-2750-4eab-a704-cfb7dea57b3a"
          },
          {
            "reference": "urn:uuid:e17a7c45-28fa-43fe-9b8d-b4d5a675b6f2"
          },
          {
            "reference": "urn:uuid:b71a6f38-3426-48c5-93aa-44eeda10f4da"
          },
          {
            "reference": "urn:uuid:9fef9b26-665d-4dc5-9df7-6b23b56018c5"
          },
          {
            "reference": "urn:uuid:b8dd8b57-6be2-40e7-bf13-739f3ddd0c7b"
          },
          {
            "reference": "urn:uuid:bbdd819c-5814-411e-a38a-ec2856bd10f3"
          },
          {
            "reference": "urn:uuid:34c690c5-3ffd-416d-a773-fd11476f93e9"
          },
          {
            "reference": "urn:uuid:24f14e91-cc06-4f60-94d7-a0cdf6705086"
          },
          {
            "reference": "urn:uuid:00b53a40-8c73-425b-b6bc-20f597e4d515"
          },
          {
            "reference": "urn:uuid:d17c4ae1-eaf9-474e-aad6-2284ee4b14a6"
          },
          {
            "reference": "urn:uuid:4fbed843-3740-4799-981e-22de567e979f"
          },
          {
            "reference": "urn:uuid:308a56a5-5a3c-4142-9341-ba041ce3975d"
          },
          {
            "reference": "urn:uuid:f23b4fec-36b9-462b-84bf-b9812da558b3"
          },
          {
            "reference": "urn:uuid:5decf5bf-e0ab-43dc-8763-399df8062192"
          }
        ],
        "status": "registered",
        "code": {
          "coding": [
            {
              "code": "11502-2",
              "system": "http://loinc.org",
              "display": "Laboratory report"
            }
          ]
        },
        "subject": {
          "reference": "urn:uuid:9541963f-2685-411b-8d40-ebd2131b879a",
          "display": "Helene Andresen"
        }
      }
    },
    {
      "fullUrl": "urn:uuid:9541963f-2685-411b-8d40-ebd2131b879a",
      "resource": {
        "resourceType": "Patient",
        "id": "9541963f-2685-411b-8d40-ebd2131b879a",
        "meta": {
          "security": [
            {
              "system": "http://terminology.hl7.org/CodeSystem/v3-ActReason",
              "code": "HTEST"
            },
            {
              "system": "http://terminology.hl7.org/CodeSystem/v3-ActReason",
              "code": "TRAIN"
            }
          ],
          "tag": [
            {
              "system": "https://synderai.net/fhir/CodeSystem/tags",
              "code": "synthetic",
              "display": "SYNDERAI Synthetic data"
            }
          ],
          "profile": [
            "http://hl7.eu/fhir/base/StructureDefinition/patient-eu-core"
          ]
        },
        "identifier": [
          {
            "type": {
              "coding": [
                {
                  "code": "PT",
                  "system": "http://terminology.hl7.org/CodeSystem/v2-0203"
                }
              ]
            },
            "system": "http://ec.europa.eu/identifier/eci",
            "value": "3450-170343-2"
          },
          {
            "type": {
              "coding": [
                {
                  "code": "MR",
                  "system": "http://terminology.hl7.org/CodeSystem/v2-0203"
                }
              ]
            },
            "system": "http://local.setting.eu/identifier",
            "value": "72e91c9c-0b01-42b0-a6a0-6dcc70aeec49"
          }
        ],
        "name": [
          {
            "family": "Andresen"
          },
          {
            "given": [
              "Helene"
            ]
          },
          {
            "text": "Helene Andresen"
          }
        ],
        "address": [
          {
            "line": [
              "Kristiansenberget 2"
            ],
            "use": "home",
            "type": "physical",
            "postalCode": "0172",
            "city": "Sørensen",
            "country": "Norway"
          }
        ],
        "telecom": [
          {
            "system": "phone",
            "value": "53 98 86 24"
          }
        ],
        "extension": [
          {
            "url": "http://hl7.org/fhir/StructureDefinition/patient-nationality",
            "valueCodeableConcept": {
              "coding": [
                {
                  "code": "NO",
                  "system": "http://hl7.org/fhir/ValueSet/country"
                }
              ]
            }
          }
        ],
        "text": {
          "status": "generated",
          "div": "<div xmlns=\"http://www.w3.org/1999/xhtml\"><table class=\"hl7__ips\"><tr><td>Helene Andresen</td><td>female</td><td>17-Oct-1939</td></tr></table></div>"
        },
        "gender": "female",
        "birthDate": "1939-10-17"
      }
    },
    {
      "fullUrl": "urn:uuid:c491b1fb-28d4-46f1-9ba6-f4d9b06da596",
      "resource": {
        "resourceType": "ServiceRequest",
        "id": "c491b1fb-28d4-46f1-9ba6-f4d9b06da596",
        "meta": {
          "profile": [
            "http://hl7.eu/fhir/laboratory/StructureDefinition/ServiceRequest-eu-lab"
          ]
        },
        "identifier": [
          {
            "system": "http://example.org",
            "value": "70cd4a12-31b4-4949-baef-802975b6b6dd"
          }
        ],
        "specimen": [
          {
            "reference": "urn:uuid:9972d7a7-0aef-4f7c-9f1e-bae16d27f61d"
          },
          {
            "reference": "urn:uuid:55134d40-581b-4c1d-b29c-475310273925"
          },
          {
            "reference": "urn:uuid:4cab4b6b-0ff2-4c73-b654-16b1cc8201af"
          }
        ],
        "reasonCode": [
          {
            "coding": [
              {
                "code": "64859006",
                "system": "http://snomed.info/sct",
                "display": "Osteoporosis"
              }
            ]
          },
          {
            "coding": [
              {
                "code": "40055000",
                "system": "http://snomed.info/sct",
                "display": "Chronic sinusitis"
              }
            ]
          },
          {
            "coding": [
              {
                "code": "55822004",
                "system": "http://snomed.info/sct",
                "display": "Hyperlipidemia"
              }
            ]
          },
          {
            "coding": [
              {
                "code": "271737000",
                "system": "http://snomed.info/sct",
                "display": "Anemia"
              }
            ]
          },
          {
            "coding": [
              {
                "code": "15777000",
                "system": "http://snomed.info/sct",
                "display": "Prediabetes"
              }
            ]
          },
          {
            "coding": [
              {
                "code": "128613002",
                "system": "http://snomed.info/sct",
                "display": "Seizure disorder"
              }
            ]
          }
        ],
        "status": "active",
        "intent": "order",
        "code": {
          "coding": [
            {
              "code": "108252007",
              "system": "http://snomed.info/sct",
              "display": "Laboratory procedure"
            }
          ]
        },
        "subject": {
          "reference": "urn:uuid:9541963f-2685-411b-8d40-ebd2131b879a",
          "display": "Helene Andresen"
        },
        "requester": {
          "reference": "urn:uuid:ea3c2f44-2a85-454f-8b29-28b0ffbd7b72"
        }
      }
    },
    {
      "fullUrl": "urn:uuid:ea3c2f44-2a85-454f-8b29-28b0ffbd7b72",
      "resource": {
        "resourceType": "PractitionerRole",
        "id": "ea3c2f44-2a85-454f-8b29-28b0ffbd7b72",
        "meta": {
          "profile": [
            "http://hl7.eu/fhir/base/StructureDefinition/practitionerRole-eu"
          ]
        },
        "text": {
          "status": "generated",
          "div": "<div xmlns=\"http://www.w3.org/1999/xhtml\">Provider Role Id: ea3c2f44-2a85-454f-8b29-28b0ffbd7b72</div>"
        },
        "organization": {
          "reference": "urn:uuid:35380023-da5b-463f-8eb4-4188477bba31"
        }
      }
    },
    {
      "fullUrl": "urn:uuid:35380023-da5b-463f-8eb4-4188477bba31",
      "resource": {
        "resourceType": "Organization",
        "id": "35380023-da5b-463f-8eb4-4188477bba31",
        "meta": {
          "profile": [
            "http://hl7.eu/fhir/base/StructureDefinition/organization-eu"
          ]
        },
        "identifier": [
          {
            "assigner": {
              "display": "HL7 Europe"
            },
            "system": "urn:oid:2.16.840.1.113883.2.51.999",
            "value": "8fe169ad-ab31-42ed-8945-6d1b6fb34fb4"
          }
        ],
        "address": [
          {
            "city": "Oslo",
            "postalCode": "0155",
            "country": "Norway"
          }
        ],
        "text": {
          "status": "generated",
          "div": "<div xmlns=\"http://www.w3.org/1999/xhtml\">Provider Organization: Oslo universitetssykehus (Ullevål)</div>"
        },
        "name": "Oslo universitetssykehus (Ullevål)"
      }
    },
    {
      "fullUrl": "urn:uuid:9972d7a7-0aef-4f7c-9f1e-bae16d27f61d",
      "resource": {
        "resourceType": "Specimen",
        "id": "9972d7a7-0aef-4f7c-9f1e-bae16d27f61d",
        "meta": {
          "profile": [
            "http://hl7.eu/fhir/laboratory/StructureDefinition/Specimen-eu-lab"
          ]
        },
        "collection": {
          "collectedDateTime": "2020-11-07"
        },
        "text": {
          "status": "generated",
          "div": "<div xmlns=\"http://www.w3.org/1999/xhtml\"><table class=\"hl7__eu__lab__report\"><tr><th>Specimen</th><th>Collection Date</th></tr><tr><td>Whole blood specimen (specimen)</td><td><span class=\"nb\">07-Nov-2020</span></td></tr></table></div>"
        },
        "type": {
          "coding": [
            {
              "code": "258580003",
              "system": "http://snomed.info/sct",
              "display": "Whole blood specimen (specimen)"
            }
          ]
        }
      }
    },
    {
      "fullUrl": "urn:uuid:55134d40-581b-4c1d-b29c-475310273925",
      "resource": {
        "resourceType": "Specimen",
        "id": "55134d40-581b-4c1d-b29c-475310273925",
        "meta": {
          "profile": [
            "http://hl7.eu/fhir/laboratory/StructureDefinition/Specimen-eu-lab"
          ]
        },
        "collection": {
          "collectedDateTime": "2020-11-07"
        },
        "text": {
          "status": "generated",
          "div": "<div xmlns=\"http://www.w3.org/1999/xhtml\"><table class=\"hl7__eu__lab__report\"><tr><th>Specimen</th><th>Collection Date</th></tr><tr><td>Acellular blood (serum or plasma) specimen</td><td><span class=\"nb\">07-Nov-2020</span></td></tr></table></div>"
        },
        "type": {
          "coding": [
            {
              "code": "122592007",
              "system": "http://snomed.info/sct",
              "display": "Acellular blood (serum or plasma) specimen"
            }
          ]
        }
      }
    },
    {
      "fullUrl": "urn:uuid:4cab4b6b-0ff2-4c73-b654-16b1cc8201af",
      "resource": {
        "resourceType": "Specimen",
        "id": "4cab4b6b-0ff2-4c73-b654-16b1cc8201af",
        "meta": {
          "profile": [
            "http://hl7.eu/fhir/laboratory/StructureDefinition/Specimen-eu-lab"
          ]
        },
        "collection": {
          "collectedDateTime": "2020-11-07"
        },
        "text": {
          "status": "generated",
          "div": "<div xmlns=\"http://www.w3.org/1999/xhtml\"><table class=\"hl7__eu__lab__report\"><tr><th>Specimen</th><th>Collection Date</th></tr><tr><td>Serum specimen</td><td><span class=\"nb\">07-Nov-2020</span></td></tr></table></div>"
        },
        "type": {
          "coding": [
            {
              "code": "119364003",
              "system": "http://snomed.info/sct",
              "display": "Serum specimen"
            }
          ]
        }
      }
    },
    {
      "fullUrl": "urn:uuid:d33e3731-d8c6-4eeb-9e11-dabb3b56e1f5",
      "resource": {
        "resourceType": "Observation",
        "id": "d33e3731-d8c6-4eeb-9e11-dabb3b56e1f5",
        "meta": {
          "profile": [
            "http://hl7.eu/fhir/laboratory/StructureDefinition/Observation-resultslab-eu-lab"
          ]
        },
        "performer": [
          {
            "display": "The Central European Lab"
          }
        ],
        "category": [
          {
            "coding": [
              {
                "system": "http://terminology.hl7.org/CodeSystem/observation-category",
                "code": "laboratory"
              }
            ]
          }
        ],
        "code": {
          "coding": [
            {
              "code": "2339-0",
              "system": "http://loinc.org",
              "display": "Glucose [Mass/volume] in Blood"
            }
          ],
          "text": "Glucose [Mass/volume] in Blood"
        },
        "valueQuantity": {
          "system": "http://unitsofmeasure.org",
          "value": 83.7,
          "unit": "mg/dL",
          "code": "mg/dL"
        },
        "referenceRange": [
          {
            "low": {
              "value": 70,
              "code": "mg/dL",
              "system": "http://unitsofmeasure.org"
            }
          },
          {
            "high": {
              "value": 140,
              "code": "mg/dL",
              "system": "http://unitsofmeasure.org"
            }
          }
        ],
        "text": {
          "status": "generated",
          "div": "<div xmlns=\"http://www.w3.org/1999/xhtml\"><table class=\"hl7__eu__lab__report\"><tr><th>Test</th><th>07-Nov-2020</th><th>Reference&#xA0;Range</th><th>Unit</th></tr><tr><td>Glucose [Mass/volume] in Blood</td><td>83.7</td><td>70 - 140</td><td></td><td>mg/dL</td></tr></table></div>"
        },
        "status": "final",
        "subject": {
          "reference": "urn:uuid:9541963f-2685-411b-8d40-ebd2131b879a",
          "display": "Helene Andresen"
        },
        "effectiveDateTime": "2020-11-07T22:53:36Z",
        "specimen": {
          "reference": "urn:uuid:9972d7a7-0aef-4f7c-9f1e-bae16d27f61d"
        }
      }
    },
    {
      "fullUrl": "urn:uuid:50cf9614-fc59-470e-8566-4bddb42d6c04",
      "resource": {
        "resourceType": "Observation",
        "id": "50cf9614-fc59-470e-8566-4bddb42d6c04",
        "meta": {
          "profile": [
            "http://hl7.eu/fhir/laboratory/StructureDefinition/Observation-resultslab-eu-lab"
          ]
        },
        "performer": [
          {
            "display": "The Central European Lab"
          }
        ],
        "category": [
          {
            "coding": [
              {
                "system": "http://terminology.hl7.org/CodeSystem/observation-category",
                "code": "laboratory"
              }
            ]
          }
        ],
        "code": {
          "coding": [
            {
              "code": "6299-2",
              "system": "http://loinc.org",
              "display": "Urea nitrogen [Mass/volume] in Blood"
            }
          ],
          "text": "Urea nitrogen [Mass/volume] in Blood"
        },
        "valueQuantity": {
          "system": "http://unitsofmeasure.org",
          "value": 12.8,
          "unit": "mg/dL",
          "code": "mg/dL"
        },
        "referenceRange": [
          {
            "low": {
              "value": 7,
              "code": "mg/dL",
              "system": "http://unitsofmeasure.org"
            }
          },
          {
            "high": {
              "value": 25,
              "code": "mg/dL",
              "system": "http://unitsofmeasure.org"
            }
          }
        ],
        "text": {
          "status": "generated",
          "div": "<div xmlns=\"http://www.w3.org/1999/xhtml\"><table class=\"hl7__eu__lab__report\"><tr><th>Test</th><th>07-Nov-2020</th><th>Reference&#xA0;Range</th><th>Unit</th></tr><tr><td>Urea nitrogen [Mass/volume] in Blood</td><td>12.8</td><td>7 - 25</td><td></td><td>mg/dL</td></tr></table></div>"
        },
        "status": "final",
        "subject": {
          "reference": "urn:uuid:9541963f-2685-411b-8d40-ebd2131b879a",
          "display": "Helene Andresen"
        },
        "effectiveDateTime": "2020-11-07T22:53:36Z",
        "specimen": {
          "reference": "urn:uuid:9972d7a7-0aef-4f7c-9f1e-bae16d27f61d"
        }
      }
    },
    {
      "fullUrl": "urn:uuid:093dcaf0-51c9-4774-ab67-afba6a7157c9",
      "resource": {
        "resourceType": "Observation",
        "id": "093dcaf0-51c9-4774-ab67-afba6a7157c9",
        "meta": {
          "profile": [
            "http://hl7.eu/fhir/laboratory/StructureDefinition/Observation-resultslab-eu-lab"
          ]
        },
        "performer": [
          {
            "display": "The Central European Lab"
          }
        ],
        "category": [
          {
            "coding": [
              {
                "system": "http://terminology.hl7.org/CodeSystem/observation-category",
                "code": "laboratory"
              }
            ]
          }
        ],
        "code": {
          "coding": [
            {
              "code": "38483-4",
              "system": "http://loinc.org",
              "display": "Creatinine [Mass/volume] in Blood"
            }
          ],
          "text": "Creatinine [Mass/volume] in Blood"
        },
        "valueQuantity": {
          "system": "http://unitsofmeasure.org",
          "value": 2.9,
          "unit": "mg/dL",
          "code": "mg/dL"
        },
        "referenceRange": [
          {
            "low": {
              "value": 0.6,
              "code": "mg/dL",
              "system": "http://unitsofmeasure.org"
            }
          },
          {
            "high": {
              "value": 1.1,
              "code": "mg/dL",
              "system": "http://unitsofmeasure.org"
            }
          }
        ],
        "interpretation": [
          {
            "coding": [
              {
                "code": "H",
                "system": "http://terminology.hl7.org/CodeSystem/v3-ObservationInterpretation",
                "display": "High"
              }
            ]
          }
        ],
        "text": {
          "status": "generated",
          "div": "<div xmlns=\"http://www.w3.org/1999/xhtml\"><table class=\"hl7__eu__lab__report\"><tr><th>Test</th><th>07-Nov-2020</th><th>Reference&#xA0;Range</th><th>Unit</th></tr><tr><td>Creatinine [Mass/volume] in Blood</td><td>2.9</td><td>0.6 - 1.1</td><td>H</td><td>mg/dL</td></tr></table></div>"
        },
        "status": "final",
        "subject": {
          "reference": "urn:uuid:9541963f-2685-411b-8d40-ebd2131b879a",
          "display": "Helene Andresen"
        },
        "effectiveDateTime": "2020-11-07T22:53:36Z",
        "specimen": {
          "reference": "urn:uuid:9972d7a7-0aef-4f7c-9f1e-bae16d27f61d"
        }
      }
    },
    {
      "fullUrl": "urn:uuid:1e2c6800-240b-4462-9f2b-1cd404639a1f",
      "resource": {
        "resourceType": "Observation",
        "id": "1e2c6800-240b-4462-9f2b-1cd404639a1f",
        "meta": {
          "profile": [
            "http://hl7.eu/fhir/laboratory/StructureDefinition/Observation-resultslab-eu-lab"
          ]
        },
        "performer": [
          {
            "display": "The Central European Lab"
          }
        ],
        "category": [
          {
            "coding": [
              {
                "system": "http://terminology.hl7.org/CodeSystem/observation-category",
                "code": "laboratory"
              }
            ]
          }
        ],
        "code": {
          "coding": [
            {
              "code": "49765-1",
              "system": "http://loinc.org",
              "display": "Calcium [Mass/volume] in Blood"
            }
          ],
          "text": "Calcium [Mass/volume] in Blood"
        },
        "valueQuantity": {
          "system": "http://unitsofmeasure.org",
          "value": 9.2,
          "unit": "mg/dL",
          "code": "mg/dL"
        },
        "referenceRange": [
          {
            "low": {
              "value": 8.6,
              "code": "mg/dL",
              "system": "http://unitsofmeasure.org"
            }
          },
          {
            "high": {
              "value": 10.4,
              "code": "mg/dL",
              "system": "http://unitsofmeasure.org"
            }
          }
        ],
        "text": {
          "status": "generated",
          "div": "<div xmlns=\"http://www.w3.org/1999/xhtml\"><table class=\"hl7__eu__lab__report\"><tr><th>Test</th><th>07-Nov-2020</th><th>Reference&#xA0;Range</th><th>Unit</th></tr><tr><td>Calcium [Mass/volume] in Blood</td><td>9.2</td><td>8.6 - 10.4</td><td></td><td>mg/dL</td></tr></table></div>"
        },
        "status": "final",
        "subject": {
          "reference": "urn:uuid:9541963f-2685-411b-8d40-ebd2131b879a",
          "display": "Helene Andresen"
        },
        "effectiveDateTime": "2020-11-07T22:53:36Z",
        "specimen": {
          "reference": "urn:uuid:9972d7a7-0aef-4f7c-9f1e-bae16d27f61d"
        }
      }
    },
    {
      "fullUrl": "urn:uuid:24426a6b-e3e0-4134-bc34-140f883f4540",
      "resource": {
        "resourceType": "Observation",
        "id": "24426a6b-e3e0-4134-bc34-140f883f4540",
        "meta": {
          "profile": [
            "http://hl7.eu/fhir/laboratory/StructureDefinition/Observation-resultslab-eu-lab"
          ]
        },
        "performer": [
          {
            "display": "The Central European Lab"
          }
        ],
        "category": [
          {
            "coding": [
              {
                "system": "http://terminology.hl7.org/CodeSystem/observation-category",
                "code": "laboratory"
              }
            ]
          }
        ],
        "code": {
          "coding": [
            {
              "code": "2947-0",
              "system": "http://loinc.org",
              "display": "Sodium [Moles/volume] in Blood"
            }
          ],
          "text": "Sodium [Moles/volume] in Blood"
        },
        "valueQuantity": {
          "system": "http://unitsofmeasure.org",
          "value": 138.8,
          "unit": "mmol/L",
          "code": "mmol/L"
        },
        "referenceRange": [
          {
            "low": {
              "value": 135,
              "code": "mmol/L",
              "system": "http://unitsofmeasure.org"
            }
          },
          {
            "high": {
              "value": 145,
              "code": "mmol/L",
              "system": "http://unitsofmeasure.org"
            }
          }
        ],
        "text": {
          "status": "generated",
          "div": "<div xmlns=\"http://www.w3.org/1999/xhtml\"><table class=\"hl7__eu__lab__report\"><tr><th>Test</th><th>07-Nov-2020</th><th>Reference&#xA0;Range</th><th>Unit</th></tr><tr><td>Sodium [Moles/volume] in Blood</td><td>138.8</td><td>135 - 145</td><td></td><td>mmol/L</td></tr></table></div>"
        },
        "status": "final",
        "subject": {
          "reference": "urn:uuid:9541963f-2685-411b-8d40-ebd2131b879a",
          "display": "Helene Andresen"
        },
        "effectiveDateTime": "2020-11-07T22:53:36Z",
        "specimen": {
          "reference": "urn:uuid:9972d7a7-0aef-4f7c-9f1e-bae16d27f61d"
        }
      }
    },
    {
      "fullUrl": "urn:uuid:6c20610e-2750-4eab-a704-cfb7dea57b3a",
      "resource": {
        "resourceType": "Observation",
        "id": "6c20610e-2750-4eab-a704-cfb7dea57b3a",
        "meta": {
          "profile": [
            "http://hl7.eu/fhir/laboratory/StructureDefinition/Observation-resultslab-eu-lab"
          ]
        },
        "performer": [
          {
            "display": "The Central European Lab"
          }
        ],
        "category": [
          {
            "coding": [
              {
                "system": "http://terminology.hl7.org/CodeSystem/observation-category",
                "code": "laboratory"
              }
            ]
          }
        ],
        "code": {
          "coding": [
            {
              "code": "6298-4",
              "system": "http://loinc.org",
              "display": "Potassium [Moles/volume] in Blood"
            }
          ],
          "text": "Potassium [Moles/volume] in Blood"
        },
        "valueQuantity": {
          "system": "http://unitsofmeasure.org",
          "value": 5,
          "unit": "mmol/L",
          "code": "mmol/L"
        },
        "referenceRange": [
          {
            "low": {
              "value": 3.5,
              "code": "mmol/L",
              "system": "http://unitsofmeasure.org"
            }
          },
          {
            "high": {
              "value": 5.3,
              "code": "mmol/L",
              "system": "http://unitsofmeasure.org"
            }
          }
        ],
        "text": {
          "status": "generated",
          "div": "<div xmlns=\"http://www.w3.org/1999/xhtml\"><table class=\"hl7__eu__lab__report\"><tr><th>Test</th><th>07-Nov-2020</th><th>Reference&#xA0;Range</th><th>Unit</th></tr><tr><td>Potassium [Moles/volume] in Blood</td><td>5.0</td><td>3.5 - 5.3</td><td></td><td>mmol/L</td></tr></table></div>"
        },
        "status": "final",
        "subject": {
          "reference": "urn:uuid:9541963f-2685-411b-8d40-ebd2131b879a",
          "display": "Helene Andresen"
        },
        "effectiveDateTime": "2020-11-07T22:53:36Z",
        "specimen": {
          "reference": "urn:uuid:9972d7a7-0aef-4f7c-9f1e-bae16d27f61d"
        }
      }
    },
    {
      "fullUrl": "urn:uuid:e17a7c45-28fa-43fe-9b8d-b4d5a675b6f2",
      "resource": {
        "resourceType": "Observation",
        "id": "e17a7c45-28fa-43fe-9b8d-b4d5a675b6f2",
        "meta": {
          "profile": [
            "http://hl7.eu/fhir/laboratory/StructureDefinition/Observation-resultslab-eu-lab"
          ]
        },
        "performer": [
          {
            "display": "The Central European Lab"
          }
        ],
        "category": [
          {
            "coding": [
              {
                "system": "http://terminology.hl7.org/CodeSystem/observation-category",
                "code": "laboratory"
              }
            ]
          }
        ],
        "code": {
          "coding": [
            {
              "code": "2069-3",
              "system": "http://loinc.org",
              "display": "Chloride [Moles/volume] in Blood"
            }
          ],
          "text": "Chloride [Moles/volume] in Blood"
        },
        "valueQuantity": {
          "system": "http://unitsofmeasure.org",
          "value": 104.3,
          "unit": "mmol/L",
          "code": "mmol/L"
        },
        "referenceRange": [
          {
            "low": {
              "value": 98,
              "code": "mmol/L",
              "system": "http://unitsofmeasure.org"
            }
          },
          {
            "high": {
              "value": 108,
              "code": "mmol/L",
              "system": "http://unitsofmeasure.org"
            }
          }
        ],
        "text": {
          "status": "generated",
          "div": "<div xmlns=\"http://www.w3.org/1999/xhtml\"><table class=\"hl7__eu__lab__report\"><tr><th>Test</th><th>07-Nov-2020</th><th>Reference&#xA0;Range</th><th>Unit</th></tr><tr><td>Chloride [Moles/volume] in Blood</td><td>104.3</td><td>98 - 108</td><td></td><td>mmol/L</td></tr></table></div>"
        },
        "status": "final",
        "subject": {
          "reference": "urn:uuid:9541963f-2685-411b-8d40-ebd2131b879a",
          "display": "Helene Andresen"
        },
        "effectiveDateTime": "2020-11-07T22:53:36Z",
        "specimen": {
          "reference": "urn:uuid:9972d7a7-0aef-4f7c-9f1e-bae16d27f61d"
        }
      }
    },
    {
      "fullUrl": "urn:uuid:b71a6f38-3426-48c5-93aa-44eeda10f4da",
      "resource": {
        "resourceType": "Observation",
        "id": "b71a6f38-3426-48c5-93aa-44eeda10f4da",
        "meta": {
          "profile": [
            "http://hl7.eu/fhir/laboratory/StructureDefinition/Observation-resultslab-eu-lab"
          ]
        },
        "performer": [
          {
            "display": "The Central European Lab"
          }
        ],
        "category": [
          {
            "coding": [
              {
                "system": "http://terminology.hl7.org/CodeSystem/observation-category",
                "code": "laboratory"
              }
            ]
          }
        ],
        "code": {
          "coding": [
            {
              "code": "20565-8",
              "system": "http://loinc.org",
              "display": "Carbon dioxide, total [Moles/volume] in Blood"
            }
          ],
          "text": "Carbon dioxide, total [Moles/volume] in Blood"
        },
        "valueQuantity": {
          "system": "http://unitsofmeasure.org",
          "value": 24.7,
          "unit": "mmol/L",
          "code": "mmol/L"
        },
        "referenceRange": [
          {
            "low": {
              "value": 22,
              "code": "mmol/L",
              "system": "http://unitsofmeasure.org"
            }
          },
          {
            "high": {
              "value": 32,
              "code": "mmol/L",
              "system": "http://unitsofmeasure.org"
            }
          }
        ],
        "text": {
          "status": "generated",
          "div": "<div xmlns=\"http://www.w3.org/1999/xhtml\"><table class=\"hl7__eu__lab__report\"><tr><th>Test</th><th>07-Nov-2020</th><th>Reference&#xA0;Range</th><th>Unit</th></tr><tr><td>Carbon dioxide, total [Moles/volume] in Blood</td><td>24.7</td><td>22 - 32</td><td></td><td>mmol/L</td></tr></table></div>"
        },
        "status": "final",
        "subject": {
          "reference": "urn:uuid:9541963f-2685-411b-8d40-ebd2131b879a",
          "display": "Helene Andresen"
        },
        "effectiveDateTime": "2020-11-07T22:53:36Z",
        "specimen": {
          "reference": "urn:uuid:9972d7a7-0aef-4f7c-9f1e-bae16d27f61d"
        }
      }
    },
    {
      "fullUrl": "urn:uuid:9fef9b26-665d-4dc5-9df7-6b23b56018c5",
      "resource": {
        "resourceType": "Observation",
        "id": "9fef9b26-665d-4dc5-9df7-6b23b56018c5",
        "meta": {
          "profile": [
            "http://hl7.eu/fhir/laboratory/StructureDefinition/Observation-resultslab-eu-lab"
          ]
        },
        "performer": [
          {
            "display": "The Central European Lab"
          }
        ],
        "category": [
          {
            "coding": [
              {
                "system": "http://terminology.hl7.org/CodeSystem/observation-category",
                "code": "laboratory"
              }
            ]
          }
        ],
        "code": {
          "coding": [
            {
              "code": "2885-2",
              "system": "http://loinc.org",
              "display": "Protein [Mass/volume] in Serum or Plasma"
            }
          ],
          "text": "Protein [Mass/volume] in Serum or Plasma"
        },
        "valueQuantity": {
          "system": "http://unitsofmeasure.org",
          "value": 7.8,
          "unit": "g/dL",
          "code": "g/dL"
        },
        "referenceRange": [
          {
            "low": {
              "value": 6.6,
              "code": "g/dL",
              "system": "http://unitsofmeasure.org"
            }
          },
          {
            "high": {
              "value": 8.3,
              "code": "g/dL",
              "system": "http://unitsofmeasure.org"
            }
          }
        ],
        "text": {
          "status": "generated",
          "div": "<div xmlns=\"http://www.w3.org/1999/xhtml\"><table class=\"hl7__eu__lab__report\"><tr><th>Test</th><th>07-Nov-2020</th><th>Reference&#xA0;Range</th><th>Unit</th></tr><tr><td>Protein [Mass/volume] in Serum or Plasma</td><td>7.8</td><td>6.6 - 8.3</td><td></td><td>g/dL</td></tr></table></div>"
        },
        "status": "final",
        "subject": {
          "reference": "urn:uuid:9541963f-2685-411b-8d40-ebd2131b879a",
          "display": "Helene Andresen"
        },
        "effectiveDateTime": "2020-11-07T22:53:36Z",
        "specimen": {
          "reference": "urn:uuid:55134d40-581b-4c1d-b29c-475310273925"
        }
      }
    },
    {
      "fullUrl": "urn:uuid:b8dd8b57-6be2-40e7-bf13-739f3ddd0c7b",
      "resource": {
        "resourceType": "Observation",
        "id": "b8dd8b57-6be2-40e7-bf13-739f3ddd0c7b",
        "meta": {
          "profile": [
            "http://hl7.eu/fhir/laboratory/StructureDefinition/Observation-resultslab-eu-lab"
          ]
        },
        "performer": [
          {
            "display": "The Central European Lab"
          }
        ],
        "category": [
          {
            "coding": [
              {
                "system": "http://terminology.hl7.org/CodeSystem/observation-category",
                "code": "laboratory"
              }
            ]
          }
        ],
        "code": {
          "coding": [
            {
              "code": "1751-7",
              "system": "http://loinc.org",
              "display": "Albumin [Mass/volume] in Serum or Plasma"
            }
          ],
          "text": "Albumin [Mass/volume] in Serum or Plasma"
        },
        "valueQuantity": {
          "system": "http://unitsofmeasure.org",
          "value": 4.9,
          "unit": "g/dL",
          "code": "g/dL"
        },
        "referenceRange": [
          {
            "low": {
              "value": 3.5,
              "code": "g/dL",
              "system": "http://unitsofmeasure.org"
            }
          },
          {
            "high": {
              "value": 5.5,
              "code": "g/dL",
              "system": "http://unitsofmeasure.org"
            }
          }
        ],
        "text": {
          "status": "generated",
          "div": "<div xmlns=\"http://www.w3.org/1999/xhtml\"><table class=\"hl7__eu__lab__report\"><tr><th>Test</th><th>07-Nov-2020</th><th>Reference&#xA0;Range</th><th>Unit</th></tr><tr><td>Albumin [Mass/volume] in Serum or Plasma</td><td>4.9</td><td>3.5 - 5.5</td><td></td><td>g/dL</td></tr></table></div>"
        },
        "status": "final",
        "subject": {
          "reference": "urn:uuid:9541963f-2685-411b-8d40-ebd2131b879a",
          "display": "Helene Andresen"
        },
        "effectiveDateTime": "2020-11-07T22:53:36Z",
        "specimen": {
          "reference": "urn:uuid:55134d40-581b-4c1d-b29c-475310273925"
        }
      }
    },
    {
      "fullUrl": "urn:uuid:bbdd819c-5814-411e-a38a-ec2856bd10f3",
      "resource": {
        "resourceType": "Observation",
        "id": "bbdd819c-5814-411e-a38a-ec2856bd10f3",
        "meta": {
          "profile": [
            "http://hl7.eu/fhir/laboratory/StructureDefinition/Observation-resultslab-eu-lab"
          ]
        },
        "performer": [
          {
            "display": "The Central European Lab"
          }
        ],
        "category": [
          {
            "coding": [
              {
                "system": "http://terminology.hl7.org/CodeSystem/observation-category",
                "code": "laboratory"
              }
            ]
          }
        ],
        "code": {
          "coding": [
            {
              "code": "10834-0",
              "system": "http://loinc.org",
              "display": "Globulin [Mass/volume] in Serum by calculation"
            }
          ],
          "text": "Globulin [Mass/volume] in Serum by calculation"
        },
        "valueQuantity": {
          "system": "http://unitsofmeasure.org",
          "value": 2,
          "unit": "g/L",
          "code": "g/L"
        },
        "referenceRange": [
          {
            "low": {
              "value": 2.2,
              "code": "g/L",
              "system": "http://unitsofmeasure.org"
            }
          },
          {
            "high": {
              "value": 3.7,
              "code": "g/L",
              "system": "http://unitsofmeasure.org"
            }
          }
        ],
        "interpretation": [
          {
            "coding": [
              {
                "code": "L",
                "system": "http://terminology.hl7.org/CodeSystem/v3-ObservationInterpretation",
                "display": "Low"
              }
            ]
          }
        ],
        "text": {
          "status": "generated",
          "div": "<div xmlns=\"http://www.w3.org/1999/xhtml\"><table class=\"hl7__eu__lab__report\"><tr><th>Test</th><th>07-Nov-2020</th><th>Reference&#xA0;Range</th><th>Unit</th></tr><tr><td>Globulin [Mass/volume] in Serum by calculation</td><td>2.0</td><td>2.2 - 3.7</td><td>L</td><td>g/L</td></tr></table></div>"
        },
        "status": "final",
        "subject": {
          "reference": "urn:uuid:9541963f-2685-411b-8d40-ebd2131b879a",
          "display": "Helene Andresen"
        },
        "effectiveDateTime": "2020-11-07T22:53:36Z",
        "specimen": {
          "reference": "urn:uuid:4cab4b6b-0ff2-4c73-b654-16b1cc8201af"
        }
      }
    },
    {
      "fullUrl": "urn:uuid:34c690c5-3ffd-416d-a773-fd11476f93e9",
      "resource": {
        "resourceType": "Observation",
        "id": "34c690c5-3ffd-416d-a773-fd11476f93e9",
        "meta": {
          "profile": [
            "http://hl7.eu/fhir/laboratory/StructureDefinition/Observation-resultslab-eu-lab"
          ]
        },
        "performer": [
          {
            "display": "The Central European Lab"
          }
        ],
        "category": [
          {
            "coding": [
              {
                "system": "http://terminology.hl7.org/CodeSystem/observation-category",
                "code": "laboratory"
              }
            ]
          }
        ],
        "code": {
          "coding": [
            {
              "code": "1975-2",
              "system": "http://loinc.org",
              "display": "Bilirubin.total [Mass/volume] in Serum or Plasma"
            }
          ],
          "text": "Bilirubin.total [Mass/volume] in Serum or Plasma"
        },
        "valueQuantity": {
          "system": "http://unitsofmeasure.org",
          "value": 1.1,
          "unit": "mg/dL",
          "code": "mg/dL"
        },
        "referenceRange": [
          {
            "low": {
              "value": 0.3,
              "code": "mg/dL",
              "system": "http://unitsofmeasure.org"
            }
          },
          {
            "high": {
              "value": 1.2,
              "code": "mg/dL",
              "system": "http://unitsofmeasure.org"
            }
          }
        ],
        "text": {
          "status": "generated",
          "div": "<div xmlns=\"http://www.w3.org/1999/xhtml\"><table class=\"hl7__eu__lab__report\"><tr><th>Test</th><th>07-Nov-2020</th><th>Reference&#xA0;Range</th><th>Unit</th></tr><tr><td>Bilirubin.total [Mass/volume] in Serum or Plasma</td><td>1.1</td><td>0.3 - 1.2</td><td></td><td>mg/dL</td></tr></table></div>"
        },
        "status": "final",
        "subject": {
          "reference": "urn:uuid:9541963f-2685-411b-8d40-ebd2131b879a",
          "display": "Helene Andresen"
        },
        "effectiveDateTime": "2020-11-07T22:53:36Z",
        "specimen": {
          "reference": "urn:uuid:55134d40-581b-4c1d-b29c-475310273925"
        }
      }
    },
    {
      "fullUrl": "urn:uuid:24f14e91-cc06-4f60-94d7-a0cdf6705086",
      "resource": {
        "resourceType": "Observation",
        "id": "24f14e91-cc06-4f60-94d7-a0cdf6705086",
        "meta": {
          "profile": [
            "http://hl7.eu/fhir/laboratory/StructureDefinition/Observation-resultslab-eu-lab"
          ]
        },
        "performer": [
          {
            "display": "The Central European Lab"
          }
        ],
        "category": [
          {
            "coding": [
              {
                "system": "http://terminology.hl7.org/CodeSystem/observation-category",
                "code": "laboratory"
              }
            ]
          }
        ],
        "code": {
          "coding": [
            {
              "code": "6768-6",
              "system": "http://loinc.org",
              "display": "Alkaline phosphatase [Enzymatic activity/volume] in Serum or Plasma"
            }
          ],
          "text": "Alkaline phosphatase [Enzymatic activity/volume] in Serum or Plasma"
        },
        "valueQuantity": {
          "system": "http://unitsofmeasure.org",
          "value": 78.5,
          "unit": "U/L",
          "code": "U/L"
        },
        "referenceRange": [
          {
            "low": {
              "value": 40,
              "code": "U/L",
              "system": "http://unitsofmeasure.org"
            }
          },
          {
            "high": {
              "value": 130,
              "code": "U/L",
              "system": "http://unitsofmeasure.org"
            }
          }
        ],
        "text": {
          "status": "generated",
          "div": "<div xmlns=\"http://www.w3.org/1999/xhtml\"><table class=\"hl7__eu__lab__report\"><tr><th>Test</th><th>07-Nov-2020</th><th>Reference&#xA0;Range</th><th>Unit</th></tr><tr><td>Alkaline phosphatase [Enzymatic activity/volume] in Serum or Plasma</td><td>78.5</td><td>40 - 130</td><td></td><td>U/L</td></tr></table></div>"
        },
        "status": "final",
        "subject": {
          "reference": "urn:uuid:9541963f-2685-411b-8d40-ebd2131b879a",
          "display": "Helene Andresen"
        },
        "effectiveDateTime": "2020-11-07T22:53:36Z",
        "specimen": {
          "reference": "urn:uuid:55134d40-581b-4c1d-b29c-475310273925"
        }
      }
    },
    {
      "fullUrl": "urn:uuid:00b53a40-8c73-425b-b6bc-20f597e4d515",
      "resource": {
        "resourceType": "Observation",
        "id": "00b53a40-8c73-425b-b6bc-20f597e4d515",
        "meta": {
          "profile": [
            "http://hl7.eu/fhir/laboratory/StructureDefinition/Observation-resultslab-eu-lab"
          ]
        },
        "performer": [
          {
            "display": "The Central European Lab"
          }
        ],
        "category": [
          {
            "coding": [
              {
                "system": "http://terminology.hl7.org/CodeSystem/observation-category",
                "code": "laboratory"
              }
            ]
          }
        ],
        "code": {
          "coding": [
            {
              "code": "1742-6",
              "system": "http://loinc.org",
              "display": "Alanine aminotransferase [Enzymatic activity/volume] in Serum or Plasma"
            }
          ],
          "text": "Alanine aminotransferase [Enzymatic activity/volume] in Serum or Plasma"
        },
        "valueQuantity": {
          "system": "http://unitsofmeasure.org",
          "value": 54.9,
          "unit": "U/L",
          "code": "U/L"
        },
        "referenceRange": [
          {
            "low": {
              "value": 7,
              "code": "U/L",
              "system": "http://unitsofmeasure.org"
            }
          },
          {
            "high": {
              "value": 55,
              "code": "U/L",
              "system": "http://unitsofmeasure.org"
            }
          }
        ],
        "text": {
          "status": "generated",
          "div": "<div xmlns=\"http://www.w3.org/1999/xhtml\"><table class=\"hl7__eu__lab__report\"><tr><th>Test</th><th>07-Nov-2020</th><th>Reference&#xA0;Range</th><th>Unit</th></tr><tr><td>Alanine aminotransferase [Enzymatic activity/volume] in Serum or Plasma</td><td>54.9</td><td>7 - 55</td><td></td><td>U/L</td></tr></table></div>"
        },
        "status": "final",
        "subject": {
          "reference": "urn:uuid:9541963f-2685-411b-8d40-ebd2131b879a",
          "display": "Helene Andresen"
        },
        "effectiveDateTime": "2020-11-07T22:53:36Z",
        "specimen": {
          "reference": "urn:uuid:55134d40-581b-4c1d-b29c-475310273925"
        }
      }
    },
    {
      "fullUrl": "urn:uuid:d17c4ae1-eaf9-474e-aad6-2284ee4b14a6",
      "resource": {
        "resourceType": "Observation",
        "id": "d17c4ae1-eaf9-474e-aad6-2284ee4b14a6",
        "meta": {
          "profile": [
            "http://hl7.eu/fhir/laboratory/StructureDefinition/Observation-resultslab-eu-lab"
          ]
        },
        "performer": [
          {
            "display": "The Central European Lab"
          }
        ],
        "category": [
          {
            "coding": [
              {
                "system": "http://terminology.hl7.org/CodeSystem/observation-category",
                "code": "laboratory"
              }
            ]
          }
        ],
        "code": {
          "coding": [
            {
              "code": "1920-8",
              "system": "http://loinc.org",
              "display": "Aspartate aminotransferase [Enzymatic activity/volume] in Serum or Plasma"
            }
          ],
          "text": "Aspartate aminotransferase [Enzymatic activity/volume] in Serum or Plasma"
        },
        "valueQuantity": {
          "system": "http://unitsofmeasure.org",
          "value": 34.5,
          "unit": "U/L",
          "code": "U/L"
        },
        "referenceRange": [
          {
            "low": {
              "value": 10,
              "code": "U/L",
              "system": "http://unitsofmeasure.org"
            }
          },
          {
            "high": {
              "value": 40,
              "code": "U/L",
              "system": "http://unitsofmeasure.org"
            }
          }
        ],
        "text": {
          "status": "generated",
          "div": "<div xmlns=\"http://www.w3.org/1999/xhtml\"><table class=\"hl7__eu__lab__report\"><tr><th>Test</th><th>07-Nov-2020</th><th>Reference&#xA0;Range</th><th>Unit</th></tr><tr><td>Aspartate aminotransferase [Enzymatic activity/volume] in Serum or Plasma</td><td>34.5</td><td>10 - 40</td><td></td><td>U/L</td></tr></table></div>"
        },
        "status": "final",
        "subject": {
          "reference": "urn:uuid:9541963f-2685-411b-8d40-ebd2131b879a",
          "display": "Helene Andresen"
        },
        "effectiveDateTime": "2020-11-07T22:53:36Z",
        "specimen": {
          "reference": "urn:uuid:55134d40-581b-4c1d-b29c-475310273925"
        }
      }
    },
    {
      "fullUrl": "urn:uuid:4fbed843-3740-4799-981e-22de567e979f",
      "resource": {
        "resourceType": "Observation",
        "id": "4fbed843-3740-4799-981e-22de567e979f",
        "meta": {
          "profile": [
            "http://hl7.eu/fhir/laboratory/StructureDefinition/Observation-resultslab-eu-lab"
          ]
        },
        "performer": [
          {
            "display": "The Central European Lab"
          }
        ],
        "category": [
          {
            "coding": [
              {
                "system": "http://terminology.hl7.org/CodeSystem/observation-category",
                "code": "laboratory"
              }
            ]
          }
        ],
        "code": {
          "coding": [
            {
              "code": "2093-3",
              "system": "http://loinc.org",
              "display": "Cholesterol [Mass/volume] in Serum or Plasma"
            }
          ],
          "text": "Cholesterol [Mass/volume] in Serum or Plasma"
        },
        "valueQuantity": {
          "system": "http://unitsofmeasure.org",
          "value": 189.8,
          "unit": "mg/dL",
          "code": "mg/dL"
        },
        "referenceRange": [
          {
            "low": {
              "value": 125,
              "code": "mg/dL",
              "system": "http://unitsofmeasure.org"
            }
          },
          {
            "high": {
              "value": 200,
              "code": "mg/dL",
              "system": "http://unitsofmeasure.org"
            }
          }
        ],
        "text": {
          "status": "generated",
          "div": "<div xmlns=\"http://www.w3.org/1999/xhtml\"><table class=\"hl7__eu__lab__report\"><tr><th>Test</th><th>07-Nov-2020</th><th>Reference&#xA0;Range</th><th>Unit</th></tr><tr><td>Cholesterol [Mass/volume] in Serum or Plasma</td><td>189.8</td><td>125 - 200</td><td></td><td>mg/dL</td></tr></table></div>"
        },
        "status": "final",
        "subject": {
          "reference": "urn:uuid:9541963f-2685-411b-8d40-ebd2131b879a",
          "display": "Helene Andresen"
        },
        "effectiveDateTime": "2020-11-07T22:53:36Z",
        "specimen": {
          "reference": "urn:uuid:55134d40-581b-4c1d-b29c-475310273925"
        }
      }
    },
    {
      "fullUrl": "urn:uuid:308a56a5-5a3c-4142-9341-ba041ce3975d",
      "resource": {
        "resourceType": "Observation",
        "id": "308a56a5-5a3c-4142-9341-ba041ce3975d",
        "meta": {
          "profile": [
            "http://hl7.eu/fhir/laboratory/StructureDefinition/Observation-resultslab-eu-lab"
          ]
        },
        "performer": [
          {
            "display": "The Central European Lab"
          }
        ],
        "category": [
          {
            "coding": [
              {
                "system": "http://terminology.hl7.org/CodeSystem/observation-category",
                "code": "laboratory"
              }
            ]
          }
        ],
        "code": {
          "coding": [
            {
              "code": "2571-8",
              "system": "http://loinc.org",
              "display": "Triglyceride [Mass/volume] in Serum or Plasma"
            }
          ],
          "text": "Triglyceride [Mass/volume] in Serum or Plasma"
        },
        "valueQuantity": {
          "system": "http://unitsofmeasure.org",
          "value": 146.6,
          "unit": "mg/dL",
          "code": "mg/dL"
        },
        "referenceRange": [
          {
            "low": {
              "value": 10,
              "code": "mg/dL",
              "system": "http://unitsofmeasure.org"
            }
          },
          {
            "high": {
              "value": 175,
              "code": "mg/dL",
              "system": "http://unitsofmeasure.org"
            }
          }
        ],
        "text": {
          "status": "generated",
          "div": "<div xmlns=\"http://www.w3.org/1999/xhtml\"><table class=\"hl7__eu__lab__report\"><tr><th>Test</th><th>07-Nov-2020</th><th>Reference&#xA0;Range</th><th>Unit</th></tr><tr><td>Triglyceride [Mass/volume] in Serum or Plasma</td><td>146.6</td><td>10 - 175</td><td></td><td>mg/dL</td></tr></table></div>"
        },
        "status": "final",
        "subject": {
          "reference": "urn:uuid:9541963f-2685-411b-8d40-ebd2131b879a",
          "display": "Helene Andresen"
        },
        "effectiveDateTime": "2020-11-07T22:53:36Z",
        "specimen": {
          "reference": "urn:uuid:55134d40-581b-4c1d-b29c-475310273925"
        }
      }
    },
    {
      "fullUrl": "urn:uuid:f23b4fec-36b9-462b-84bf-b9812da558b3",
      "resource": {
        "resourceType": "Observation",
        "id": "f23b4fec-36b9-462b-84bf-b9812da558b3",
        "meta": {
          "profile": [
            "http://hl7.eu/fhir/laboratory/StructureDefinition/Observation-resultslab-eu-lab"
          ]
        },
        "performer": [
          {
            "display": "The Central European Lab"
          }
        ],
        "category": [
          {
            "coding": [
              {
                "system": "http://terminology.hl7.org/CodeSystem/observation-category",
                "code": "laboratory"
              }
            ]
          }
        ],
        "code": {
          "coding": [
            {
              "code": "18262-6",
              "system": "http://loinc.org",
              "display": "Cholesterol in LDL [Mass/volume] in Serum or Plasma by Direct assay"
            }
          ],
          "text": "Cholesterol in LDL [Mass/volume] in Serum or Plasma by Direct assay"
        },
        "valueQuantity": {
          "system": "http://unitsofmeasure.org",
          "value": 93.7,
          "unit": "mg/dL",
          "code": "mg/dL"
        },
        "referenceRange": [
          {
            "low": {
              "value": 0,
              "code": "mg/dL",
              "system": "http://unitsofmeasure.org"
            }
          },
          {
            "high": {
              "value": 130,
              "code": "mg/dL",
              "system": "http://unitsofmeasure.org"
            }
          }
        ],
        "text": {
          "status": "generated",
          "div": "<div xmlns=\"http://www.w3.org/1999/xhtml\"><table class=\"hl7__eu__lab__report\"><tr><th>Test</th><th>07-Nov-2020</th><th>Reference&#xA0;Range</th><th>Unit</th></tr><tr><td>Cholesterol in LDL [Mass/volume] in Serum or Plasma by Direct assay</td><td>93.7</td><td>0 - 130</td><td></td><td>mg/dL</td></tr></table></div>"
        },
        "status": "final",
        "subject": {
          "reference": "urn:uuid:9541963f-2685-411b-8d40-ebd2131b879a",
          "display": "Helene Andresen"
        },
        "effectiveDateTime": "2020-11-07T22:53:36Z",
        "specimen": {
          "reference": "urn:uuid:55134d40-581b-4c1d-b29c-475310273925"
        }
      }
    },
    {
      "fullUrl": "urn:uuid:5decf5bf-e0ab-43dc-8763-399df8062192",
      "resource": {
        "resourceType": "Observation",
        "id": "5decf5bf-e0ab-43dc-8763-399df8062192",
        "meta": {
          "profile": [
            "http://hl7.eu/fhir/laboratory/StructureDefinition/Observation-resultslab-eu-lab"
          ]
        },
        "performer": [
          {
            "display": "The Central European Lab"
          }
        ],
        "category": [
          {
            "coding": [
              {
                "system": "http://terminology.hl7.org/CodeSystem/observation-category",
                "code": "laboratory"
              }
            ]
          }
        ],
        "code": {
          "coding": [
            {
              "code": "2085-9",
              "system": "http://loinc.org",
              "display": "Cholesterol in HDL [Mass/volume] in Serum or Plasma"
            }
          ],
          "text": "Cholesterol in HDL [Mass/volume] in Serum or Plasma"
        },
        "valueQuantity": {
          "system": "http://unitsofmeasure.org",
          "value": 30.9,
          "unit": "mg/dL",
          "code": "mg/dL"
        },
        "referenceRange": [
          {
            "low": {
              "value": 50,
              "code": "mg/dL",
              "system": "http://unitsofmeasure.org"
            }
          },
          {
            "high": {
              "value": 100,
              "code": "mg/dL",
              "system": "http://unitsofmeasure.org"
            }
          }
        ],
        "interpretation": [
          {
            "coding": [
              {
                "code": "L",
                "system": "http://terminology.hl7.org/CodeSystem/v3-ObservationInterpretation",
                "display": "Low"
              }
            ]
          }
        ],
        "text": {
          "status": "generated",
          "div": "<div xmlns=\"http://www.w3.org/1999/xhtml\"><table class=\"hl7__eu__lab__report\"><tr><th>Test</th><th>07-Nov-2020</th><th>Reference&#xA0;Range</th><th>Unit</th></tr><tr><td>Cholesterol in HDL [Mass/volume] in Serum or Plasma</td><td>30.9</td><td>50 - 100</td><td>L</td><td>mg/dL</td></tr></table></div>"
        },
        "status": "final",
        "subject": {
          "reference": "urn:uuid:9541963f-2685-411b-8d40-ebd2131b879a",
          "display": "Helene Andresen"
        },
        "effectiveDateTime": "2020-11-07T22:53:36Z",
        "specimen": {
          "reference": "urn:uuid:55134d40-581b-4c1d-b29c-475310273925"
        }
      }
    },
    {
      "fullUrl": "urn:uuid:0d145d40-f6de-4ae3-b21e-f64d9c34b349",
      "resource": {
        "resourceType": "Device",
        "id": "0d145d40-f6de-4ae3-b21e-f64d9c34b349",
        "deviceName": [
          {
            "name": "SYNDERAI Synthetic Generator",
            "type": "manufacturer-name"
          }
        ],
        "version": [
          {
            "value": "5.0"
          }
        ],
        "text": {
          "status": "generated",
          "div": "<div xmlns=\"http://www.w3.org/1999/xhtml\">SYNDERAI Synthetic Generator v5.0</div>"
        },
        "status": "active\"",
        "distinctIdentifier": "synderai-generator-50",
        "manufacturer": "SYNDERAI Project"
      }
    },
    {
      "fullUrl": "urn:uuid:fbf7c6aa-6d28-4076-9590-7aeed58795d9",
      "resource": {
        "resourceType": "Provenance",
        "id": "fbf7c6aa-6d28-4076-9590-7aeed58795d9",
        "target": [
          {
            "reference": "Patient/9541963f-2685-411b-8d40-ebd2131b879a"
          },
          {
            "reference": "Bundle/0f2007bc-d97f-4dab-a30b-5122d12a59e0"
          },
          {
            "reference": "Composition/2d50a7dd-e636-48e7-9b73-d95d407cf5cc"
          },
          {
            "reference": "PractitionerRole/38bbf25e-e824-4e0e-9dca-286392b9beef"
          },
          {
            "reference": "Practitioner/89cbafe9-0b99-40ad-bedc-e21ebcf5261c"
          },
          {
            "reference": "PractitionerRole/ea3c2f44-2a85-454f-8b29-28b0ffbd7b72"
          },
          {
            "reference": "Organization/35380023-da5b-463f-8eb4-4188477bba31"
          }
        ],
        "activity": {
          "text": "Synthetic Example Data Generation"
        },
        "policy": [
          "https://synderai.net/synderai-synthetic-data-policy"
        ],
        "agent": [
          {
            "type": {
              "text": "author"
            },
            "who": {
              "reference": "Device/0d145d40-f6de-4ae3-b21e-f64d9c34b349"
            }
          }
        ],
        "reason": [
          {
            "text": "Interoperability Testing and Training (non-clinical use)"
          }
        ],
        "text": {
          "status": "generated",
          "div": "<div xmlns=\"http://www.w3.org/1999/xhtml\">Provenance for SYNDERAI Synthetic Example Data Resource</div>"
        },
        "recorded": "2020-11-07T23:53:36Z"
      }
    },
    {
      "fullUrl": "urn:uuid:38bbf25e-e824-4e0e-9dca-286392b9beef",
      "resource": {
        "resourceType": "PractitionerRole",
        "id": "38bbf25e-e824-4e0e-9dca-286392b9beef",
        "meta": {
          "profile": [
            "http://hl7.eu/fhir/base/StructureDefinition/practitionerRole-eu"
          ]
        },
        "text": {
          "status": "generated",
          "div": "<div xmlns=\"http://www.w3.org/1999/xhtml\">Laboratory Role Id: 38bbf25e-e824-4e0e-9dca-286392b9beef</div>"
        },
        "practitioner": {
          "reference": "urn:uuid:89cbafe9-0b99-40ad-bedc-e21ebcf5261c"
        }
      }
    },
    {
      "fullUrl": "urn:uuid:89cbafe9-0b99-40ad-bedc-e21ebcf5261c",
      "resource": {
        "resourceType": "Practitioner",
        "id": "89cbafe9-0b99-40ad-bedc-e21ebcf5261c",
        "meta": {
          "profile": [
            "http://hl7.eu/fhir/base/StructureDefinition/practitioner-eu"
          ]
        },
        "identifier": [
          {
            "assigner": {
              "display": "HL7 Europe"
            },
            "system": "urn:oid:2.16.840.1.113883.2.51.999",
            "value": "87f54a50-4a84-4d4f-bb04-d2f149041226"
          }
        ],
        "name": [
          {
            "prefix": [
              "dr"
            ],
            "given": [
              "Ex"
            ],
            "family": "Ample"
          }
        ],
        "address": [
          {
            "line": [
              "Laboratoire Central Européenne",
              "Boulevard du Jardin Botanique 32"
            ],
            "postalCode": "1000",
            "city": "Brussels",
            "country": "Belgium"
          }
        ],
        "text": {
          "status": "generated",
          "div": "<div xmlns=\"http://www.w3.org/1999/xhtml\">Laboratory: Laboratoire Central Européenne, 1000 Brussels, Belgium</div>"
        }
      }
    }
  ],
  "type": "document",
  "timestamp": "2020-11-07T23:53:36Z"
}
