{
  "resourceType": "Bundle",
  "id": "7fe4a81e-5362-4bb6-9a9e-156d2b8de920",
  "meta": {
    "profile": [
      "http://hl7.eu/fhir/laboratory/StructureDefinition/Bundle-eu-lab"
    ]
  },
  "identifier": {
    "assigner": {
      "display": "HL7 Europe"
    },
    "system": "urn:oid:2.16.840.1.113883.2.51.999",
    "value": "ab9cc200-9e5f-4c38-b377-37efa5be9530"
  },
  "entry": [
    {
      "fullUrl": "urn:uuid:4f42d707-859d-4f85-bdf6-b8a66ecb6fa8",
      "resource": {
        "resourceType": "Composition",
        "id": "4f42d707-859d-4f85-bdf6-b8a66ecb6fa8",
        "meta": {
          "profile": [
            "http://hl7.eu/fhir/laboratory/StructureDefinition/Composition-eu-lab"
          ]
        },
        "identifier": {
          "assigner": {
            "display": "HL7 Europe"
          },
          "system": "urn:oid:2.16.840.1.113883.2.51.999",
          "value": "a29e79df-ffbe-444e-bd96-929c5e83fa1b"
        },
        "author": [
          {
            "reference": "urn:uuid:e74011a2-ca53-432b-a659-50de1f2c6cb6"
          }
        ],
        "category": [
          {
            "coding": [
              {
                "code": "26436-6",
                "system": "http://loinc.org",
                "display": "Laboratory studies (set)"
              }
            ]
          }
        ],
        "type": {
          "coding": [
            {
              "code": "11502-2",
              "system": "http://loinc.org",
              "display": "Laboratory report"
            }
          ],
          "text": "Laboratory Report"
        },
        "section": [
          {
            "code": {
              "coding": [
                {
                  "code": "26436-6",
                  "system": "http://loinc.org",
                  "display": "Laboratory studies (set)"
                }
              ],
              "text": "Laboratory studies"
            },
            "section": [
              {
                "code": {
                  "coding": [
                    {
                      "code": "$18719-5",
                      "system": "http://loinc.org",
                      "display": "Chemistry studies (set)"
                    }
                  ],
                  "text": "Chemistry"
                },
                "entry": [
                  {
                    "reference": "urn:uuid:c8cb8f54-828e-45be-a243-88fa98d454fb"
                  }
                ],
                "text": {
                  "status": "generated",
                  "div": "<div xmlns=\"http://www.w3.org/1999/xhtml\"><h3>Chemistry</h3><table class=\"hl7__eu__lab__report\"><thead><tr><th>Test</th><th>13-JAN-2023</th><th>Reference&#xA0;Range</th><th>Unit</th></tr></thead><tbody><tr><td>Hemoglobin.gastrointestinal.lower [Presence] in Stool by Immunoassay --1st specimen</td><td>22.6</td><td>0 - 200</td><td>ng/mL</td></tr></tbody></table></div>"
                },
                "title": "Chemistry"
              },
              {
                "code": {
                  "coding": [
                    {
                      "code": "$LP207911-1",
                      "system": "http://loinc.org",
                      "display": "Cancer pathology panel"
                    }
                  ],
                  "text": "Cancer pathology panel"
                },
                "entry": [
                  {
                    "reference": "urn:uuid:6984e88a-f4cc-4303-b21b-0527aa69e110"
                  }
                ],
                "text": {
                  "status": "generated",
                  "div": "<div xmlns=\"http://www.w3.org/1999/xhtml\"><h3>Cancer pathology panel</h3><table class=\"hl7__eu__lab__report\"><thead><tr><th>Test</th><th>13-JAN-2023</th><th>Reference&#xA0;Range</th><th>Unit</th></tr></thead><tbody><tr><td>Polyp size greatest dimension</td><td>5.3</td><td>0 - 10</td><td>mm</td></tr></tbody></table></div>"
                },
                "title": "Cancer pathology panel"
              }
            ],
            "title": "Laboratory Report"
          },
          {
            "text": {
              "status": "generated",
              "div": "<div xmlns=\"http://www.w3.org/1999/xhtml\"><h3>Annotation</h3><table class=\"hl7__eu__lab__report\"><tr><th>Conclusion and Recommendations based on this report and previous findings known to us</th></tr><tr><td>Both the polyp size (5.3 mm) and fecal hemoglobin (22.6 ng/mL) are within normal limits. No laboratory evidence of gastrointestinal bleeding or abnormal polyp size is present at this time. Recommend routine follow-up as clinically indicated.</td></tr></table></div>"
            },
            "code": {
              "coding": [
                {
                  "system": "http://loinc.org",
                  "code": "48767-8",
                  "display": "Annotation comment"
                }
              ]
            },
            "title": "Annotation comment"
          }
        ],
        "status": "final",
        "subject": {
          "reference": "urn:uuid:36b5d170-aa3a-40b0-a773-de6538bd2070",
          "display": "Bethany Begum"
        },
        "date": "2023-01-13T13:20:31Z",
        "title": "Laboratory Report",
        "confidentiality": "N"
      }
    },
    {
      "fullUrl": "urn:uuid:3169ce16-7ff6-44fc-a05d-047a42d688b2",
      "resource": {
        "resourceType": "DiagnosticReport",
        "id": "3169ce16-7ff6-44fc-a05d-047a42d688b2",
        "meta": {
          "profile": [
            "http://hl7.eu/fhir/laboratory/StructureDefinition/DiagnosticReport-eu-lab"
          ]
        },
        "identifier": [
          {
            "assigner": {
              "display": "HL7 Europe"
            },
            "system": "urn:oid:2.16.840.1.113883.2.51.999",
            "value": "169bfe6f-647d-449a-be9b-bf37767a4d41"
          }
        ],
        "extension": [
          {
            "url": "http://hl7.org/fhir/5.0/StructureDefinition/extension-DiagnosticReport.composition",
            "valueReference": {
              "reference": "urn:uuid:a29e79df-ffbe-444e-bd96-929c5e83fa1b"
            }
          }
        ],
        "category": [
          {
            "coding": [
              {
                "code": "26436-6",
                "system": "http://loinc.org",
                "display": "Laboratory studies (set)"
              }
            ]
          }
        ],
        "specimen": [
          {
            "reference": "urn:uuid:be252535-b3b2-432d-98c9-2895dc3fc619"
          },
          {
            "reference": "urn:uuid:651e519d-d764-4d22-885f-f492c7c49437"
          }
        ],
        "result": [
          {
            "reference": "urn:uuid:6984e88a-f4cc-4303-b21b-0527aa69e110"
          },
          {
            "reference": "urn:uuid:c8cb8f54-828e-45be-a243-88fa98d454fb"
          }
        ],
        "status": "registered",
        "code": {
          "coding": [
            {
              "code": "11502-2",
              "system": "http://loinc.org",
              "display": "Laboratory report"
            }
          ]
        },
        "subject": {
          "reference": "urn:uuid:36b5d170-aa3a-40b0-a773-de6538bd2070",
          "display": "Bethany Begum"
        }
      }
    },
    {
      "fullUrl": "urn:uuid:36b5d170-aa3a-40b0-a773-de6538bd2070",
      "resource": {
        "resourceType": "Patient",
        "id": "36b5d170-aa3a-40b0-a773-de6538bd2070",
        "meta": {
          "security": [
            {
              "system": "http://terminology.hl7.org/CodeSystem/v3-ActReason",
              "code": "HTEST"
            },
            {
              "system": "http://terminology.hl7.org/CodeSystem/v3-ActReason",
              "code": "TRAIN"
            }
          ],
          "tag": [
            {
              "system": "https://synderai.net/fhir/CodeSystem/tags",
              "code": "synthetic",
              "display": "SYNDERAI Synthetic data"
            }
          ],
          "profile": [
            "http://hl7.eu/fhir/base/StructureDefinition/patient-eu-core"
          ]
        },
        "identifier": [
          {
            "type": {
              "coding": [
                {
                  "code": "PT",
                  "system": "http://terminology.hl7.org/CodeSystem/v2-0203"
                }
              ]
            },
            "system": "http://ec.europa.eu/identifier/eci",
            "value": "2365-936148-1"
          },
          {
            "type": {
              "coding": [
                {
                  "code": "MR",
                  "system": "http://terminology.hl7.org/CodeSystem/v2-0203"
                }
              ]
            },
            "system": "http://local.setting.eu/identifier",
            "value": "853b213b-8bf3-d90f-2018-79d547156fd7"
          }
        ],
        "name": [
          {
            "family": "Begum"
          },
          {
            "given": [
              "Bethany"
            ]
          },
          {
            "text": "Bethany Begum"
          }
        ],
        "address": [
          {
            "line": [
              "Studio 22e",
              "Joe unions"
            ],
            "use": "home",
            "type": "physical",
            "postalCode": "M1",
            "city": "Manchester",
            "country": "United Kingdom"
          }
        ],
        "telecom": [
          {
            "system": "phone",
            "value": "(029) 2018200"
          }
        ],
        "extension": [
          {
            "url": "http://hl7.org/fhir/StructureDefinition/patient-nationality",
            "valueCodeableConcept": {
              "coding": [
                {
                  "code": "GB",
                  "system": "http://hl7.org/fhir/ValueSet/country"
                }
              ]
            }
          }
        ],
        "text": {
          "status": "generated",
          "div": "<div xmlns=\"http://www.w3.org/1999/xhtml\"><table class=\"hl7__ips\"><tr><td>Bethany Begum</td><td>female</td><td>19-Jan-1976</td></tr></table></div>"
        },
        "gender": "female",
        "birthDate": "1976-01-19"
      }
    },
    {
      "fullUrl": "urn:uuid:69da34bd-cb94-4f2d-abd1-387ce26192e9",
      "resource": {
        "resourceType": "ServiceRequest",
        "id": "69da34bd-cb94-4f2d-abd1-387ce26192e9",
        "meta": {
          "profile": [
            "http://hl7.eu/fhir/laboratory/StructureDefinition/ServiceRequest-eu-lab"
          ]
        },
        "identifier": [
          {
            "system": "http://example.org",
            "value": "973f27bf-8611-4986-add9-2d0e9df7b5a4"
          }
        ],
        "specimen": [
          {
            "reference": "urn:uuid:be252535-b3b2-432d-98c9-2895dc3fc619"
          },
          {
            "reference": "urn:uuid:651e519d-d764-4d22-885f-f492c7c49437"
          }
        ],
        "reasonCode": [
          {
            "coding": [
              {
                "code": "55822004",
                "system": "http://snomed.info/sct",
                "display": "Hyperlipidemia"
              }
            ]
          },
          {
            "coding": [
              {
                "code": "15777000",
                "system": "http://snomed.info/sct",
                "display": "Prediabetes"
              }
            ]
          },
          {
            "coding": [
              {
                "code": "40055000",
                "system": "http://snomed.info/sct",
                "display": "Chronic sinusitis"
              }
            ]
          }
        ],
        "status": "active",
        "intent": "order",
        "code": {
          "coding": [
            {
              "code": "108252007",
              "system": "http://snomed.info/sct",
              "display": "Laboratory procedure"
            }
          ]
        },
        "subject": {
          "reference": "urn:uuid:36b5d170-aa3a-40b0-a773-de6538bd2070",
          "display": "Bethany Begum"
        },
        "requester": {
          "reference": "urn:uuid:ed83dbac-ae69-48c7-856c-feca4fe0fd6f"
        }
      }
    },
    {
      "fullUrl": "urn:uuid:ed83dbac-ae69-48c7-856c-feca4fe0fd6f",
      "resource": {
        "resourceType": "PractitionerRole",
        "id": "ed83dbac-ae69-48c7-856c-feca4fe0fd6f",
        "meta": {
          "profile": [
            "http://hl7.eu/fhir/base/StructureDefinition/practitionerRole-eu"
          ]
        },
        "text": {
          "status": "generated",
          "div": "<div xmlns=\"http://www.w3.org/1999/xhtml\">Provider Role Id: ed83dbac-ae69-48c7-856c-feca4fe0fd6f</div>"
        },
        "organization": {
          "reference": "urn:uuid:b5f8995a-e434-4351-8a8c-b60e88037e14"
        }
      }
    },
    {
      "fullUrl": "urn:uuid:b5f8995a-e434-4351-8a8c-b60e88037e14",
      "resource": {
        "resourceType": "Organization",
        "id": "b5f8995a-e434-4351-8a8c-b60e88037e14",
        "meta": {
          "profile": [
            "http://hl7.eu/fhir/base/StructureDefinition/organization-eu"
          ]
        },
        "identifier": [
          {
            "assigner": {
              "display": "HL7 Europe"
            },
            "system": "urn:oid:2.16.840.1.113883.2.51.999",
            "value": "8f2a1cf0-0a38-4a83-8f3d-84eaa70a6e11"
          }
        ],
        "address": [
          {
            "line": [
              "City Road 204"
            ],
            "city": "Manchester",
            "postalCode": "M3 3",
            "country": "United Kingdom"
          }
        ],
        "text": {
          "status": "generated",
          "div": "<div xmlns=\"http://www.w3.org/1999/xhtml\">Provider Organization: Cornbrook Medical Practice</div>"
        },
        "name": "Cornbrook Medical Practice"
      }
    },
    {
      "fullUrl": "urn:uuid:be252535-b3b2-432d-98c9-2895dc3fc619",
      "resource": {
        "resourceType": "Specimen",
        "id": "be252535-b3b2-432d-98c9-2895dc3fc619",
        "meta": {
          "profile": [
            "http://hl7.eu/fhir/laboratory/StructureDefinition/Specimen-eu-lab"
          ]
        },
        "collection": {
          "collectedDateTime": "2023-01-13"
        },
        "text": {
          "status": "generated",
          "div": "<div xmlns=\"http://www.w3.org/1999/xhtml\"><table class=\"hl7__eu__lab__report\"><tr><th>Specimen</th><th>Collection Date</th></tr><tr><td>Specimen (specimen)</td><td><span class=\"nb\">13-Jan-2023</span></td></tr></table></div>"
        },
        "type": {
          "coding": [
            {
              "code": "123038009",
              "system": "http://snomed.info/sct",
              "display": "Specimen (specimen)"
            }
          ]
        }
      }
    },
    {
      "fullUrl": "urn:uuid:651e519d-d764-4d22-885f-f492c7c49437",
      "resource": {
        "resourceType": "Specimen",
        "id": "651e519d-d764-4d22-885f-f492c7c49437",
        "meta": {
          "profile": [
            "http://hl7.eu/fhir/laboratory/StructureDefinition/Specimen-eu-lab"
          ]
        },
        "collection": {
          "collectedDateTime": "2023-01-13"
        },
        "text": {
          "status": "generated",
          "div": "<div xmlns=\"http://www.w3.org/1999/xhtml\"><table class=\"hl7__eu__lab__report\"><tr><th>Specimen</th><th>Collection Date</th></tr><tr><td>Feces specimen</td><td><span class=\"nb\">13-Jan-2023</span></td></tr></table></div>"
        },
        "type": {
          "coding": [
            {
              "code": "119339001",
              "system": "http://snomed.info/sct",
              "display": "Feces specimen"
            }
          ]
        }
      }
    },
    {
      "fullUrl": "urn:uuid:6984e88a-f4cc-4303-b21b-0527aa69e110",
      "resource": {
        "resourceType": "Observation",
        "id": "6984e88a-f4cc-4303-b21b-0527aa69e110",
        "meta": {
          "profile": [
            "http://hl7.eu/fhir/laboratory/StructureDefinition/Observation-resultslab-eu-lab"
          ]
        },
        "performer": [
          {
            "display": "The Central European Lab"
          }
        ],
        "category": [
          {
            "coding": [
              {
                "system": "http://terminology.hl7.org/CodeSystem/observation-category",
                "code": "laboratory"
              }
            ]
          }
        ],
        "code": {
          "coding": [
            {
              "code": "33756-8",
              "system": "http://loinc.org",
              "display": "Polyp size greatest dimension"
            }
          ],
          "text": "Polyp size greatest dimension"
        },
        "valueQuantity": {
          "system": "http://unitsofmeasure.org",
          "value": 5.3,
          "unit": "mm",
          "code": "mm"
        },
        "referenceRange": [
          {
            "low": {
              "value": 0,
              "code": "mm",
              "system": "http://unitsofmeasure.org"
            }
          },
          {
            "high": {
              "value": 10,
              "code": "mm",
              "system": "http://unitsofmeasure.org"
            }
          }
        ],
        "text": {
          "status": "generated",
          "div": "<div xmlns=\"http://www.w3.org/1999/xhtml\"><table class=\"hl7__eu__lab__report\"><tr><th>Test</th><th>13-Jan-2023</th><th>Reference&#xA0;Range</th><th>Unit</th></tr><tr><td>Polyp size greatest dimension</td><td>5.3</td><td>0 - 10</td><td></td><td>mm</td></tr></table></div>"
        },
        "status": "final",
        "subject": {
          "reference": "urn:uuid:36b5d170-aa3a-40b0-a773-de6538bd2070",
          "display": "Bethany Begum"
        },
        "effectiveDateTime": "2023-01-13T12:20:31Z",
        "specimen": {
          "reference": "urn:uuid:be252535-b3b2-432d-98c9-2895dc3fc619"
        }
      }
    },
    {
      "fullUrl": "urn:uuid:c8cb8f54-828e-45be-a243-88fa98d454fb",
      "resource": {
        "resourceType": "Observation",
        "id": "c8cb8f54-828e-45be-a243-88fa98d454fb",
        "meta": {
          "profile": [
            "http://hl7.eu/fhir/laboratory/StructureDefinition/Observation-resultslab-eu-lab"
          ]
        },
        "performer": [
          {
            "display": "The Central European Lab"
          }
        ],
        "category": [
          {
            "coding": [
              {
                "system": "http://terminology.hl7.org/CodeSystem/observation-category",
                "code": "laboratory"
              }
            ]
          }
        ],
        "code": {
          "coding": [
            {
              "code": "57905-2",
              "system": "http://loinc.org",
              "display": "Hemoglobin.gastrointestinal.lower [Presence] in Stool by Immunoassay --1st specimen"
            }
          ],
          "text": "Hemoglobin.gastrointestinal.lower [Presence] in Stool by Immunoassay --1st specimen"
        },
        "valueQuantity": {
          "system": "http://unitsofmeasure.org",
          "value": 22.6,
          "unit": "ng/mL",
          "code": "ng/mL"
        },
        "referenceRange": [
          {
            "low": {
              "value": 0,
              "code": "ng/mL",
              "system": "http://unitsofmeasure.org"
            }
          },
          {
            "high": {
              "value": 200,
              "code": "ng/mL",
              "system": "http://unitsofmeasure.org"
            }
          }
        ],
        "text": {
          "status": "generated",
          "div": "<div xmlns=\"http://www.w3.org/1999/xhtml\"><table class=\"hl7__eu__lab__report\"><tr><th>Test</th><th>13-Jan-2023</th><th>Reference&#xA0;Range</th><th>Unit</th></tr><tr><td>Hemoglobin.gastrointestinal.lower [Presence] in Stool by Immunoassay --1st specimen</td><td>22.6</td><td>0 - 200</td><td></td><td>ng/mL</td></tr></table></div>"
        },
        "status": "final",
        "subject": {
          "reference": "urn:uuid:36b5d170-aa3a-40b0-a773-de6538bd2070",
          "display": "Bethany Begum"
        },
        "effectiveDateTime": "2023-01-13T12:20:31Z",
        "specimen": {
          "reference": "urn:uuid:651e519d-d764-4d22-885f-f492c7c49437"
        }
      }
    },
    {
      "fullUrl": "urn:uuid:f4069e89-c340-4d31-a7ac-f75223deb7b0",
      "resource": {
        "resourceType": "Device",
        "id": "f4069e89-c340-4d31-a7ac-f75223deb7b0",
        "deviceName": [
          {
            "name": "SYNDERAI Synthetic Generator",
            "type": "manufacturer-name"
          }
        ],
        "version": [
          {
            "value": "5.0"
          }
        ],
        "text": {
          "status": "generated",
          "div": "<div xmlns=\"http://www.w3.org/1999/xhtml\">SYNDERAI Synthetic Generator v5.0</div>"
        },
        "status": "active\"",
        "distinctIdentifier": "synderai-generator-50",
        "manufacturer": "SYNDERAI Project"
      }
    },
    {
      "fullUrl": "urn:uuid:0398ba89-d084-4ebf-9ef2-a08ebab77171",
      "resource": {
        "resourceType": "Provenance",
        "id": "0398ba89-d084-4ebf-9ef2-a08ebab77171",
        "target": [
          {
            "reference": "Patient/36b5d170-aa3a-40b0-a773-de6538bd2070"
          },
          {
            "reference": "Bundle/7fe4a81e-5362-4bb6-9a9e-156d2b8de920"
          },
          {
            "reference": "Composition/4f42d707-859d-4f85-bdf6-b8a66ecb6fa8"
          },
          {
            "reference": "PractitionerRole/e74011a2-ca53-432b-a659-50de1f2c6cb6"
          },
          {
            "reference": "Practitioner/1958c63d-0a6c-486b-a603-7653d01add21"
          },
          {
            "reference": "PractitionerRole/ed83dbac-ae69-48c7-856c-feca4fe0fd6f"
          },
          {
            "reference": "Organization/b5f8995a-e434-4351-8a8c-b60e88037e14"
          }
        ],
        "activity": {
          "text": "Synthetic Example Data Generation"
        },
        "policy": [
          "https://synderai.net/synderai-synthetic-data-policy"
        ],
        "agent": [
          {
            "type": {
              "text": "author"
            },
            "who": {
              "reference": "Device/f4069e89-c340-4d31-a7ac-f75223deb7b0"
            }
          }
        ],
        "reason": [
          {
            "text": "Interoperability Testing and Training (non-clinical use)"
          }
        ],
        "text": {
          "status": "generated",
          "div": "<div xmlns=\"http://www.w3.org/1999/xhtml\">Provenance for SYNDERAI Synthetic Example Data Resource</div>"
        },
        "recorded": "2023-01-13T13:20:31Z"
      }
    },
    {
      "fullUrl": "urn:uuid:e74011a2-ca53-432b-a659-50de1f2c6cb6",
      "resource": {
        "resourceType": "PractitionerRole",
        "id": "e74011a2-ca53-432b-a659-50de1f2c6cb6",
        "meta": {
          "profile": [
            "http://hl7.eu/fhir/base/StructureDefinition/practitionerRole-eu"
          ]
        },
        "text": {
          "status": "generated",
          "div": "<div xmlns=\"http://www.w3.org/1999/xhtml\">Laboratory Role Id: e74011a2-ca53-432b-a659-50de1f2c6cb6</div>"
        },
        "practitioner": {
          "reference": "urn:uuid:1958c63d-0a6c-486b-a603-7653d01add21"
        }
      }
    },
    {
      "fullUrl": "urn:uuid:1958c63d-0a6c-486b-a603-7653d01add21",
      "resource": {
        "resourceType": "Practitioner",
        "id": "1958c63d-0a6c-486b-a603-7653d01add21",
        "meta": {
          "profile": [
            "http://hl7.eu/fhir/base/StructureDefinition/practitioner-eu"
          ]
        },
        "identifier": [
          {
            "assigner": {
              "display": "HL7 Europe"
            },
            "system": "urn:oid:2.16.840.1.113883.2.51.999",
            "value": "5d8d34cd-8dc8-4516-a9e1-5d8ce7582ccc"
          }
        ],
        "name": [
          {
            "prefix": [
              "dr"
            ],
            "given": [
              "Ex"
            ],
            "family": "Ample"
          }
        ],
        "address": [
          {
            "line": [
              "Laboratoire Central Européenne",
              "Boulevard du Jardin Botanique 32"
            ],
            "postalCode": "1000",
            "city": "Brussels",
            "country": "Belgium"
          }
        ],
        "text": {
          "status": "generated",
          "div": "<div xmlns=\"http://www.w3.org/1999/xhtml\">Laboratory: Laboratoire Central Européenne, 1000 Brussels, Belgium</div>"
        }
      }
    }
  ],
  "type": "document",
  "timestamp": "2023-01-13T13:20:31Z"
}
