{
  "resourceType": "Bundle",
  "id": "0a199177-32bf-456e-a346-aca1465bed32",
  "meta": {
    "profile": [
      "http://hl7.eu/fhir/laboratory/StructureDefinition/Bundle-eu-lab"
    ]
  },
  "identifier": {
    "assigner": {
      "display": "HL7 Europe"
    },
    "system": "urn:oid:2.16.840.1.113883.2.51.999",
    "value": "33ceb774-ad60-4442-9b8e-8d2eb9cbd9f3"
  },
  "entry": [
    {
      "fullUrl": "urn:uuid:38226c77-ca3d-4c70-b3cd-fc43144c2478",
      "resource": {
        "resourceType": "Composition",
        "id": "38226c77-ca3d-4c70-b3cd-fc43144c2478",
        "meta": {
          "profile": [
            "http://hl7.eu/fhir/laboratory/StructureDefinition/Composition-eu-lab"
          ]
        },
        "identifier": {
          "assigner": {
            "display": "HL7 Europe"
          },
          "system": "urn:oid:2.16.840.1.113883.2.51.999",
          "value": "f8a917d9-32e0-4348-b5c5-0a9fe3d6d277"
        },
        "author": [
          {
            "reference": "urn:uuid:38d45ac9-5586-48c6-bbf7-a429d446e145"
          }
        ],
        "category": [
          {
            "coding": [
              {
                "code": "26436-6",
                "system": "http://loinc.org",
                "display": "Laboratory studies (set)"
              }
            ]
          }
        ],
        "type": {
          "coding": [
            {
              "code": "11502-2",
              "system": "http://loinc.org",
              "display": "Laboratory report"
            }
          ],
          "text": "Laboratory Report"
        },
        "section": [
          {
            "code": {
              "coding": [
                {
                  "code": "26436-6",
                  "system": "http://loinc.org",
                  "display": "Laboratory studies (set)"
                }
              ],
              "text": "Laboratory studies"
            },
            "section": [
              {
                "code": {
                  "coding": [
                    {
                      "code": "$18719-5",
                      "system": "http://loinc.org",
                      "display": "Chemistry studies (set)"
                    }
                  ],
                  "text": "Chemistry"
                },
                "entry": [
                  {
                    "reference": "urn:uuid:c18cef4d-e60b-4a49-a8e4-d1a7d646a11e"
                  },
                  {
                    "reference": "urn:uuid:6020be3c-5537-4a0d-9601-a3d550194599"
                  },
                  {
                    "reference": "urn:uuid:1311347e-4eb7-495a-9e8f-46288791f102"
                  },
                  {
                    "reference": "urn:uuid:381aec00-c9e7-4758-aba2-3b59179389b4"
                  },
                  {
                    "reference": "urn:uuid:d98fc254-04fb-4b2f-bc7e-e3c5d1f396a5"
                  },
                  {
                    "reference": "urn:uuid:a34bafb7-3f31-42f4-9b68-0373898df8d9"
                  },
                  {
                    "reference": "urn:uuid:bf90ba99-b54c-4afb-9b53-24646304aae8"
                  },
                  {
                    "reference": "urn:uuid:e9c77647-f33a-44dc-8d6b-bed43b53e2a5"
                  },
                  {
                    "reference": "urn:uuid:c72f111c-a3ca-4ec7-a06d-68555f2a0e7f"
                  }
                ],
                "text": {
                  "status": "generated",
                  "div": "<div xmlns=\"http://www.w3.org/1999/xhtml\"><h3>Chemistry</h3><table class=\"hl7__eu__lab__report\"><thead><tr><th>Test</th><th>25-JUN-2025</th><th>Reference&#xA0;Range</th><th>Unit</th></tr></thead><tbody><tr><td>Hemoglobin A1c/Hemoglobin.total in Blood</td><td>5.9</td><td>4.5 - 6.4</td><td>%</td></tr><tr><td>Glucose [Mass/volume] in Blood</td><td>85.6</td><td>70 - 140</td><td>mg/dL</td></tr><tr><td>Urea nitrogen [Mass/volume] in Blood</td><td>14.0</td><td>7 - 20</td><td>mg/dL</td></tr><tr><td>Creatinine [Mass/volume] in Blood</td><td>0.7</td><td>0.6 - 1.1</td><td>mg/dL</td></tr><tr><td>Calcium [Mass/volume] in Blood</td><td>9.6</td><td>8.5 - 10.4</td><td>mg/dL</td></tr><tr><td>Sodium [Moles/volume] in Blood</td><td>140.3</td><td>135 - 145</td><td>mmol/L</td></tr><tr><td>Potassium [Moles/volume] in Blood</td><td>4.1</td><td>3.5 - 5.1</td><td>mmol/L</td></tr><tr><td>Chloride [Moles/volume] in Blood</td><td>102.6</td><td>98 - 107</td><td>mmol/L</td></tr><tr><td>Carbon dioxide, total [Moles/volume] in Blood</td><td>24.5</td><td>22 - 29</td><td>mmol/L</td></tr></tbody></table></div>"
                },
                "title": "Chemistry"
              }
            ],
            "title": "Laboratory Report"
          },
          {
            "text": {
              "status": "generated",
              "div": "<div xmlns=\"http://www.w3.org/1999/xhtml\"><h3>Annotation</h3><table class=\"hl7__eu__lab__report\"><tr><th>Conclusion and Recommendations based on this report and previous findings known to us</th></tr><tr><td>All measured laboratory values are within normal limits for this 79-year-old female patient. No evidence of renal, electrolyte, or glycemic abnormalities is present. The results indicate stable metabolic and renal function, and there are no acute concerns from a laboratory perspective at this time.</td></tr></table></div>"
            },
            "code": {
              "coding": [
                {
                  "system": "http://loinc.org",
                  "code": "48767-8",
                  "display": "Annotation comment"
                }
              ]
            },
            "title": "Annotation comment"
          }
        ],
        "status": "final",
        "subject": {
          "reference": "urn:uuid:f0d67ab6-ab9c-4e30-9218-f2796c1f5196",
          "display": "Magdolna Balog"
        },
        "date": "2025-06-25T15:34:16Z",
        "title": "Laboratory Report",
        "confidentiality": "N"
      }
    },
    {
      "fullUrl": "urn:uuid:b8bbfcb2-7744-4ee2-9411-6473b326ce94",
      "resource": {
        "resourceType": "DiagnosticReport",
        "id": "b8bbfcb2-7744-4ee2-9411-6473b326ce94",
        "meta": {
          "profile": [
            "http://hl7.eu/fhir/laboratory/StructureDefinition/DiagnosticReport-eu-lab"
          ]
        },
        "identifier": [
          {
            "assigner": {
              "display": "HL7 Europe"
            },
            "system": "urn:oid:2.16.840.1.113883.2.51.999",
            "value": "6de7fedd-ed8c-4159-9582-6bfe67bf370f"
          }
        ],
        "extension": [
          {
            "url": "http://hl7.org/fhir/5.0/StructureDefinition/extension-DiagnosticReport.composition",
            "valueReference": {
              "reference": "urn:uuid:f8a917d9-32e0-4348-b5c5-0a9fe3d6d277"
            }
          }
        ],
        "category": [
          {
            "coding": [
              {
                "code": "26436-6",
                "system": "http://loinc.org",
                "display": "Laboratory studies (set)"
              }
            ]
          }
        ],
        "specimen": [
          {
            "reference": "urn:uuid:1f122ed6-422c-4ddf-a485-fb728c078798"
          }
        ],
        "result": [
          {
            "reference": "urn:uuid:c18cef4d-e60b-4a49-a8e4-d1a7d646a11e"
          },
          {
            "reference": "urn:uuid:6020be3c-5537-4a0d-9601-a3d550194599"
          },
          {
            "reference": "urn:uuid:1311347e-4eb7-495a-9e8f-46288791f102"
          },
          {
            "reference": "urn:uuid:381aec00-c9e7-4758-aba2-3b59179389b4"
          },
          {
            "reference": "urn:uuid:d98fc254-04fb-4b2f-bc7e-e3c5d1f396a5"
          },
          {
            "reference": "urn:uuid:a34bafb7-3f31-42f4-9b68-0373898df8d9"
          },
          {
            "reference": "urn:uuid:bf90ba99-b54c-4afb-9b53-24646304aae8"
          },
          {
            "reference": "urn:uuid:e9c77647-f33a-44dc-8d6b-bed43b53e2a5"
          },
          {
            "reference": "urn:uuid:c72f111c-a3ca-4ec7-a06d-68555f2a0e7f"
          }
        ],
        "status": "registered",
        "code": {
          "coding": [
            {
              "code": "11502-2",
              "system": "http://loinc.org",
              "display": "Laboratory report"
            }
          ]
        },
        "subject": {
          "reference": "urn:uuid:f0d67ab6-ab9c-4e30-9218-f2796c1f5196",
          "display": "Magdolna Balog"
        }
      }
    },
    {
      "fullUrl": "urn:uuid:f0d67ab6-ab9c-4e30-9218-f2796c1f5196",
      "resource": {
        "resourceType": "Patient",
        "id": "f0d67ab6-ab9c-4e30-9218-f2796c1f5196",
        "meta": {
          "security": [
            {
              "system": "http://terminology.hl7.org/CodeSystem/v3-ActReason",
              "code": "HTEST"
            },
            {
              "system": "http://terminology.hl7.org/CodeSystem/v3-ActReason",
              "code": "TRAIN"
            }
          ],
          "tag": [
            {
              "system": "https://synderai.net/fhir/CodeSystem/tags",
              "code": "synthetic",
              "display": "SYNDERAI Synthetic data"
            }
          ],
          "profile": [
            "http://hl7.eu/fhir/base/StructureDefinition/patient-eu-core"
          ]
        },
        "identifier": [
          {
            "type": {
              "coding": [
                {
                  "code": "PT",
                  "system": "http://terminology.hl7.org/CodeSystem/v2-0203"
                }
              ]
            },
            "system": "http://ec.europa.eu/identifier/eci",
            "value": "2437-386280-4"
          },
          {
            "type": {
              "coding": [
                {
                  "code": "MR",
                  "system": "http://terminology.hl7.org/CodeSystem/v2-0203"
                }
              ]
            },
            "system": "http://local.setting.eu/identifier",
            "value": "1d8dc8c5-3a85-b1b5-4101-cca776d0be28"
          }
        ],
        "name": [
          {
            "family": "Balog"
          },
          {
            "given": [
              "Magdolna"
            ]
          },
          {
            "text": "Magdolna Balog"
          }
        ],
        "address": [
          {
            "line": [
              "Ady endre utca 160."
            ],
            "use": "home",
            "type": "physical",
            "postalCode": "3989",
            "city": "Némethídfa",
            "country": "Hungary"
          }
        ],
        "telecom": [
          {
            "system": "phone",
            "value": "+36 46 091-2914"
          }
        ],
        "extension": [
          {
            "url": "http://hl7.org/fhir/StructureDefinition/patient-nationality",
            "valueCodeableConcept": {
              "coding": [
                {
                  "code": "HU",
                  "system": "http://hl7.org/fhir/ValueSet/country"
                }
              ]
            }
          }
        ],
        "text": {
          "status": "generated",
          "div": "<div xmlns=\"http://www.w3.org/1999/xhtml\"><table class=\"hl7__ips\"><tr><td>Magdolna Balog</td><td>female</td><td>21-May-1946</td></tr></table></div>"
        },
        "gender": "female",
        "birthDate": "1946-05-21"
      }
    },
    {
      "fullUrl": "urn:uuid:8aa592bf-f7cd-46a9-9db7-07596a387134",
      "resource": {
        "resourceType": "ServiceRequest",
        "id": "8aa592bf-f7cd-46a9-9db7-07596a387134",
        "meta": {
          "profile": [
            "http://hl7.eu/fhir/laboratory/StructureDefinition/ServiceRequest-eu-lab"
          ]
        },
        "identifier": [
          {
            "system": "http://example.org",
            "value": "9a086b28-7ebc-40a7-9cec-a3c517268f00"
          }
        ],
        "specimen": [
          {
            "reference": "urn:uuid:1f122ed6-422c-4ddf-a485-fb728c078798"
          }
        ],
        "reasonCode": [
          {
            "coding": [
              {
                "code": "26929004",
                "system": "http://snomed.info/sct",
                "display": "Alzheimer&#039;s disease"
              }
            ]
          },
          {
            "coding": [
              {
                "code": "414545008",
                "system": "http://snomed.info/sct",
                "display": "Ischemic heart disease"
              }
            ]
          },
          {
            "coding": [
              {
                "code": "49436004",
                "system": "http://snomed.info/sct",
                "display": "Atrial fibrillation"
              }
            ]
          },
          {
            "coding": [
              {
                "code": "64859006",
                "system": "http://snomed.info/sct",
                "display": "Osteoporosis"
              }
            ]
          },
          {
            "coding": [
              {
                "code": "15777000",
                "system": "http://snomed.info/sct",
                "display": "Prediabetes"
              }
            ]
          },
          {
            "coding": [
              {
                "code": "271737000",
                "system": "http://snomed.info/sct",
                "display": "Anemia"
              }
            ]
          }
        ],
        "status": "active",
        "intent": "order",
        "code": {
          "coding": [
            {
              "code": "108252007",
              "system": "http://snomed.info/sct",
              "display": "Laboratory procedure"
            }
          ]
        },
        "subject": {
          "reference": "urn:uuid:f0d67ab6-ab9c-4e30-9218-f2796c1f5196",
          "display": "Magdolna Balog"
        },
        "requester": {
          "reference": "urn:uuid:1c1eb596-ad08-4161-8b26-6958cef50fc6"
        }
      }
    },
    {
      "fullUrl": "urn:uuid:1c1eb596-ad08-4161-8b26-6958cef50fc6",
      "resource": {
        "resourceType": "PractitionerRole",
        "id": "1c1eb596-ad08-4161-8b26-6958cef50fc6",
        "meta": {
          "profile": [
            "http://hl7.eu/fhir/base/StructureDefinition/practitionerRole-eu"
          ]
        },
        "text": {
          "status": "generated",
          "div": "<div xmlns=\"http://www.w3.org/1999/xhtml\">Provider Role Id: 1c1eb596-ad08-4161-8b26-6958cef50fc6</div>"
        },
        "organization": {
          "reference": "urn:uuid:9bd53876-5e22-4aed-a9b5-f6f39ad6f128"
        }
      }
    },
    {
      "fullUrl": "urn:uuid:9bd53876-5e22-4aed-a9b5-f6f39ad6f128",
      "resource": {
        "resourceType": "Organization",
        "id": "9bd53876-5e22-4aed-a9b5-f6f39ad6f128",
        "meta": {
          "profile": [
            "http://hl7.eu/fhir/base/StructureDefinition/organization-eu"
          ]
        },
        "identifier": [
          {
            "assigner": {
              "display": "HL7 Europe"
            },
            "system": "urn:oid:2.16.840.1.113883.2.51.999",
            "value": "cb7d6b86-19a0-4eda-b45e-7496c98ac2a8"
          }
        ],
        "address": [
          {
            "line": [
              "Csabai kapu 9-11"
            ],
            "city": "Miskolc",
            "postalCode": "3529",
            "country": "Hungary"
          }
        ],
        "text": {
          "status": "generated",
          "div": "<div xmlns=\"http://www.w3.org/1999/xhtml\">Provider Organization: Semmelweis Ignác Egészségügyi Központ és Egyetemi Oktató Kórház</div>"
        },
        "name": "Semmelweis Ignác Egészségügyi Központ és Egyetemi Oktató Kórház"
      }
    },
    {
      "fullUrl": "urn:uuid:1f122ed6-422c-4ddf-a485-fb728c078798",
      "resource": {
        "resourceType": "Specimen",
        "id": "1f122ed6-422c-4ddf-a485-fb728c078798",
        "meta": {
          "profile": [
            "http://hl7.eu/fhir/laboratory/StructureDefinition/Specimen-eu-lab"
          ]
        },
        "collection": {
          "collectedDateTime": "2025-06-25"
        },
        "text": {
          "status": "generated",
          "div": "<div xmlns=\"http://www.w3.org/1999/xhtml\"><table class=\"hl7__eu__lab__report\"><tr><th>Specimen</th><th>Collection Date</th></tr><tr><td>Whole blood specimen (specimen)</td><td><span class=\"nb\">25-Jun-2025</span></td></tr></table></div>"
        },
        "type": {
          "coding": [
            {
              "code": "258580003",
              "system": "http://snomed.info/sct",
              "display": "Whole blood specimen (specimen)"
            }
          ]
        }
      }
    },
    {
      "fullUrl": "urn:uuid:c18cef4d-e60b-4a49-a8e4-d1a7d646a11e",
      "resource": {
        "resourceType": "Observation",
        "id": "c18cef4d-e60b-4a49-a8e4-d1a7d646a11e",
        "meta": {
          "profile": [
            "http://hl7.eu/fhir/laboratory/StructureDefinition/Observation-resultslab-eu-lab"
          ]
        },
        "performer": [
          {
            "display": "The Central European Lab"
          }
        ],
        "category": [
          {
            "coding": [
              {
                "system": "http://terminology.hl7.org/CodeSystem/observation-category",
                "code": "laboratory"
              }
            ]
          }
        ],
        "code": {
          "coding": [
            {
              "code": "4548-4",
              "system": "http://loinc.org",
              "display": "Hemoglobin A1c/Hemoglobin.total in Blood"
            }
          ],
          "text": "Hemoglobin A1c/Hemoglobin.total in Blood"
        },
        "valueQuantity": {
          "system": "http://unitsofmeasure.org",
          "value": 5.9,
          "unit": "%",
          "code": "%"
        },
        "referenceRange": [
          {
            "low": {
              "value": 4.5,
              "code": "%",
              "system": "http://unitsofmeasure.org"
            }
          },
          {
            "high": {
              "value": 6.4,
              "code": "%",
              "system": "http://unitsofmeasure.org"
            }
          }
        ],
        "text": {
          "status": "generated",
          "div": "<div xmlns=\"http://www.w3.org/1999/xhtml\"><table class=\"hl7__eu__lab__report\"><tr><th>Test</th><th>25-Jun-2025</th><th>Reference&#xA0;Range</th><th>Unit</th></tr><tr><td>Hemoglobin A1c/Hemoglobin.total in Blood</td><td>5.9</td><td>4.5 - 6.4</td><td></td><td>%</td></tr></table></div>"
        },
        "status": "final",
        "subject": {
          "reference": "urn:uuid:f0d67ab6-ab9c-4e30-9218-f2796c1f5196",
          "display": "Magdolna Balog"
        },
        "effectiveDateTime": "2025-06-25T13:34:16Z",
        "specimen": {
          "reference": "urn:uuid:1f122ed6-422c-4ddf-a485-fb728c078798"
        }
      }
    },
    {
      "fullUrl": "urn:uuid:6020be3c-5537-4a0d-9601-a3d550194599",
      "resource": {
        "resourceType": "Observation",
        "id": "6020be3c-5537-4a0d-9601-a3d550194599",
        "meta": {
          "profile": [
            "http://hl7.eu/fhir/laboratory/StructureDefinition/Observation-resultslab-eu-lab"
          ]
        },
        "performer": [
          {
            "display": "The Central European Lab"
          }
        ],
        "category": [
          {
            "coding": [
              {
                "system": "http://terminology.hl7.org/CodeSystem/observation-category",
                "code": "laboratory"
              }
            ]
          }
        ],
        "code": {
          "coding": [
            {
              "code": "2339-0",
              "system": "http://loinc.org",
              "display": "Glucose [Mass/volume] in Blood"
            }
          ],
          "text": "Glucose [Mass/volume] in Blood"
        },
        "valueQuantity": {
          "system": "http://unitsofmeasure.org",
          "value": 85.6,
          "unit": "mg/dL",
          "code": "mg/dL"
        },
        "referenceRange": [
          {
            "low": {
              "value": 70,
              "code": "mg/dL",
              "system": "http://unitsofmeasure.org"
            }
          },
          {
            "high": {
              "value": 140,
              "code": "mg/dL",
              "system": "http://unitsofmeasure.org"
            }
          }
        ],
        "text": {
          "status": "generated",
          "div": "<div xmlns=\"http://www.w3.org/1999/xhtml\"><table class=\"hl7__eu__lab__report\"><tr><th>Test</th><th>25-Jun-2025</th><th>Reference&#xA0;Range</th><th>Unit</th></tr><tr><td>Glucose [Mass/volume] in Blood</td><td>85.6</td><td>70 - 140</td><td></td><td>mg/dL</td></tr></table></div>"
        },
        "status": "final",
        "subject": {
          "reference": "urn:uuid:f0d67ab6-ab9c-4e30-9218-f2796c1f5196",
          "display": "Magdolna Balog"
        },
        "effectiveDateTime": "2025-06-25T13:34:16Z",
        "specimen": {
          "reference": "urn:uuid:1f122ed6-422c-4ddf-a485-fb728c078798"
        }
      }
    },
    {
      "fullUrl": "urn:uuid:1311347e-4eb7-495a-9e8f-46288791f102",
      "resource": {
        "resourceType": "Observation",
        "id": "1311347e-4eb7-495a-9e8f-46288791f102",
        "meta": {
          "profile": [
            "http://hl7.eu/fhir/laboratory/StructureDefinition/Observation-resultslab-eu-lab"
          ]
        },
        "performer": [
          {
            "display": "The Central European Lab"
          }
        ],
        "category": [
          {
            "coding": [
              {
                "system": "http://terminology.hl7.org/CodeSystem/observation-category",
                "code": "laboratory"
              }
            ]
          }
        ],
        "code": {
          "coding": [
            {
              "code": "6299-2",
              "system": "http://loinc.org",
              "display": "Urea nitrogen [Mass/volume] in Blood"
            }
          ],
          "text": "Urea nitrogen [Mass/volume] in Blood"
        },
        "valueQuantity": {
          "system": "http://unitsofmeasure.org",
          "value": 14,
          "unit": "mg/dL",
          "code": "mg/dL"
        },
        "referenceRange": [
          {
            "low": {
              "value": 7,
              "code": "mg/dL",
              "system": "http://unitsofmeasure.org"
            }
          },
          {
            "high": {
              "value": 20,
              "code": "mg/dL",
              "system": "http://unitsofmeasure.org"
            }
          }
        ],
        "text": {
          "status": "generated",
          "div": "<div xmlns=\"http://www.w3.org/1999/xhtml\"><table class=\"hl7__eu__lab__report\"><tr><th>Test</th><th>25-Jun-2025</th><th>Reference&#xA0;Range</th><th>Unit</th></tr><tr><td>Urea nitrogen [Mass/volume] in Blood</td><td>14.0</td><td>7 - 20</td><td></td><td>mg/dL</td></tr></table></div>"
        },
        "status": "final",
        "subject": {
          "reference": "urn:uuid:f0d67ab6-ab9c-4e30-9218-f2796c1f5196",
          "display": "Magdolna Balog"
        },
        "effectiveDateTime": "2025-06-25T13:34:16Z",
        "specimen": {
          "reference": "urn:uuid:1f122ed6-422c-4ddf-a485-fb728c078798"
        }
      }
    },
    {
      "fullUrl": "urn:uuid:381aec00-c9e7-4758-aba2-3b59179389b4",
      "resource": {
        "resourceType": "Observation",
        "id": "381aec00-c9e7-4758-aba2-3b59179389b4",
        "meta": {
          "profile": [
            "http://hl7.eu/fhir/laboratory/StructureDefinition/Observation-resultslab-eu-lab"
          ]
        },
        "performer": [
          {
            "display": "The Central European Lab"
          }
        ],
        "category": [
          {
            "coding": [
              {
                "system": "http://terminology.hl7.org/CodeSystem/observation-category",
                "code": "laboratory"
              }
            ]
          }
        ],
        "code": {
          "coding": [
            {
              "code": "38483-4",
              "system": "http://loinc.org",
              "display": "Creatinine [Mass/volume] in Blood"
            }
          ],
          "text": "Creatinine [Mass/volume] in Blood"
        },
        "valueQuantity": {
          "system": "http://unitsofmeasure.org",
          "value": 0.7,
          "unit": "mg/dL",
          "code": "mg/dL"
        },
        "referenceRange": [
          {
            "low": {
              "value": 0.6,
              "code": "mg/dL",
              "system": "http://unitsofmeasure.org"
            }
          },
          {
            "high": {
              "value": 1.1,
              "code": "mg/dL",
              "system": "http://unitsofmeasure.org"
            }
          }
        ],
        "text": {
          "status": "generated",
          "div": "<div xmlns=\"http://www.w3.org/1999/xhtml\"><table class=\"hl7__eu__lab__report\"><tr><th>Test</th><th>25-Jun-2025</th><th>Reference&#xA0;Range</th><th>Unit</th></tr><tr><td>Creatinine [Mass/volume] in Blood</td><td>0.7</td><td>0.6 - 1.1</td><td></td><td>mg/dL</td></tr></table></div>"
        },
        "status": "final",
        "subject": {
          "reference": "urn:uuid:f0d67ab6-ab9c-4e30-9218-f2796c1f5196",
          "display": "Magdolna Balog"
        },
        "effectiveDateTime": "2025-06-25T13:34:16Z",
        "specimen": {
          "reference": "urn:uuid:1f122ed6-422c-4ddf-a485-fb728c078798"
        }
      }
    },
    {
      "fullUrl": "urn:uuid:d98fc254-04fb-4b2f-bc7e-e3c5d1f396a5",
      "resource": {
        "resourceType": "Observation",
        "id": "d98fc254-04fb-4b2f-bc7e-e3c5d1f396a5",
        "meta": {
          "profile": [
            "http://hl7.eu/fhir/laboratory/StructureDefinition/Observation-resultslab-eu-lab"
          ]
        },
        "performer": [
          {
            "display": "The Central European Lab"
          }
        ],
        "category": [
          {
            "coding": [
              {
                "system": "http://terminology.hl7.org/CodeSystem/observation-category",
                "code": "laboratory"
              }
            ]
          }
        ],
        "code": {
          "coding": [
            {
              "code": "49765-1",
              "system": "http://loinc.org",
              "display": "Calcium [Mass/volume] in Blood"
            }
          ],
          "text": "Calcium [Mass/volume] in Blood"
        },
        "valueQuantity": {
          "system": "http://unitsofmeasure.org",
          "value": 9.6,
          "unit": "mg/dL",
          "code": "mg/dL"
        },
        "referenceRange": [
          {
            "low": {
              "value": 8.5,
              "code": "mg/dL",
              "system": "http://unitsofmeasure.org"
            }
          },
          {
            "high": {
              "value": 10.4,
              "code": "mg/dL",
              "system": "http://unitsofmeasure.org"
            }
          }
        ],
        "text": {
          "status": "generated",
          "div": "<div xmlns=\"http://www.w3.org/1999/xhtml\"><table class=\"hl7__eu__lab__report\"><tr><th>Test</th><th>25-Jun-2025</th><th>Reference&#xA0;Range</th><th>Unit</th></tr><tr><td>Calcium [Mass/volume] in Blood</td><td>9.6</td><td>8.5 - 10.4</td><td></td><td>mg/dL</td></tr></table></div>"
        },
        "status": "final",
        "subject": {
          "reference": "urn:uuid:f0d67ab6-ab9c-4e30-9218-f2796c1f5196",
          "display": "Magdolna Balog"
        },
        "effectiveDateTime": "2025-06-25T13:34:16Z",
        "specimen": {
          "reference": "urn:uuid:1f122ed6-422c-4ddf-a485-fb728c078798"
        }
      }
    },
    {
      "fullUrl": "urn:uuid:a34bafb7-3f31-42f4-9b68-0373898df8d9",
      "resource": {
        "resourceType": "Observation",
        "id": "a34bafb7-3f31-42f4-9b68-0373898df8d9",
        "meta": {
          "profile": [
            "http://hl7.eu/fhir/laboratory/StructureDefinition/Observation-resultslab-eu-lab"
          ]
        },
        "performer": [
          {
            "display": "The Central European Lab"
          }
        ],
        "category": [
          {
            "coding": [
              {
                "system": "http://terminology.hl7.org/CodeSystem/observation-category",
                "code": "laboratory"
              }
            ]
          }
        ],
        "code": {
          "coding": [
            {
              "code": "2947-0",
              "system": "http://loinc.org",
              "display": "Sodium [Moles/volume] in Blood"
            }
          ],
          "text": "Sodium [Moles/volume] in Blood"
        },
        "valueQuantity": {
          "system": "http://unitsofmeasure.org",
          "value": 140.3,
          "unit": "mmol/L",
          "code": "mmol/L"
        },
        "referenceRange": [
          {
            "low": {
              "value": 135,
              "code": "mmol/L",
              "system": "http://unitsofmeasure.org"
            }
          },
          {
            "high": {
              "value": 145,
              "code": "mmol/L",
              "system": "http://unitsofmeasure.org"
            }
          }
        ],
        "text": {
          "status": "generated",
          "div": "<div xmlns=\"http://www.w3.org/1999/xhtml\"><table class=\"hl7__eu__lab__report\"><tr><th>Test</th><th>25-Jun-2025</th><th>Reference&#xA0;Range</th><th>Unit</th></tr><tr><td>Sodium [Moles/volume] in Blood</td><td>140.3</td><td>135 - 145</td><td></td><td>mmol/L</td></tr></table></div>"
        },
        "status": "final",
        "subject": {
          "reference": "urn:uuid:f0d67ab6-ab9c-4e30-9218-f2796c1f5196",
          "display": "Magdolna Balog"
        },
        "effectiveDateTime": "2025-06-25T13:34:16Z",
        "specimen": {
          "reference": "urn:uuid:1f122ed6-422c-4ddf-a485-fb728c078798"
        }
      }
    },
    {
      "fullUrl": "urn:uuid:bf90ba99-b54c-4afb-9b53-24646304aae8",
      "resource": {
        "resourceType": "Observation",
        "id": "bf90ba99-b54c-4afb-9b53-24646304aae8",
        "meta": {
          "profile": [
            "http://hl7.eu/fhir/laboratory/StructureDefinition/Observation-resultslab-eu-lab"
          ]
        },
        "performer": [
          {
            "display": "The Central European Lab"
          }
        ],
        "category": [
          {
            "coding": [
              {
                "system": "http://terminology.hl7.org/CodeSystem/observation-category",
                "code": "laboratory"
              }
            ]
          }
        ],
        "code": {
          "coding": [
            {
              "code": "6298-4",
              "system": "http://loinc.org",
              "display": "Potassium [Moles/volume] in Blood"
            }
          ],
          "text": "Potassium [Moles/volume] in Blood"
        },
        "valueQuantity": {
          "system": "http://unitsofmeasure.org",
          "value": 4.1,
          "unit": "mmol/L",
          "code": "mmol/L"
        },
        "referenceRange": [
          {
            "low": {
              "value": 3.5,
              "code": "mmol/L",
              "system": "http://unitsofmeasure.org"
            }
          },
          {
            "high": {
              "value": 5.1,
              "code": "mmol/L",
              "system": "http://unitsofmeasure.org"
            }
          }
        ],
        "text": {
          "status": "generated",
          "div": "<div xmlns=\"http://www.w3.org/1999/xhtml\"><table class=\"hl7__eu__lab__report\"><tr><th>Test</th><th>25-Jun-2025</th><th>Reference&#xA0;Range</th><th>Unit</th></tr><tr><td>Potassium [Moles/volume] in Blood</td><td>4.1</td><td>3.5 - 5.1</td><td></td><td>mmol/L</td></tr></table></div>"
        },
        "status": "final",
        "subject": {
          "reference": "urn:uuid:f0d67ab6-ab9c-4e30-9218-f2796c1f5196",
          "display": "Magdolna Balog"
        },
        "effectiveDateTime": "2025-06-25T13:34:16Z",
        "specimen": {
          "reference": "urn:uuid:1f122ed6-422c-4ddf-a485-fb728c078798"
        }
      }
    },
    {
      "fullUrl": "urn:uuid:e9c77647-f33a-44dc-8d6b-bed43b53e2a5",
      "resource": {
        "resourceType": "Observation",
        "id": "e9c77647-f33a-44dc-8d6b-bed43b53e2a5",
        "meta": {
          "profile": [
            "http://hl7.eu/fhir/laboratory/StructureDefinition/Observation-resultslab-eu-lab"
          ]
        },
        "performer": [
          {
            "display": "The Central European Lab"
          }
        ],
        "category": [
          {
            "coding": [
              {
                "system": "http://terminology.hl7.org/CodeSystem/observation-category",
                "code": "laboratory"
              }
            ]
          }
        ],
        "code": {
          "coding": [
            {
              "code": "2069-3",
              "system": "http://loinc.org",
              "display": "Chloride [Moles/volume] in Blood"
            }
          ],
          "text": "Chloride [Moles/volume] in Blood"
        },
        "valueQuantity": {
          "system": "http://unitsofmeasure.org",
          "value": 102.6,
          "unit": "mmol/L",
          "code": "mmol/L"
        },
        "referenceRange": [
          {
            "low": {
              "value": 98,
              "code": "mmol/L",
              "system": "http://unitsofmeasure.org"
            }
          },
          {
            "high": {
              "value": 107,
              "code": "mmol/L",
              "system": "http://unitsofmeasure.org"
            }
          }
        ],
        "text": {
          "status": "generated",
          "div": "<div xmlns=\"http://www.w3.org/1999/xhtml\"><table class=\"hl7__eu__lab__report\"><tr><th>Test</th><th>25-Jun-2025</th><th>Reference&#xA0;Range</th><th>Unit</th></tr><tr><td>Chloride [Moles/volume] in Blood</td><td>102.6</td><td>98 - 107</td><td></td><td>mmol/L</td></tr></table></div>"
        },
        "status": "final",
        "subject": {
          "reference": "urn:uuid:f0d67ab6-ab9c-4e30-9218-f2796c1f5196",
          "display": "Magdolna Balog"
        },
        "effectiveDateTime": "2025-06-25T13:34:16Z",
        "specimen": {
          "reference": "urn:uuid:1f122ed6-422c-4ddf-a485-fb728c078798"
        }
      }
    },
    {
      "fullUrl": "urn:uuid:c72f111c-a3ca-4ec7-a06d-68555f2a0e7f",
      "resource": {
        "resourceType": "Observation",
        "id": "c72f111c-a3ca-4ec7-a06d-68555f2a0e7f",
        "meta": {
          "profile": [
            "http://hl7.eu/fhir/laboratory/StructureDefinition/Observation-resultslab-eu-lab"
          ]
        },
        "performer": [
          {
            "display": "The Central European Lab"
          }
        ],
        "category": [
          {
            "coding": [
              {
                "system": "http://terminology.hl7.org/CodeSystem/observation-category",
                "code": "laboratory"
              }
            ]
          }
        ],
        "code": {
          "coding": [
            {
              "code": "20565-8",
              "system": "http://loinc.org",
              "display": "Carbon dioxide, total [Moles/volume] in Blood"
            }
          ],
          "text": "Carbon dioxide, total [Moles/volume] in Blood"
        },
        "valueQuantity": {
          "system": "http://unitsofmeasure.org",
          "value": 24.5,
          "unit": "mmol/L",
          "code": "mmol/L"
        },
        "referenceRange": [
          {
            "low": {
              "value": 22,
              "code": "mmol/L",
              "system": "http://unitsofmeasure.org"
            }
          },
          {
            "high": {
              "value": 29,
              "code": "mmol/L",
              "system": "http://unitsofmeasure.org"
            }
          }
        ],
        "text": {
          "status": "generated",
          "div": "<div xmlns=\"http://www.w3.org/1999/xhtml\"><table class=\"hl7__eu__lab__report\"><tr><th>Test</th><th>25-Jun-2025</th><th>Reference&#xA0;Range</th><th>Unit</th></tr><tr><td>Carbon dioxide, total [Moles/volume] in Blood</td><td>24.5</td><td>22 - 29</td><td></td><td>mmol/L</td></tr></table></div>"
        },
        "status": "final",
        "subject": {
          "reference": "urn:uuid:f0d67ab6-ab9c-4e30-9218-f2796c1f5196",
          "display": "Magdolna Balog"
        },
        "effectiveDateTime": "2025-06-25T13:34:16Z",
        "specimen": {
          "reference": "urn:uuid:1f122ed6-422c-4ddf-a485-fb728c078798"
        }
      }
    },
    {
      "fullUrl": "urn:uuid:f74d1331-3312-45d8-a764-12a18718f079",
      "resource": {
        "resourceType": "Device",
        "id": "f74d1331-3312-45d8-a764-12a18718f079",
        "deviceName": [
          {
            "name": "SYNDERAI Synthetic Generator",
            "type": "manufacturer-name"
          }
        ],
        "version": [
          {
            "value": "5.0"
          }
        ],
        "text": {
          "status": "generated",
          "div": "<div xmlns=\"http://www.w3.org/1999/xhtml\">SYNDERAI Synthetic Generator v5.0</div>"
        },
        "status": "active\"",
        "distinctIdentifier": "synderai-generator-50",
        "manufacturer": "SYNDERAI Project"
      }
    },
    {
      "fullUrl": "urn:uuid:70beb3e2-20f5-4892-a306-e5569cf5d545",
      "resource": {
        "resourceType": "Provenance",
        "id": "70beb3e2-20f5-4892-a306-e5569cf5d545",
        "target": [
          {
            "reference": "Patient/f0d67ab6-ab9c-4e30-9218-f2796c1f5196"
          },
          {
            "reference": "Bundle/0a199177-32bf-456e-a346-aca1465bed32"
          },
          {
            "reference": "Composition/38226c77-ca3d-4c70-b3cd-fc43144c2478"
          },
          {
            "reference": "PractitionerRole/38d45ac9-5586-48c6-bbf7-a429d446e145"
          },
          {
            "reference": "Practitioner/39fee918-55ba-4646-8cd5-0c951d61ece1"
          },
          {
            "reference": "PractitionerRole/1c1eb596-ad08-4161-8b26-6958cef50fc6"
          },
          {
            "reference": "Organization/9bd53876-5e22-4aed-a9b5-f6f39ad6f128"
          }
        ],
        "activity": {
          "text": "Synthetic Example Data Generation"
        },
        "policy": [
          "https://synderai.net/synderai-synthetic-data-policy"
        ],
        "agent": [
          {
            "type": {
              "text": "author"
            },
            "who": {
              "reference": "Device/f74d1331-3312-45d8-a764-12a18718f079"
            }
          }
        ],
        "reason": [
          {
            "text": "Interoperability Testing and Training (non-clinical use)"
          }
        ],
        "text": {
          "status": "generated",
          "div": "<div xmlns=\"http://www.w3.org/1999/xhtml\">Provenance for SYNDERAI Synthetic Example Data Resource</div>"
        },
        "recorded": "2025-06-25T15:34:16Z"
      }
    },
    {
      "fullUrl": "urn:uuid:38d45ac9-5586-48c6-bbf7-a429d446e145",
      "resource": {
        "resourceType": "PractitionerRole",
        "id": "38d45ac9-5586-48c6-bbf7-a429d446e145",
        "meta": {
          "profile": [
            "http://hl7.eu/fhir/base/StructureDefinition/practitionerRole-eu"
          ]
        },
        "text": {
          "status": "generated",
          "div": "<div xmlns=\"http://www.w3.org/1999/xhtml\">Laboratory Role Id: 38d45ac9-5586-48c6-bbf7-a429d446e145</div>"
        },
        "practitioner": {
          "reference": "urn:uuid:39fee918-55ba-4646-8cd5-0c951d61ece1"
        }
      }
    },
    {
      "fullUrl": "urn:uuid:39fee918-55ba-4646-8cd5-0c951d61ece1",
      "resource": {
        "resourceType": "Practitioner",
        "id": "39fee918-55ba-4646-8cd5-0c951d61ece1",
        "meta": {
          "profile": [
            "http://hl7.eu/fhir/base/StructureDefinition/practitioner-eu"
          ]
        },
        "identifier": [
          {
            "assigner": {
              "display": "HL7 Europe"
            },
            "system": "urn:oid:2.16.840.1.113883.2.51.999",
            "value": "3d123d05-81f9-4896-844c-901833a8161d"
          }
        ],
        "name": [
          {
            "prefix": [
              "dr"
            ],
            "given": [
              "Ex"
            ],
            "family": "Ample"
          }
        ],
        "address": [
          {
            "line": [
              "Laboratoire Central Européenne",
              "Boulevard du Jardin Botanique 32"
            ],
            "postalCode": "1000",
            "city": "Brussels",
            "country": "Belgium"
          }
        ],
        "text": {
          "status": "generated",
          "div": "<div xmlns=\"http://www.w3.org/1999/xhtml\">Laboratory: Laboratoire Central Européenne, 1000 Brussels, Belgium</div>"
        }
      }
    }
  ],
  "type": "document",
  "timestamp": "2025-06-25T15:34:16Z"
}
