{
  "resourceType": "Bundle",
  "id": "2905d3fd-a632-4766-af08-18e65bb16250",
  "meta": {
    "profile": [
      "http://hl7.eu/fhir/laboratory/StructureDefinition/Bundle-eu-lab"
    ]
  },
  "identifier": {
    "assigner": {
      "display": "HL7 Europe"
    },
    "system": "urn:oid:2.16.840.1.113883.2.51.999",
    "value": "9eec5003-b703-483d-a6d2-73759045dc31"
  },
  "entry": [
    {
      "fullUrl": "urn:uuid:6dc76f15-d6f4-4118-afe1-0bb006705405",
      "resource": {
        "resourceType": "Composition",
        "id": "6dc76f15-d6f4-4118-afe1-0bb006705405",
        "meta": {
          "profile": [
            "http://hl7.eu/fhir/laboratory/StructureDefinition/Composition-eu-lab"
          ]
        },
        "identifier": {
          "assigner": {
            "display": "HL7 Europe"
          },
          "system": "urn:oid:2.16.840.1.113883.2.51.999",
          "value": "0e6d140c-2eb6-4a90-a9f7-0f88d1db349a"
        },
        "author": [
          {
            "reference": "urn:uuid:1a2b1570-cbca-4b43-bdd0-6d0a88e1caf0"
          }
        ],
        "category": [
          {
            "coding": [
              {
                "code": "26436-6",
                "system": "http://loinc.org",
                "display": "Laboratory studies (set)"
              }
            ]
          }
        ],
        "type": {
          "coding": [
            {
              "code": "11502-2",
              "system": "http://loinc.org",
              "display": "Laboratory report"
            }
          ],
          "text": "Laboratory Report"
        },
        "section": [
          {
            "code": {
              "coding": [
                {
                  "code": "26436-6",
                  "system": "http://loinc.org",
                  "display": "Laboratory studies (set)"
                }
              ],
              "text": "Laboratory studies"
            },
            "section": [
              {
                "code": {
                  "coding": [
                    {
                      "code": "$18719-5",
                      "system": "http://loinc.org",
                      "display": "Chemistry studies (set)"
                    }
                  ],
                  "text": "Chemistry"
                },
                "entry": [
                  {
                    "reference": "urn:uuid:3323797a-c755-4410-a72c-1b64b245c497"
                  },
                  {
                    "reference": "urn:uuid:72db9cf7-ae28-46b8-a27e-a67b24fa2b4e"
                  },
                  {
                    "reference": "urn:uuid:75b05d4c-ffa2-47a3-bd42-8c4014176660"
                  },
                  {
                    "reference": "urn:uuid:cfa62119-c602-464e-bba8-1b8adeaa971f"
                  },
                  {
                    "reference": "urn:uuid:1b7d3813-36c5-4599-b541-3d38761c9126"
                  },
                  {
                    "reference": "urn:uuid:80db31f7-98cc-4ebe-a23e-af621d197d34"
                  },
                  {
                    "reference": "urn:uuid:93d1f717-048c-458d-85fb-369b05165872"
                  },
                  {
                    "reference": "urn:uuid:46a1a72c-ccd8-4206-98cc-0fdd07b3c596"
                  },
                  {
                    "reference": "urn:uuid:70b187df-b81d-43b4-83b7-9ae05e25e9a0"
                  },
                  {
                    "reference": "urn:uuid:555b0d42-168a-4845-be14-41a15a619f4d"
                  },
                  {
                    "reference": "urn:uuid:e6482e0a-467d-4e0e-ba10-0e15ebeecd88"
                  },
                  {
                    "reference": "urn:uuid:2d094abd-9118-42ee-ad1b-dcf2d21fa6c8"
                  },
                  {
                    "reference": "urn:uuid:825a4e6f-3a8e-45f0-9103-d0b5af9b7687"
                  },
                  {
                    "reference": "urn:uuid:95b81013-c548-44bb-aa36-a6a50368bb36"
                  },
                  {
                    "reference": "urn:uuid:069fb730-0ef9-4360-93b5-fb0e8e537d46"
                  },
                  {
                    "reference": "urn:uuid:b8824464-1288-4576-b79c-9984c92d6668"
                  },
                  {
                    "reference": "urn:uuid:c7540c5d-2c39-499e-ab11-b893574c5119"
                  },
                  {
                    "reference": "urn:uuid:d1acdb1b-6622-46a3-96a1-a63bb4b045fe"
                  }
                ],
                "text": {
                  "status": "generated",
                  "div": "<div xmlns=\"http://www.w3.org/1999/xhtml\"><h3>Chemistry</h3><table class=\"hl7__eu__lab__report\"><thead><tr><th>Test</th><th>29-APR-2025</th><th>Reference&#xA0;Range</th><th>Unit</th></tr></thead><tbody><tr><td>Glucose [Mass/volume] in Serum or Plasma</td><td>87.8</td><td>70 - 99</td><td>mg/dL</td></tr><tr><td>Urea nitrogen [Mass/volume] in Serum or Plasma</td><td>10.9</td><td>7 - 50</td><td>mg/dL</td></tr><tr><td>Creatinine [Mass/volume] in Serum or Plasma</td><td><strong>2.0 H</strong></td><td>0.6 - 1.1</td><td>mg/dL</td></tr><tr><td>Calcium [Mass/volume] in Serum or Plasma</td><td>8.9</td><td>8.6 - 10.4</td><td>mg/dL</td></tr><tr><td>Sodium [Moles/volume] in Serum or Plasma</td><td>140.1</td><td>135 - 145</td><td>mmol/L</td></tr><tr><td>Potassium [Moles/volume] in Serum or Plasma</td><td>4.3</td><td>3.5 - 5.1</td><td>mmol/L</td></tr><tr><td>Chloride [Moles/volume] in Serum or Plasma</td><td><strong>109.0 H</strong></td><td>98 - 108</td><td>mmol/L</td></tr><tr><td>Carbon dioxide, total [Moles/volume] in Serum or Plasma</td><td>27.4</td><td>22 - 32</td><td>mmol/L</td></tr><tr><td>Ketones [Presence] in Urine by Test strip</td><td>Urine ketone test = ++</td><td></td><td></td></tr><tr><td>Hemoglobin A1c/Hemoglobin.total in Blood</td><td>4.0</td><td>4 - 6.4</td><td>%</td></tr><tr><td>Glucose [Mass/volume] in Blood</td><td>87.8</td><td>70 - 100</td><td>mg/dL</td></tr><tr><td>Urea nitrogen [Mass/volume] in Blood</td><td>10.9</td><td>7 - 43</td><td>mg/dL</td></tr><tr><td>Creatinine [Mass/volume] in Blood</td><td><strong>3.0 H</strong></td><td>0.6 - 1.1</td><td>mg/dL</td></tr><tr><td>Calcium [Mass/volume] in Blood</td><td>8.9</td><td>8.5 - 10.5</td><td>mg/dL</td></tr><tr><td>Sodium [Moles/volume] in Blood</td><td>140.1</td><td>135 - 145</td><td>mmol/L</td></tr><tr><td>Potassium [Moles/volume] in Blood</td><td>4.3</td><td>3.5 - 5.1</td><td>mmol/L</td></tr><tr><td>Chloride [Moles/volume] in Blood</td><td><strong>109.0 H</strong></td><td>98 - 108</td><td>mmol/L</td></tr><tr><td>Carbon dioxide, total [Moles/volume] in Blood</td><td>27.4</td><td>22 - 29</td><td>mmol/L</td></tr></tbody></table></div>"
                },
                "title": "Chemistry"
              },
              {
                "code": {
                  "coding": [
                    {
                      "code": "$18729-4",
                      "system": "http://loinc.org",
                      "display": "Urinalysis studies (set)"
                    }
                  ],
                  "text": "Urinalysis"
                },
                "entry": [
                  {
                    "reference": "urn:uuid:5f603c46-b349-41cd-aeba-b100604892ac"
                  },
                  {
                    "reference": "urn:uuid:91234965-d5b6-488e-bec7-36e14b56b389"
                  },
                  {
                    "reference": "urn:uuid:c88580ec-446f-4854-af12-b5eb099f6bfd"
                  },
                  {
                    "reference": "urn:uuid:5bd7c80f-7595-4355-a748-261c58c6362a"
                  },
                  {
                    "reference": "urn:uuid:d6ce4ae6-6434-420e-ba4c-1e02abd6c8c4"
                  },
                  {
                    "reference": "urn:uuid:ec1b6178-231f-4fdc-8379-772a45dff820"
                  },
                  {
                    "reference": "urn:uuid:fadd41f0-d491-4b4c-95fc-fda87c45e983"
                  },
                  {
                    "reference": "urn:uuid:3c03bc03-1455-4326-9e6d-a57785af46dd"
                  },
                  {
                    "reference": "urn:uuid:78a971e4-9788-4f7e-a1bf-cfbb47e9305a"
                  },
                  {
                    "reference": "urn:uuid:b765cc26-8743-4584-be1e-ac40fd75b793"
                  },
                  {
                    "reference": "urn:uuid:43ec8543-92b3-4aa0-a8c2-3cf1c1d07ee1"
                  },
                  {
                    "reference": "urn:uuid:c845692f-88dd-4b32-8089-2815f810b34b"
                  }
                ],
                "text": {
                  "status": "generated",
                  "div": "<div xmlns=\"http://www.w3.org/1999/xhtml\"><h3>Urinalysis</h3><table class=\"hl7__eu__lab__report\"><thead><tr><th>Test</th><th>29-APR-2025</th><th>Reference&#xA0;Range</th><th>Unit</th></tr></thead><tbody><tr><td>Glucose [Mass/volume] in Urine by Test strip</td><td><strong>1.1 H</strong></td><td>0.8 - 0</td><td>mg/dL</td></tr><tr><td>Glucose [Presence] in Urine by Test strip</td><td>++</td><td></td><td></td></tr><tr><td>Bilirubin.total [Mass/volume] in Urine by Test strip</td><td><strong>1.2 H</strong></td><td>0 - 1</td><td>mg/dL</td></tr><tr><td>Bilirubin.total [Presence] in Urine by Test strip</td><td>Finding of bilirubin in urine</td><td></td><td></td></tr><tr><td>Ketones [Mass/volume] in Urine by Test strip</td><td><strong>6.8 H</strong></td><td>0 - 4</td><td>mg/dL</td></tr><tr><td>Specific gravity of Urine by Test strip</td><td><strong>1.0 L</strong></td><td>1.005 - 1.03</td><td>{nominal}</td></tr><tr><td>pH of Urine by Test strip</td><td>6.6</td><td>4.6 - 7</td><td>pH</td></tr><tr><td>Protein [Mass/volume] in Urine by Test strip</td><td><strong>211.8 H</strong></td><td>0 - 14</td><td>mg/dL</td></tr><tr><td>Protein [Presence] in Urine by Test strip</td><td>Urine protein test = ++</td><td></td><td></td></tr><tr><td>Nitrite [Presence] in Urine by Test strip</td><td>Urine nitrite negative</td><td></td><td></td></tr><tr><td>Hemoglobin [Presence] in Urine by Test strip</td><td>Urine blood test = negative</td><td></td><td></td></tr><tr><td>Leukocyte esterase [Presence] in Urine by Test strip</td><td>Urine leukocyte test negative</td><td></td><td></td></tr></tbody></table></div>"
                },
                "title": "Urinalysis"
              },
              {
                "code": {
                  "coding": [
                    {
                      "code": "$LP7846-1",
                      "system": "http://loinc.org",
                      "display": "Specimen information"
                    }
                  ],
                  "text": "Specimen information"
                },
                "entry": [
                  {
                    "reference": "urn:uuid:8761b8b4-2f4f-46f8-bf30-c9d9e5a9d732"
                  },
                  {
                    "reference": "urn:uuid:da41395c-ac9a-4a9c-85cd-cdeb98c9590a"
                  },
                  {
                    "reference": "urn:uuid:691d94f7-5bbc-4826-9bd3-52200836e0c6"
                  },
                  {
                    "reference": "urn:uuid:f34afed4-7313-4348-b5f8-1f053660ab13"
                  }
                ],
                "text": {
                  "status": "generated",
                  "div": "<div xmlns=\"http://www.w3.org/1999/xhtml\"><h3>Specimen information</h3><table class=\"hl7__eu__lab__report\"><thead><tr><th>Test</th><th>29-APR-2025</th><th>Specimen</th><th></th></tr></thead><tbody><tr><td>Appearance of Urine</td><td>Cloudy urine</td><td>Urine</td><td></td></tr><tr><td>Odor of Urine</td><td>Urine smell ammoniacal</td><td>Urine</td><td></td></tr><tr><td>Clarity of Urine</td><td>Translucent</td><td>Urine</td><td></td></tr><tr><td>Color of Urine</td><td>Brown color</td><td>Urine</td><td></td></tr></tbody></table></div>"
                },
                "title": "Specimen information"
              }
            ],
            "title": "Laboratory Report"
          },
          {
            "text": {
              "status": "generated",
              "div": "<div xmlns=\"http://www.w3.org/1999/xhtml\"><h3>Annotation</h3><table class=\"hl7__eu__lab__report\"><tr><th>Conclusion and Recommendations based on this report and previous findings known to us</th></tr><tr><td>The patient shows significantly elevated creatinine, proteinuria, glycosuria, ketonuria, and bilirubinuria, with low urine specific gravity and abnormal urine appearance, suggesting impaired renal function, likely acute or chronic kidney disease with possible tubular involvement. Blood glucose and HbA1c are normal, making diabetes less likely. No evidence of urinary tract infection. Recommend further nephrological evaluation and assessment for possible underlying causes of renal impairment.</td></tr></table></div>"
            },
            "code": {
              "coding": [
                {
                  "system": "http://loinc.org",
                  "code": "48767-8",
                  "display": "Annotation comment"
                }
              ]
            },
            "title": "Annotation comment"
          }
        ],
        "status": "final",
        "subject": {
          "reference": "urn:uuid:58550e82-2e0a-4008-940a-8e9f9c2c24f6",
          "display": "Meaghan Neary"
        },
        "date": "2025-04-29T00:11:04Z",
        "title": "Laboratory Report",
        "confidentiality": "N"
      }
    },
    {
      "fullUrl": "urn:uuid:1363bd1d-e38f-4fa7-b5e3-cd01fcf30108",
      "resource": {
        "resourceType": "DiagnosticReport",
        "id": "1363bd1d-e38f-4fa7-b5e3-cd01fcf30108",
        "meta": {
          "profile": [
            "http://hl7.eu/fhir/laboratory/StructureDefinition/DiagnosticReport-eu-lab"
          ]
        },
        "identifier": [
          {
            "assigner": {
              "display": "HL7 Europe"
            },
            "system": "urn:oid:2.16.840.1.113883.2.51.999",
            "value": "82c834ee-c5f0-4ef7-a317-4d9dc8358708"
          }
        ],
        "extension": [
          {
            "url": "http://hl7.org/fhir/5.0/StructureDefinition/extension-DiagnosticReport.composition",
            "valueReference": {
              "reference": "urn:uuid:0e6d140c-2eb6-4a90-a9f7-0f88d1db349a"
            }
          }
        ],
        "category": [
          {
            "coding": [
              {
                "code": "26436-6",
                "system": "http://loinc.org",
                "display": "Laboratory studies (set)"
              }
            ]
          }
        ],
        "specimen": [
          {
            "reference": "urn:uuid:eb41d0e2-2022-44a2-a7aa-1fd5a56fb420"
          },
          {
            "reference": "urn:uuid:99bcba27-0219-483a-b785-2d5379673715"
          },
          {
            "reference": "urn:uuid:d0b86dc2-0a96-4668-8bbb-7bf0f195bdda"
          }
        ],
        "result": [
          {
            "reference": "urn:uuid:3323797a-c755-4410-a72c-1b64b245c497"
          },
          {
            "reference": "urn:uuid:72db9cf7-ae28-46b8-a27e-a67b24fa2b4e"
          },
          {
            "reference": "urn:uuid:75b05d4c-ffa2-47a3-bd42-8c4014176660"
          },
          {
            "reference": "urn:uuid:cfa62119-c602-464e-bba8-1b8adeaa971f"
          },
          {
            "reference": "urn:uuid:1b7d3813-36c5-4599-b541-3d38761c9126"
          },
          {
            "reference": "urn:uuid:80db31f7-98cc-4ebe-a23e-af621d197d34"
          },
          {
            "reference": "urn:uuid:93d1f717-048c-458d-85fb-369b05165872"
          },
          {
            "reference": "urn:uuid:46a1a72c-ccd8-4206-98cc-0fdd07b3c596"
          },
          {
            "reference": "urn:uuid:8761b8b4-2f4f-46f8-bf30-c9d9e5a9d732"
          },
          {
            "reference": "urn:uuid:da41395c-ac9a-4a9c-85cd-cdeb98c9590a"
          },
          {
            "reference": "urn:uuid:691d94f7-5bbc-4826-9bd3-52200836e0c6"
          },
          {
            "reference": "urn:uuid:f34afed4-7313-4348-b5f8-1f053660ab13"
          },
          {
            "reference": "urn:uuid:5f603c46-b349-41cd-aeba-b100604892ac"
          },
          {
            "reference": "urn:uuid:91234965-d5b6-488e-bec7-36e14b56b389"
          },
          {
            "reference": "urn:uuid:c88580ec-446f-4854-af12-b5eb099f6bfd"
          },
          {
            "reference": "urn:uuid:5bd7c80f-7595-4355-a748-261c58c6362a"
          },
          {
            "reference": "urn:uuid:d6ce4ae6-6434-420e-ba4c-1e02abd6c8c4"
          },
          {
            "reference": "urn:uuid:70b187df-b81d-43b4-83b7-9ae05e25e9a0"
          },
          {
            "reference": "urn:uuid:ec1b6178-231f-4fdc-8379-772a45dff820"
          },
          {
            "reference": "urn:uuid:fadd41f0-d491-4b4c-95fc-fda87c45e983"
          },
          {
            "reference": "urn:uuid:3c03bc03-1455-4326-9e6d-a57785af46dd"
          },
          {
            "reference": "urn:uuid:78a971e4-9788-4f7e-a1bf-cfbb47e9305a"
          },
          {
            "reference": "urn:uuid:b765cc26-8743-4584-be1e-ac40fd75b793"
          },
          {
            "reference": "urn:uuid:43ec8543-92b3-4aa0-a8c2-3cf1c1d07ee1"
          },
          {
            "reference": "urn:uuid:c845692f-88dd-4b32-8089-2815f810b34b"
          },
          {
            "reference": "urn:uuid:555b0d42-168a-4845-be14-41a15a619f4d"
          },
          {
            "reference": "urn:uuid:e6482e0a-467d-4e0e-ba10-0e15ebeecd88"
          },
          {
            "reference": "urn:uuid:2d094abd-9118-42ee-ad1b-dcf2d21fa6c8"
          },
          {
            "reference": "urn:uuid:825a4e6f-3a8e-45f0-9103-d0b5af9b7687"
          },
          {
            "reference": "urn:uuid:95b81013-c548-44bb-aa36-a6a50368bb36"
          },
          {
            "reference": "urn:uuid:069fb730-0ef9-4360-93b5-fb0e8e537d46"
          },
          {
            "reference": "urn:uuid:b8824464-1288-4576-b79c-9984c92d6668"
          },
          {
            "reference": "urn:uuid:c7540c5d-2c39-499e-ab11-b893574c5119"
          },
          {
            "reference": "urn:uuid:d1acdb1b-6622-46a3-96a1-a63bb4b045fe"
          }
        ],
        "status": "registered",
        "code": {
          "coding": [
            {
              "code": "11502-2",
              "system": "http://loinc.org",
              "display": "Laboratory report"
            }
          ]
        },
        "subject": {
          "reference": "urn:uuid:58550e82-2e0a-4008-940a-8e9f9c2c24f6",
          "display": "Meaghan Neary"
        }
      }
    },
    {
      "fullUrl": "urn:uuid:58550e82-2e0a-4008-940a-8e9f9c2c24f6",
      "resource": {
        "resourceType": "Patient",
        "id": "58550e82-2e0a-4008-940a-8e9f9c2c24f6",
        "meta": {
          "security": [
            {
              "system": "http://terminology.hl7.org/CodeSystem/v3-ActReason",
              "code": "HTEST"
            },
            {
              "system": "http://terminology.hl7.org/CodeSystem/v3-ActReason",
              "code": "TRAIN"
            }
          ],
          "tag": [
            {
              "system": "https://synderai.net/fhir/CodeSystem/tags",
              "code": "synthetic",
              "display": "SYNDERAI Synthetic data"
            }
          ],
          "profile": [
            "http://hl7.eu/fhir/base/StructureDefinition/patient-eu-core"
          ]
        },
        "identifier": [
          {
            "type": {
              "coding": [
                {
                  "code": "PT",
                  "system": "http://terminology.hl7.org/CodeSystem/v2-0203"
                }
              ]
            },
            "system": "http://ec.europa.eu/identifier/eci",
            "value": "1586-567257-8"
          },
          {
            "type": {
              "coding": [
                {
                  "code": "MR",
                  "system": "http://terminology.hl7.org/CodeSystem/v2-0203"
                }
              ]
            },
            "system": "http://local.setting.eu/identifier",
            "value": "443e6379-f231-b364-3ccb-644740a1aa2a"
          }
        ],
        "name": [
          {
            "family": "Neary"
          },
          {
            "given": [
              "Meaghan"
            ]
          },
          {
            "text": "Meaghan Neary"
          }
        ],
        "address": [
          {
            "line": [
              "64 Linskey Street"
            ],
            "use": "home",
            "type": "physical",
            "postalCode": "D02",
            "city": "Dublin",
            "country": "Ireland"
          }
        ],
        "telecom": [
          {
            "system": "phone",
            "value": "001-967-573-0911x465"
          }
        ],
        "extension": [
          {
            "url": "http://hl7.org/fhir/StructureDefinition/patient-nationality",
            "valueCodeableConcept": {
              "coding": [
                {
                  "code": "IE",
                  "system": "http://hl7.org/fhir/ValueSet/country"
                }
              ]
            }
          }
        ],
        "text": {
          "status": "generated",
          "div": "<div xmlns=\"http://www.w3.org/1999/xhtml\"><table class=\"hl7__ips\"><tr><td>Meaghan Neary</td><td>female</td><td>19-Dec-1960</td></tr></table></div>"
        },
        "gender": "female",
        "birthDate": "1960-12-19"
      }
    },
    {
      "fullUrl": "urn:uuid:ae7b1867-f218-4665-95e3-c3a8984061e2",
      "resource": {
        "resourceType": "ServiceRequest",
        "id": "ae7b1867-f218-4665-95e3-c3a8984061e2",
        "meta": {
          "profile": [
            "http://hl7.eu/fhir/laboratory/StructureDefinition/ServiceRequest-eu-lab"
          ]
        },
        "identifier": [
          {
            "system": "http://example.org",
            "value": "46bbb39f-ecbe-4515-b851-22f1f4490d16"
          }
        ],
        "specimen": [
          {
            "reference": "urn:uuid:eb41d0e2-2022-44a2-a7aa-1fd5a56fb420"
          },
          {
            "reference": "urn:uuid:99bcba27-0219-483a-b785-2d5379673715"
          },
          {
            "reference": "urn:uuid:d0b86dc2-0a96-4668-8bbb-7bf0f195bdda"
          }
        ],
        "reasonCode": [
          {
            "coding": [
              {
                "code": "55822004",
                "system": "http://snomed.info/sct",
                "display": "Hyperlipidemia"
              }
            ]
          },
          {
            "coding": [
              {
                "code": "433144002",
                "system": "http://snomed.info/sct",
                "display": "Chronic kidney disease stage 3"
              }
            ]
          },
          {
            "coding": [
              {
                "code": "157141000119108",
                "system": "http://snomed.info/sct",
                "display": "Proteinuria due to type 2 diabetes mellitus"
              }
            ]
          },
          {
            "coding": [
              {
                "code": "431856006",
                "system": "http://snomed.info/sct",
                "display": "Chronic kidney disease stage 2"
              }
            ]
          },
          {
            "coding": [
              {
                "code": "90781000119102",
                "system": "http://snomed.info/sct",
                "display": "Microalbuminuria due to type 2 diabetes mellitus"
              }
            ]
          },
          {
            "coding": [
              {
                "code": "127013003",
                "system": "http://snomed.info/sct",
                "display": "Disorder of kidney due to diabetes mellitus"
              }
            ]
          },
          {
            "coding": [
              {
                "code": "431855005",
                "system": "http://snomed.info/sct",
                "display": "Chronic kidney disease stage 1"
              }
            ]
          },
          {
            "coding": [
              {
                "code": "237602007",
                "system": "http://snomed.info/sct",
                "display": "Metabolic syndrome X"
              }
            ]
          },
          {
            "coding": [
              {
                "code": "271737000",
                "system": "http://snomed.info/sct",
                "display": "Anemia"
              }
            ]
          },
          {
            "coding": [
              {
                "code": "15777000",
                "system": "http://snomed.info/sct",
                "display": "Prediabetes"
              }
            ]
          },
          {
            "coding": [
              {
                "code": "59621000",
                "system": "http://snomed.info/sct",
                "display": "Essential hypertension"
              }
            ]
          }
        ],
        "status": "active",
        "intent": "order",
        "code": {
          "coding": [
            {
              "code": "108252007",
              "system": "http://snomed.info/sct",
              "display": "Laboratory procedure"
            }
          ]
        },
        "subject": {
          "reference": "urn:uuid:58550e82-2e0a-4008-940a-8e9f9c2c24f6",
          "display": "Meaghan Neary"
        },
        "requester": {
          "reference": "urn:uuid:b7dfa228-6062-4474-ade2-aaea7e452f0f"
        }
      }
    },
    {
      "fullUrl": "urn:uuid:b7dfa228-6062-4474-ade2-aaea7e452f0f",
      "resource": {
        "resourceType": "PractitionerRole",
        "id": "b7dfa228-6062-4474-ade2-aaea7e452f0f",
        "meta": {
          "profile": [
            "http://hl7.eu/fhir/base/StructureDefinition/practitionerRole-eu"
          ]
        },
        "text": {
          "status": "generated",
          "div": "<div xmlns=\"http://www.w3.org/1999/xhtml\">Provider Role Id: b7dfa228-6062-4474-ade2-aaea7e452f0f</div>"
        },
        "organization": {
          "reference": "urn:uuid:a12dba45-30b0-4162-a426-c7e2ab3795e3"
        }
      }
    },
    {
      "fullUrl": "urn:uuid:a12dba45-30b0-4162-a426-c7e2ab3795e3",
      "resource": {
        "resourceType": "Organization",
        "id": "a12dba45-30b0-4162-a426-c7e2ab3795e3",
        "meta": {
          "profile": [
            "http://hl7.eu/fhir/base/StructureDefinition/organization-eu"
          ]
        },
        "identifier": [
          {
            "assigner": {
              "display": "HL7 Europe"
            },
            "system": "urn:oid:2.16.840.1.113883.2.51.999",
            "value": "d725798a-ebfb-47d6-9e86-351166e689d8"
          }
        ],
        "address": [
          {
            "line": [
              "Parnell Square West nan"
            ],
            "city": "Dublin",
            "postalCode": "D01",
            "country": "Ireland"
          }
        ],
        "text": {
          "status": "generated",
          "div": "<div xmlns=\"http://www.w3.org/1999/xhtml\">Provider Organization: Rotunda Hospital</div>"
        },
        "name": "Rotunda Hospital"
      }
    },
    {
      "fullUrl": "urn:uuid:eb41d0e2-2022-44a2-a7aa-1fd5a56fb420",
      "resource": {
        "resourceType": "Specimen",
        "id": "eb41d0e2-2022-44a2-a7aa-1fd5a56fb420",
        "meta": {
          "profile": [
            "http://hl7.eu/fhir/laboratory/StructureDefinition/Specimen-eu-lab"
          ]
        },
        "collection": {
          "collectedDateTime": "2025-04-28"
        },
        "text": {
          "status": "generated",
          "div": "<div xmlns=\"http://www.w3.org/1999/xhtml\"><table class=\"hl7__eu__lab__report\"><tr><th>Specimen</th><th>Collection Date</th></tr><tr><td>Acellular blood (serum or plasma) specimen</td><td><span class=\"nb\">28-Apr-2025</span></td></tr></table></div>"
        },
        "type": {
          "coding": [
            {
              "code": "122592007",
              "system": "http://snomed.info/sct",
              "display": "Acellular blood (serum or plasma) specimen"
            }
          ]
        }
      }
    },
    {
      "fullUrl": "urn:uuid:99bcba27-0219-483a-b785-2d5379673715",
      "resource": {
        "resourceType": "Specimen",
        "id": "99bcba27-0219-483a-b785-2d5379673715",
        "meta": {
          "profile": [
            "http://hl7.eu/fhir/laboratory/StructureDefinition/Specimen-eu-lab"
          ]
        },
        "collection": {
          "collectedDateTime": "2025-04-28"
        },
        "text": {
          "status": "generated",
          "div": "<div xmlns=\"http://www.w3.org/1999/xhtml\"><table class=\"hl7__eu__lab__report\"><tr><th>Specimen</th><th>Collection Date</th></tr><tr><td>Urine specimen</td><td><span class=\"nb\">28-Apr-2025</span></td></tr></table></div>"
        },
        "type": {
          "coding": [
            {
              "code": "122575003",
              "system": "http://snomed.info/sct",
              "display": "Urine specimen"
            }
          ]
        }
      }
    },
    {
      "fullUrl": "urn:uuid:d0b86dc2-0a96-4668-8bbb-7bf0f195bdda",
      "resource": {
        "resourceType": "Specimen",
        "id": "d0b86dc2-0a96-4668-8bbb-7bf0f195bdda",
        "meta": {
          "profile": [
            "http://hl7.eu/fhir/laboratory/StructureDefinition/Specimen-eu-lab"
          ]
        },
        "collection": {
          "collectedDateTime": "2025-04-28"
        },
        "text": {
          "status": "generated",
          "div": "<div xmlns=\"http://www.w3.org/1999/xhtml\"><table class=\"hl7__eu__lab__report\"><tr><th>Specimen</th><th>Collection Date</th></tr><tr><td>Whole blood specimen (specimen)</td><td><span class=\"nb\">28-Apr-2025</span></td></tr></table></div>"
        },
        "type": {
          "coding": [
            {
              "code": "258580003",
              "system": "http://snomed.info/sct",
              "display": "Whole blood specimen (specimen)"
            }
          ]
        }
      }
    },
    {
      "fullUrl": "urn:uuid:3323797a-c755-4410-a72c-1b64b245c497",
      "resource": {
        "resourceType": "Observation",
        "id": "3323797a-c755-4410-a72c-1b64b245c497",
        "meta": {
          "profile": [
            "http://hl7.eu/fhir/laboratory/StructureDefinition/Observation-resultslab-eu-lab"
          ]
        },
        "performer": [
          {
            "display": "The Central European Lab"
          }
        ],
        "category": [
          {
            "coding": [
              {
                "system": "http://terminology.hl7.org/CodeSystem/observation-category",
                "code": "laboratory"
              }
            ]
          }
        ],
        "code": {
          "coding": [
            {
              "code": "2345-7",
              "system": "http://loinc.org",
              "display": "Glucose [Mass/volume] in Serum or Plasma"
            }
          ],
          "text": "Glucose [Mass/volume] in Serum or Plasma"
        },
        "valueQuantity": {
          "system": "http://unitsofmeasure.org",
          "value": 87.8,
          "unit": "mg/dL",
          "code": "mg/dL"
        },
        "referenceRange": [
          {
            "low": {
              "value": 70,
              "code": "mg/dL",
              "system": "http://unitsofmeasure.org"
            }
          },
          {
            "high": {
              "value": 99,
              "code": "mg/dL",
              "system": "http://unitsofmeasure.org"
            }
          }
        ],
        "text": {
          "status": "generated",
          "div": "<div xmlns=\"http://www.w3.org/1999/xhtml\"><table class=\"hl7__eu__lab__report\"><tr><th>Test</th><th>29-Apr-2025</th><th>Reference&#xA0;Range</th><th>Unit</th></tr><tr><td>Glucose [Mass/volume] in Serum or Plasma</td><td>87.8</td><td>70 - 99</td><td></td><td>mg/dL</td></tr></table></div>"
        },
        "status": "final",
        "subject": {
          "reference": "urn:uuid:58550e82-2e0a-4008-940a-8e9f9c2c24f6",
          "display": "Meaghan Neary"
        },
        "effectiveDateTime": "2025-04-28T22:11:04Z",
        "specimen": {
          "reference": "urn:uuid:eb41d0e2-2022-44a2-a7aa-1fd5a56fb420"
        }
      }
    },
    {
      "fullUrl": "urn:uuid:72db9cf7-ae28-46b8-a27e-a67b24fa2b4e",
      "resource": {
        "resourceType": "Observation",
        "id": "72db9cf7-ae28-46b8-a27e-a67b24fa2b4e",
        "meta": {
          "profile": [
            "http://hl7.eu/fhir/laboratory/StructureDefinition/Observation-resultslab-eu-lab"
          ]
        },
        "performer": [
          {
            "display": "The Central European Lab"
          }
        ],
        "category": [
          {
            "coding": [
              {
                "system": "http://terminology.hl7.org/CodeSystem/observation-category",
                "code": "laboratory"
              }
            ]
          }
        ],
        "code": {
          "coding": [
            {
              "code": "3094-0",
              "system": "http://loinc.org",
              "display": "Urea nitrogen [Mass/volume] in Serum or Plasma"
            }
          ],
          "text": "Urea nitrogen [Mass/volume] in Serum or Plasma"
        },
        "valueQuantity": {
          "system": "http://unitsofmeasure.org",
          "value": 10.9,
          "unit": "mg/dL",
          "code": "mg/dL"
        },
        "referenceRange": [
          {
            "low": {
              "value": 7,
              "code": "mg/dL",
              "system": "http://unitsofmeasure.org"
            }
          },
          {
            "high": {
              "value": 50,
              "code": "mg/dL",
              "system": "http://unitsofmeasure.org"
            }
          }
        ],
        "text": {
          "status": "generated",
          "div": "<div xmlns=\"http://www.w3.org/1999/xhtml\"><table class=\"hl7__eu__lab__report\"><tr><th>Test</th><th>29-Apr-2025</th><th>Reference&#xA0;Range</th><th>Unit</th></tr><tr><td>Urea nitrogen [Mass/volume] in Serum or Plasma</td><td>10.9</td><td>7 - 50</td><td></td><td>mg/dL</td></tr></table></div>"
        },
        "status": "final",
        "subject": {
          "reference": "urn:uuid:58550e82-2e0a-4008-940a-8e9f9c2c24f6",
          "display": "Meaghan Neary"
        },
        "effectiveDateTime": "2025-04-28T22:11:04Z",
        "specimen": {
          "reference": "urn:uuid:eb41d0e2-2022-44a2-a7aa-1fd5a56fb420"
        }
      }
    },
    {
      "fullUrl": "urn:uuid:75b05d4c-ffa2-47a3-bd42-8c4014176660",
      "resource": {
        "resourceType": "Observation",
        "id": "75b05d4c-ffa2-47a3-bd42-8c4014176660",
        "meta": {
          "profile": [
            "http://hl7.eu/fhir/laboratory/StructureDefinition/Observation-resultslab-eu-lab"
          ]
        },
        "performer": [
          {
            "display": "The Central European Lab"
          }
        ],
        "category": [
          {
            "coding": [
              {
                "system": "http://terminology.hl7.org/CodeSystem/observation-category",
                "code": "laboratory"
              }
            ]
          }
        ],
        "code": {
          "coding": [
            {
              "code": "2160-0",
              "system": "http://loinc.org",
              "display": "Creatinine [Mass/volume] in Serum or Plasma"
            }
          ],
          "text": "Creatinine [Mass/volume] in Serum or Plasma"
        },
        "valueQuantity": {
          "system": "http://unitsofmeasure.org",
          "value": 2,
          "unit": "mg/dL",
          "code": "mg/dL"
        },
        "referenceRange": [
          {
            "low": {
              "value": 0.6,
              "code": "mg/dL",
              "system": "http://unitsofmeasure.org"
            }
          },
          {
            "high": {
              "value": 1.1,
              "code": "mg/dL",
              "system": "http://unitsofmeasure.org"
            }
          }
        ],
        "interpretation": [
          {
            "coding": [
              {
                "code": "H",
                "system": "http://terminology.hl7.org/CodeSystem/v3-ObservationInterpretation",
                "display": "High"
              }
            ]
          }
        ],
        "text": {
          "status": "generated",
          "div": "<div xmlns=\"http://www.w3.org/1999/xhtml\"><table class=\"hl7__eu__lab__report\"><tr><th>Test</th><th>29-Apr-2025</th><th>Reference&#xA0;Range</th><th>Unit</th></tr><tr><td>Creatinine [Mass/volume] in Serum or Plasma</td><td>2.0</td><td>0.6 - 1.1</td><td>H</td><td>mg/dL</td></tr></table></div>"
        },
        "status": "final",
        "subject": {
          "reference": "urn:uuid:58550e82-2e0a-4008-940a-8e9f9c2c24f6",
          "display": "Meaghan Neary"
        },
        "effectiveDateTime": "2025-04-28T22:11:04Z",
        "specimen": {
          "reference": "urn:uuid:eb41d0e2-2022-44a2-a7aa-1fd5a56fb420"
        }
      }
    },
    {
      "fullUrl": "urn:uuid:cfa62119-c602-464e-bba8-1b8adeaa971f",
      "resource": {
        "resourceType": "Observation",
        "id": "cfa62119-c602-464e-bba8-1b8adeaa971f",
        "meta": {
          "profile": [
            "http://hl7.eu/fhir/laboratory/StructureDefinition/Observation-resultslab-eu-lab"
          ]
        },
        "performer": [
          {
            "display": "The Central European Lab"
          }
        ],
        "category": [
          {
            "coding": [
              {
                "system": "http://terminology.hl7.org/CodeSystem/observation-category",
                "code": "laboratory"
              }
            ]
          }
        ],
        "code": {
          "coding": [
            {
              "code": "17861-6",
              "system": "http://loinc.org",
              "display": "Calcium [Mass/volume] in Serum or Plasma"
            }
          ],
          "text": "Calcium [Mass/volume] in Serum or Plasma"
        },
        "valueQuantity": {
          "system": "http://unitsofmeasure.org",
          "value": 8.9,
          "unit": "mg/dL",
          "code": "mg/dL"
        },
        "referenceRange": [
          {
            "low": {
              "value": 8.6,
              "code": "mg/dL",
              "system": "http://unitsofmeasure.org"
            }
          },
          {
            "high": {
              "value": 10.4,
              "code": "mg/dL",
              "system": "http://unitsofmeasure.org"
            }
          }
        ],
        "text": {
          "status": "generated",
          "div": "<div xmlns=\"http://www.w3.org/1999/xhtml\"><table class=\"hl7__eu__lab__report\"><tr><th>Test</th><th>29-Apr-2025</th><th>Reference&#xA0;Range</th><th>Unit</th></tr><tr><td>Calcium [Mass/volume] in Serum or Plasma</td><td>8.9</td><td>8.6 - 10.4</td><td></td><td>mg/dL</td></tr></table></div>"
        },
        "status": "final",
        "subject": {
          "reference": "urn:uuid:58550e82-2e0a-4008-940a-8e9f9c2c24f6",
          "display": "Meaghan Neary"
        },
        "effectiveDateTime": "2025-04-28T22:11:04Z",
        "specimen": {
          "reference": "urn:uuid:eb41d0e2-2022-44a2-a7aa-1fd5a56fb420"
        }
      }
    },
    {
      "fullUrl": "urn:uuid:1b7d3813-36c5-4599-b541-3d38761c9126",
      "resource": {
        "resourceType": "Observation",
        "id": "1b7d3813-36c5-4599-b541-3d38761c9126",
        "meta": {
          "profile": [
            "http://hl7.eu/fhir/laboratory/StructureDefinition/Observation-resultslab-eu-lab"
          ]
        },
        "performer": [
          {
            "display": "The Central European Lab"
          }
        ],
        "category": [
          {
            "coding": [
              {
                "system": "http://terminology.hl7.org/CodeSystem/observation-category",
                "code": "laboratory"
              }
            ]
          }
        ],
        "code": {
          "coding": [
            {
              "code": "2951-2",
              "system": "http://loinc.org",
              "display": "Sodium [Moles/volume] in Serum or Plasma"
            }
          ],
          "text": "Sodium [Moles/volume] in Serum or Plasma"
        },
        "valueQuantity": {
          "system": "http://unitsofmeasure.org",
          "value": 140.1,
          "unit": "mmol/L",
          "code": "mmol/L"
        },
        "referenceRange": [
          {
            "low": {
              "value": 135,
              "code": "mmol/L",
              "system": "http://unitsofmeasure.org"
            }
          },
          {
            "high": {
              "value": 145,
              "code": "mmol/L",
              "system": "http://unitsofmeasure.org"
            }
          }
        ],
        "text": {
          "status": "generated",
          "div": "<div xmlns=\"http://www.w3.org/1999/xhtml\"><table class=\"hl7__eu__lab__report\"><tr><th>Test</th><th>29-Apr-2025</th><th>Reference&#xA0;Range</th><th>Unit</th></tr><tr><td>Sodium [Moles/volume] in Serum or Plasma</td><td>140.1</td><td>135 - 145</td><td></td><td>mmol/L</td></tr></table></div>"
        },
        "status": "final",
        "subject": {
          "reference": "urn:uuid:58550e82-2e0a-4008-940a-8e9f9c2c24f6",
          "display": "Meaghan Neary"
        },
        "effectiveDateTime": "2025-04-28T22:11:04Z",
        "specimen": {
          "reference": "urn:uuid:eb41d0e2-2022-44a2-a7aa-1fd5a56fb420"
        }
      }
    },
    {
      "fullUrl": "urn:uuid:80db31f7-98cc-4ebe-a23e-af621d197d34",
      "resource": {
        "resourceType": "Observation",
        "id": "80db31f7-98cc-4ebe-a23e-af621d197d34",
        "meta": {
          "profile": [
            "http://hl7.eu/fhir/laboratory/StructureDefinition/Observation-resultslab-eu-lab"
          ]
        },
        "performer": [
          {
            "display": "The Central European Lab"
          }
        ],
        "category": [
          {
            "coding": [
              {
                "system": "http://terminology.hl7.org/CodeSystem/observation-category",
                "code": "laboratory"
              }
            ]
          }
        ],
        "code": {
          "coding": [
            {
              "code": "2823-3",
              "system": "http://loinc.org",
              "display": "Potassium [Moles/volume] in Serum or Plasma"
            }
          ],
          "text": "Potassium [Moles/volume] in Serum or Plasma"
        },
        "valueQuantity": {
          "system": "http://unitsofmeasure.org",
          "value": 4.3,
          "unit": "mmol/L",
          "code": "mmol/L"
        },
        "referenceRange": [
          {
            "low": {
              "value": 3.5,
              "code": "mmol/L",
              "system": "http://unitsofmeasure.org"
            }
          },
          {
            "high": {
              "value": 5.1,
              "code": "mmol/L",
              "system": "http://unitsofmeasure.org"
            }
          }
        ],
        "text": {
          "status": "generated",
          "div": "<div xmlns=\"http://www.w3.org/1999/xhtml\"><table class=\"hl7__eu__lab__report\"><tr><th>Test</th><th>29-Apr-2025</th><th>Reference&#xA0;Range</th><th>Unit</th></tr><tr><td>Potassium [Moles/volume] in Serum or Plasma</td><td>4.3</td><td>3.5 - 5.1</td><td></td><td>mmol/L</td></tr></table></div>"
        },
        "status": "final",
        "subject": {
          "reference": "urn:uuid:58550e82-2e0a-4008-940a-8e9f9c2c24f6",
          "display": "Meaghan Neary"
        },
        "effectiveDateTime": "2025-04-28T22:11:04Z",
        "specimen": {
          "reference": "urn:uuid:eb41d0e2-2022-44a2-a7aa-1fd5a56fb420"
        }
      }
    },
    {
      "fullUrl": "urn:uuid:93d1f717-048c-458d-85fb-369b05165872",
      "resource": {
        "resourceType": "Observation",
        "id": "93d1f717-048c-458d-85fb-369b05165872",
        "meta": {
          "profile": [
            "http://hl7.eu/fhir/laboratory/StructureDefinition/Observation-resultslab-eu-lab"
          ]
        },
        "performer": [
          {
            "display": "The Central European Lab"
          }
        ],
        "category": [
          {
            "coding": [
              {
                "system": "http://terminology.hl7.org/CodeSystem/observation-category",
                "code": "laboratory"
              }
            ]
          }
        ],
        "code": {
          "coding": [
            {
              "code": "2075-0",
              "system": "http://loinc.org",
              "display": "Chloride [Moles/volume] in Serum or Plasma"
            }
          ],
          "text": "Chloride [Moles/volume] in Serum or Plasma"
        },
        "valueQuantity": {
          "system": "http://unitsofmeasure.org",
          "value": 109,
          "unit": "mmol/L",
          "code": "mmol/L"
        },
        "referenceRange": [
          {
            "low": {
              "value": 98,
              "code": "mmol/L",
              "system": "http://unitsofmeasure.org"
            }
          },
          {
            "high": {
              "value": 108,
              "code": "mmol/L",
              "system": "http://unitsofmeasure.org"
            }
          }
        ],
        "interpretation": [
          {
            "coding": [
              {
                "code": "H",
                "system": "http://terminology.hl7.org/CodeSystem/v3-ObservationInterpretation",
                "display": "High"
              }
            ]
          }
        ],
        "text": {
          "status": "generated",
          "div": "<div xmlns=\"http://www.w3.org/1999/xhtml\"><table class=\"hl7__eu__lab__report\"><tr><th>Test</th><th>29-Apr-2025</th><th>Reference&#xA0;Range</th><th>Unit</th></tr><tr><td>Chloride [Moles/volume] in Serum or Plasma</td><td>109.0</td><td>98 - 108</td><td>H</td><td>mmol/L</td></tr></table></div>"
        },
        "status": "final",
        "subject": {
          "reference": "urn:uuid:58550e82-2e0a-4008-940a-8e9f9c2c24f6",
          "display": "Meaghan Neary"
        },
        "effectiveDateTime": "2025-04-28T22:11:04Z",
        "specimen": {
          "reference": "urn:uuid:eb41d0e2-2022-44a2-a7aa-1fd5a56fb420"
        }
      }
    },
    {
      "fullUrl": "urn:uuid:46a1a72c-ccd8-4206-98cc-0fdd07b3c596",
      "resource": {
        "resourceType": "Observation",
        "id": "46a1a72c-ccd8-4206-98cc-0fdd07b3c596",
        "meta": {
          "profile": [
            "http://hl7.eu/fhir/laboratory/StructureDefinition/Observation-resultslab-eu-lab"
          ]
        },
        "performer": [
          {
            "display": "The Central European Lab"
          }
        ],
        "category": [
          {
            "coding": [
              {
                "system": "http://terminology.hl7.org/CodeSystem/observation-category",
                "code": "laboratory"
              }
            ]
          }
        ],
        "code": {
          "coding": [
            {
              "code": "2028-9",
              "system": "http://loinc.org",
              "display": "Carbon dioxide, total [Moles/volume] in Serum or Plasma"
            }
          ],
          "text": "Carbon dioxide, total [Moles/volume] in Serum or Plasma"
        },
        "valueQuantity": {
          "system": "http://unitsofmeasure.org",
          "value": 27.4,
          "unit": "mmol/L",
          "code": "mmol/L"
        },
        "referenceRange": [
          {
            "low": {
              "value": 22,
              "code": "mmol/L",
              "system": "http://unitsofmeasure.org"
            }
          },
          {
            "high": {
              "value": 32,
              "code": "mmol/L",
              "system": "http://unitsofmeasure.org"
            }
          }
        ],
        "text": {
          "status": "generated",
          "div": "<div xmlns=\"http://www.w3.org/1999/xhtml\"><table class=\"hl7__eu__lab__report\"><tr><th>Test</th><th>29-Apr-2025</th><th>Reference&#xA0;Range</th><th>Unit</th></tr><tr><td>Carbon dioxide, total [Moles/volume] in Serum or Plasma</td><td>27.4</td><td>22 - 32</td><td></td><td>mmol/L</td></tr></table></div>"
        },
        "status": "final",
        "subject": {
          "reference": "urn:uuid:58550e82-2e0a-4008-940a-8e9f9c2c24f6",
          "display": "Meaghan Neary"
        },
        "effectiveDateTime": "2025-04-28T22:11:04Z",
        "specimen": {
          "reference": "urn:uuid:eb41d0e2-2022-44a2-a7aa-1fd5a56fb420"
        }
      }
    },
    {
      "fullUrl": "urn:uuid:8761b8b4-2f4f-46f8-bf30-c9d9e5a9d732",
      "resource": {
        "resourceType": "Observation",
        "id": "8761b8b4-2f4f-46f8-bf30-c9d9e5a9d732",
        "meta": {
          "profile": [
            "http://hl7.eu/fhir/laboratory/StructureDefinition/Observation-resultslab-eu-lab"
          ]
        },
        "performer": [
          {
            "display": "The Central European Lab"
          }
        ],
        "category": [
          {
            "coding": [
              {
                "system": "http://terminology.hl7.org/CodeSystem/observation-category",
                "code": "laboratory"
              }
            ]
          }
        ],
        "code": {
          "coding": [
            {
              "code": "5767-9",
              "system": "http://loinc.org",
              "display": "Appearance of Urine"
            }
          ],
          "text": "Appearance of Urine"
        },
        "text": {
          "status": "generated",
          "div": "<div xmlns=\"http://www.w3.org/1999/xhtml\"><table class=\"hl7__eu__lab__report\"><tr><th>Test</th><th>29-Apr-2025</th><th>Reference&#xA0;Range</th><th>Unit</th></tr><tr><td>Appearance of Urine</td></tr></table></div>"
        },
        "status": "final",
        "subject": {
          "reference": "urn:uuid:58550e82-2e0a-4008-940a-8e9f9c2c24f6",
          "display": "Meaghan Neary"
        },
        "effectiveDateTime": "2025-04-28T22:11:04Z",
        "specimen": {
          "reference": "urn:uuid:99bcba27-0219-483a-b785-2d5379673715"
        }
      }
    },
    {
      "fullUrl": "urn:uuid:da41395c-ac9a-4a9c-85cd-cdeb98c9590a",
      "resource": {
        "resourceType": "Observation",
        "id": "da41395c-ac9a-4a9c-85cd-cdeb98c9590a",
        "meta": {
          "profile": [
            "http://hl7.eu/fhir/laboratory/StructureDefinition/Observation-resultslab-eu-lab"
          ]
        },
        "performer": [
          {
            "display": "The Central European Lab"
          }
        ],
        "category": [
          {
            "coding": [
              {
                "system": "http://terminology.hl7.org/CodeSystem/observation-category",
                "code": "laboratory"
              }
            ]
          }
        ],
        "code": {
          "coding": [
            {
              "code": "34533-0",
              "system": "http://loinc.org",
              "display": "Odor of Urine"
            }
          ],
          "text": "Odor of Urine"
        },
        "text": {
          "status": "generated",
          "div": "<div xmlns=\"http://www.w3.org/1999/xhtml\"><table class=\"hl7__eu__lab__report\"><tr><th>Test</th><th>29-Apr-2025</th><th>Reference&#xA0;Range</th><th>Unit</th></tr><tr><td>Odor of Urine</td></tr></table></div>"
        },
        "status": "final",
        "subject": {
          "reference": "urn:uuid:58550e82-2e0a-4008-940a-8e9f9c2c24f6",
          "display": "Meaghan Neary"
        },
        "effectiveDateTime": "2025-04-28T22:11:04Z",
        "specimen": {
          "reference": "urn:uuid:99bcba27-0219-483a-b785-2d5379673715"
        }
      }
    },
    {
      "fullUrl": "urn:uuid:691d94f7-5bbc-4826-9bd3-52200836e0c6",
      "resource": {
        "resourceType": "Observation",
        "id": "691d94f7-5bbc-4826-9bd3-52200836e0c6",
        "meta": {
          "profile": [
            "http://hl7.eu/fhir/laboratory/StructureDefinition/Observation-resultslab-eu-lab"
          ]
        },
        "performer": [
          {
            "display": "The Central European Lab"
          }
        ],
        "category": [
          {
            "coding": [
              {
                "system": "http://terminology.hl7.org/CodeSystem/observation-category",
                "code": "laboratory"
              }
            ]
          }
        ],
        "code": {
          "coding": [
            {
              "code": "32167-9",
              "system": "http://loinc.org",
              "display": "Clarity of Urine"
            }
          ],
          "text": "Clarity of Urine"
        },
        "text": {
          "status": "generated",
          "div": "<div xmlns=\"http://www.w3.org/1999/xhtml\"><table class=\"hl7__eu__lab__report\"><tr><th>Test</th><th>29-Apr-2025</th><th>Reference&#xA0;Range</th><th>Unit</th></tr><tr><td>Clarity of Urine</td></tr></table></div>"
        },
        "status": "final",
        "subject": {
          "reference": "urn:uuid:58550e82-2e0a-4008-940a-8e9f9c2c24f6",
          "display": "Meaghan Neary"
        },
        "effectiveDateTime": "2025-04-28T22:11:04Z",
        "specimen": {
          "reference": "urn:uuid:99bcba27-0219-483a-b785-2d5379673715"
        }
      }
    },
    {
      "fullUrl": "urn:uuid:f34afed4-7313-4348-b5f8-1f053660ab13",
      "resource": {
        "resourceType": "Observation",
        "id": "f34afed4-7313-4348-b5f8-1f053660ab13",
        "meta": {
          "profile": [
            "http://hl7.eu/fhir/laboratory/StructureDefinition/Observation-resultslab-eu-lab"
          ]
        },
        "performer": [
          {
            "display": "The Central European Lab"
          }
        ],
        "category": [
          {
            "coding": [
              {
                "system": "http://terminology.hl7.org/CodeSystem/observation-category",
                "code": "laboratory"
              }
            ]
          }
        ],
        "code": {
          "coding": [
            {
              "code": "5778-6",
              "system": "http://loinc.org",
              "display": "Color of Urine"
            }
          ],
          "text": "Color of Urine"
        },
        "text": {
          "status": "generated",
          "div": "<div xmlns=\"http://www.w3.org/1999/xhtml\"><table class=\"hl7__eu__lab__report\"><tr><th>Test</th><th>29-Apr-2025</th><th>Reference&#xA0;Range</th><th>Unit</th></tr><tr><td>Color of Urine</td></tr></table></div>"
        },
        "status": "final",
        "subject": {
          "reference": "urn:uuid:58550e82-2e0a-4008-940a-8e9f9c2c24f6",
          "display": "Meaghan Neary"
        },
        "effectiveDateTime": "2025-04-28T22:11:04Z",
        "specimen": {
          "reference": "urn:uuid:99bcba27-0219-483a-b785-2d5379673715"
        }
      }
    },
    {
      "fullUrl": "urn:uuid:5f603c46-b349-41cd-aeba-b100604892ac",
      "resource": {
        "resourceType": "Observation",
        "id": "5f603c46-b349-41cd-aeba-b100604892ac",
        "meta": {
          "profile": [
            "http://hl7.eu/fhir/laboratory/StructureDefinition/Observation-resultslab-eu-lab"
          ]
        },
        "performer": [
          {
            "display": "The Central European Lab"
          }
        ],
        "category": [
          {
            "coding": [
              {
                "system": "http://terminology.hl7.org/CodeSystem/observation-category",
                "code": "laboratory"
              }
            ]
          }
        ],
        "code": {
          "coding": [
            {
              "code": "5792-7",
              "system": "http://loinc.org",
              "display": "Glucose [Mass/volume] in Urine by Test strip"
            }
          ],
          "text": "Glucose [Mass/volume] in Urine by Test strip"
        },
        "valueQuantity": {
          "system": "http://unitsofmeasure.org",
          "value": 1.1,
          "unit": "mg/dL",
          "code": "mg/dL"
        },
        "referenceRange": [
          {
            "low": {
              "value": 0.8,
              "code": "mg/dL",
              "system": "http://unitsofmeasure.org"
            }
          },
          {
            "high": {
              "value": 0,
              "code": "mg/dL",
              "system": "http://unitsofmeasure.org"
            }
          }
        ],
        "interpretation": [
          {
            "coding": [
              {
                "code": "H",
                "system": "http://terminology.hl7.org/CodeSystem/v3-ObservationInterpretation",
                "display": "High"
              }
            ]
          }
        ],
        "text": {
          "status": "generated",
          "div": "<div xmlns=\"http://www.w3.org/1999/xhtml\"><table class=\"hl7__eu__lab__report\"><tr><th>Test</th><th>29-Apr-2025</th><th>Reference&#xA0;Range</th><th>Unit</th></tr><tr><td>Glucose [Mass/volume] in Urine by Test strip</td><td>1.1</td><td>0.8 - 0</td><td>H</td><td>mg/dL</td></tr></table></div>"
        },
        "status": "final",
        "subject": {
          "reference": "urn:uuid:58550e82-2e0a-4008-940a-8e9f9c2c24f6",
          "display": "Meaghan Neary"
        },
        "effectiveDateTime": "2025-04-28T22:11:04Z",
        "specimen": {
          "reference": "urn:uuid:99bcba27-0219-483a-b785-2d5379673715"
        }
      }
    },
    {
      "fullUrl": "urn:uuid:91234965-d5b6-488e-bec7-36e14b56b389",
      "resource": {
        "resourceType": "Observation",
        "id": "91234965-d5b6-488e-bec7-36e14b56b389",
        "meta": {
          "profile": [
            "http://hl7.eu/fhir/laboratory/StructureDefinition/Observation-resultslab-eu-lab"
          ]
        },
        "performer": [
          {
            "display": "The Central European Lab"
          }
        ],
        "category": [
          {
            "coding": [
              {
                "system": "http://terminology.hl7.org/CodeSystem/observation-category",
                "code": "laboratory"
              }
            ]
          }
        ],
        "code": {
          "coding": [
            {
              "code": "25428-4",
              "system": "http://loinc.org",
              "display": "Glucose [Presence] in Urine by Test strip"
            }
          ],
          "text": "Glucose [Presence] in Urine by Test strip"
        },
        "text": {
          "status": "generated",
          "div": "<div xmlns=\"http://www.w3.org/1999/xhtml\"><table class=\"hl7__eu__lab__report\"><tr><th>Test</th><th>29-Apr-2025</th><th>Reference&#xA0;Range</th><th>Unit</th></tr><tr><td>Glucose [Presence] in Urine by Test strip</td></tr></table></div>"
        },
        "status": "final",
        "subject": {
          "reference": "urn:uuid:58550e82-2e0a-4008-940a-8e9f9c2c24f6",
          "display": "Meaghan Neary"
        },
        "effectiveDateTime": "2025-04-28T22:11:04Z",
        "specimen": {
          "reference": "urn:uuid:99bcba27-0219-483a-b785-2d5379673715"
        }
      }
    },
    {
      "fullUrl": "urn:uuid:c88580ec-446f-4854-af12-b5eb099f6bfd",
      "resource": {
        "resourceType": "Observation",
        "id": "c88580ec-446f-4854-af12-b5eb099f6bfd",
        "meta": {
          "profile": [
            "http://hl7.eu/fhir/laboratory/StructureDefinition/Observation-resultslab-eu-lab"
          ]
        },
        "performer": [
          {
            "display": "The Central European Lab"
          }
        ],
        "category": [
          {
            "coding": [
              {
                "system": "http://terminology.hl7.org/CodeSystem/observation-category",
                "code": "laboratory"
              }
            ]
          }
        ],
        "code": {
          "coding": [
            {
              "code": "20505-4",
              "system": "http://loinc.org",
              "display": "Bilirubin.total [Mass/volume] in Urine by Test strip"
            }
          ],
          "text": "Bilirubin.total [Mass/volume] in Urine by Test strip"
        },
        "valueQuantity": {
          "system": "http://unitsofmeasure.org",
          "value": 1.2,
          "unit": "mg/dL",
          "code": "mg/dL"
        },
        "referenceRange": [
          {
            "low": {
              "value": 0,
              "code": "mg/dL",
              "system": "http://unitsofmeasure.org"
            }
          },
          {
            "high": {
              "value": 1,
              "code": "mg/dL",
              "system": "http://unitsofmeasure.org"
            }
          }
        ],
        "interpretation": [
          {
            "coding": [
              {
                "code": "H",
                "system": "http://terminology.hl7.org/CodeSystem/v3-ObservationInterpretation",
                "display": "High"
              }
            ]
          }
        ],
        "text": {
          "status": "generated",
          "div": "<div xmlns=\"http://www.w3.org/1999/xhtml\"><table class=\"hl7__eu__lab__report\"><tr><th>Test</th><th>29-Apr-2025</th><th>Reference&#xA0;Range</th><th>Unit</th></tr><tr><td>Bilirubin.total [Mass/volume] in Urine by Test strip</td><td>1.2</td><td>0 - 1</td><td>H</td><td>mg/dL</td></tr></table></div>"
        },
        "status": "final",
        "subject": {
          "reference": "urn:uuid:58550e82-2e0a-4008-940a-8e9f9c2c24f6",
          "display": "Meaghan Neary"
        },
        "effectiveDateTime": "2025-04-28T22:11:04Z",
        "specimen": {
          "reference": "urn:uuid:99bcba27-0219-483a-b785-2d5379673715"
        }
      }
    },
    {
      "fullUrl": "urn:uuid:5bd7c80f-7595-4355-a748-261c58c6362a",
      "resource": {
        "resourceType": "Observation",
        "id": "5bd7c80f-7595-4355-a748-261c58c6362a",
        "meta": {
          "profile": [
            "http://hl7.eu/fhir/laboratory/StructureDefinition/Observation-resultslab-eu-lab"
          ]
        },
        "performer": [
          {
            "display": "The Central European Lab"
          }
        ],
        "category": [
          {
            "coding": [
              {
                "system": "http://terminology.hl7.org/CodeSystem/observation-category",
                "code": "laboratory"
              }
            ]
          }
        ],
        "code": {
          "coding": [
            {
              "code": "5770-3",
              "system": "http://loinc.org",
              "display": "Bilirubin.total [Presence] in Urine by Test strip"
            }
          ],
          "text": "Bilirubin.total [Presence] in Urine by Test strip"
        },
        "text": {
          "status": "generated",
          "div": "<div xmlns=\"http://www.w3.org/1999/xhtml\"><table class=\"hl7__eu__lab__report\"><tr><th>Test</th><th>29-Apr-2025</th><th>Reference&#xA0;Range</th><th>Unit</th></tr><tr><td>Bilirubin.total [Presence] in Urine by Test strip</td></tr></table></div>"
        },
        "status": "final",
        "subject": {
          "reference": "urn:uuid:58550e82-2e0a-4008-940a-8e9f9c2c24f6",
          "display": "Meaghan Neary"
        },
        "effectiveDateTime": "2025-04-28T22:11:04Z",
        "specimen": {
          "reference": "urn:uuid:99bcba27-0219-483a-b785-2d5379673715"
        }
      }
    },
    {
      "fullUrl": "urn:uuid:d6ce4ae6-6434-420e-ba4c-1e02abd6c8c4",
      "resource": {
        "resourceType": "Observation",
        "id": "d6ce4ae6-6434-420e-ba4c-1e02abd6c8c4",
        "meta": {
          "profile": [
            "http://hl7.eu/fhir/laboratory/StructureDefinition/Observation-resultslab-eu-lab"
          ]
        },
        "performer": [
          {
            "display": "The Central European Lab"
          }
        ],
        "category": [
          {
            "coding": [
              {
                "system": "http://terminology.hl7.org/CodeSystem/observation-category",
                "code": "laboratory"
              }
            ]
          }
        ],
        "code": {
          "coding": [
            {
              "code": "5797-6",
              "system": "http://loinc.org",
              "display": "Ketones [Mass/volume] in Urine by Test strip"
            }
          ],
          "text": "Ketones [Mass/volume] in Urine by Test strip"
        },
        "valueQuantity": {
          "system": "http://unitsofmeasure.org",
          "value": 6.8,
          "unit": "mg/dL",
          "code": "mg/dL"
        },
        "referenceRange": [
          {
            "low": {
              "value": 0,
              "code": "mg/dL",
              "system": "http://unitsofmeasure.org"
            }
          },
          {
            "high": {
              "value": 4,
              "code": "mg/dL",
              "system": "http://unitsofmeasure.org"
            }
          }
        ],
        "interpretation": [
          {
            "coding": [
              {
                "code": "H",
                "system": "http://terminology.hl7.org/CodeSystem/v3-ObservationInterpretation",
                "display": "High"
              }
            ]
          }
        ],
        "text": {
          "status": "generated",
          "div": "<div xmlns=\"http://www.w3.org/1999/xhtml\"><table class=\"hl7__eu__lab__report\"><tr><th>Test</th><th>29-Apr-2025</th><th>Reference&#xA0;Range</th><th>Unit</th></tr><tr><td>Ketones [Mass/volume] in Urine by Test strip</td><td>6.8</td><td>0 - 4</td><td>H</td><td>mg/dL</td></tr></table></div>"
        },
        "status": "final",
        "subject": {
          "reference": "urn:uuid:58550e82-2e0a-4008-940a-8e9f9c2c24f6",
          "display": "Meaghan Neary"
        },
        "effectiveDateTime": "2025-04-28T22:11:04Z",
        "specimen": {
          "reference": "urn:uuid:99bcba27-0219-483a-b785-2d5379673715"
        }
      }
    },
    {
      "fullUrl": "urn:uuid:70b187df-b81d-43b4-83b7-9ae05e25e9a0",
      "resource": {
        "resourceType": "Observation",
        "id": "70b187df-b81d-43b4-83b7-9ae05e25e9a0",
        "meta": {
          "profile": [
            "http://hl7.eu/fhir/laboratory/StructureDefinition/Observation-resultslab-eu-lab"
          ]
        },
        "performer": [
          {
            "display": "The Central European Lab"
          }
        ],
        "category": [
          {
            "coding": [
              {
                "system": "http://terminology.hl7.org/CodeSystem/observation-category",
                "code": "laboratory"
              }
            ]
          }
        ],
        "code": {
          "coding": [
            {
              "code": "2514-8",
              "system": "http://loinc.org",
              "display": "Ketones [Presence] in Urine by Test strip"
            }
          ],
          "text": "Ketones [Presence] in Urine by Test strip"
        },
        "text": {
          "status": "generated",
          "div": "<div xmlns=\"http://www.w3.org/1999/xhtml\"><table class=\"hl7__eu__lab__report\"><tr><th>Test</th><th>29-Apr-2025</th><th>Reference&#xA0;Range</th><th>Unit</th></tr><tr><td>Ketones [Presence] in Urine by Test strip</td></tr></table></div>"
        },
        "status": "final",
        "subject": {
          "reference": "urn:uuid:58550e82-2e0a-4008-940a-8e9f9c2c24f6",
          "display": "Meaghan Neary"
        },
        "effectiveDateTime": "2025-04-28T22:11:04Z",
        "specimen": {
          "reference": "urn:uuid:99bcba27-0219-483a-b785-2d5379673715"
        }
      }
    },
    {
      "fullUrl": "urn:uuid:ec1b6178-231f-4fdc-8379-772a45dff820",
      "resource": {
        "resourceType": "Observation",
        "id": "ec1b6178-231f-4fdc-8379-772a45dff820",
        "meta": {
          "profile": [
            "http://hl7.eu/fhir/laboratory/StructureDefinition/Observation-resultslab-eu-lab"
          ]
        },
        "performer": [
          {
            "display": "The Central European Lab"
          }
        ],
        "category": [
          {
            "coding": [
              {
                "system": "http://terminology.hl7.org/CodeSystem/observation-category",
                "code": "laboratory"
              }
            ]
          }
        ],
        "code": {
          "coding": [
            {
              "code": "5811-5",
              "system": "http://loinc.org",
              "display": "Specific gravity of Urine by Test strip"
            }
          ],
          "text": "Specific gravity of Urine by Test strip"
        },
        "valueQuantity": {
          "system": "http://unitsofmeasure.org",
          "value": 1,
          "unit": "{nominal}",
          "code": "{nominal}"
        },
        "referenceRange": [
          {
            "low": {
              "value": 1.005,
              "code": "g/mL",
              "system": "http://unitsofmeasure.org"
            }
          },
          {
            "high": {
              "value": 1.03,
              "code": "g/mL",
              "system": "http://unitsofmeasure.org"
            }
          }
        ],
        "interpretation": [
          {
            "coding": [
              {
                "code": "L",
                "system": "http://terminology.hl7.org/CodeSystem/v3-ObservationInterpretation",
                "display": "Low"
              }
            ]
          }
        ],
        "text": {
          "status": "generated",
          "div": "<div xmlns=\"http://www.w3.org/1999/xhtml\"><table class=\"hl7__eu__lab__report\"><tr><th>Test</th><th>29-Apr-2025</th><th>Reference&#xA0;Range</th><th>Unit</th></tr><tr><td>Specific gravity of Urine by Test strip</td><td>1.0</td><td>1.005 - 1.03</td><td>L</td><td>{nominal}</td></tr></table></div>"
        },
        "status": "final",
        "subject": {
          "reference": "urn:uuid:58550e82-2e0a-4008-940a-8e9f9c2c24f6",
          "display": "Meaghan Neary"
        },
        "effectiveDateTime": "2025-04-28T22:11:04Z",
        "specimen": {
          "reference": "urn:uuid:99bcba27-0219-483a-b785-2d5379673715"
        }
      }
    },
    {
      "fullUrl": "urn:uuid:fadd41f0-d491-4b4c-95fc-fda87c45e983",
      "resource": {
        "resourceType": "Observation",
        "id": "fadd41f0-d491-4b4c-95fc-fda87c45e983",
        "meta": {
          "profile": [
            "http://hl7.eu/fhir/laboratory/StructureDefinition/Observation-resultslab-eu-lab"
          ]
        },
        "performer": [
          {
            "display": "The Central European Lab"
          }
        ],
        "category": [
          {
            "coding": [
              {
                "system": "http://terminology.hl7.org/CodeSystem/observation-category",
                "code": "laboratory"
              }
            ]
          }
        ],
        "code": {
          "coding": [
            {
              "code": "5803-2",
              "system": "http://loinc.org",
              "display": "pH of Urine by Test strip"
            }
          ],
          "text": "pH of Urine by Test strip"
        },
        "valueQuantity": {
          "system": "http://unitsofmeasure.org",
          "value": 6.6,
          "unit": "pH",
          "code": "pH"
        },
        "referenceRange": [
          {
            "low": {
              "value": 4.6,
              "code": "pH",
              "system": "http://unitsofmeasure.org"
            }
          },
          {
            "high": {
              "value": 7,
              "code": "pH",
              "system": "http://unitsofmeasure.org"
            }
          }
        ],
        "text": {
          "status": "generated",
          "div": "<div xmlns=\"http://www.w3.org/1999/xhtml\"><table class=\"hl7__eu__lab__report\"><tr><th>Test</th><th>29-Apr-2025</th><th>Reference&#xA0;Range</th><th>Unit</th></tr><tr><td>pH of Urine by Test strip</td><td>6.6</td><td>4.6 - 7</td><td></td><td>pH</td></tr></table></div>"
        },
        "status": "final",
        "subject": {
          "reference": "urn:uuid:58550e82-2e0a-4008-940a-8e9f9c2c24f6",
          "display": "Meaghan Neary"
        },
        "effectiveDateTime": "2025-04-28T22:11:04Z",
        "specimen": {
          "reference": "urn:uuid:99bcba27-0219-483a-b785-2d5379673715"
        }
      }
    },
    {
      "fullUrl": "urn:uuid:3c03bc03-1455-4326-9e6d-a57785af46dd",
      "resource": {
        "resourceType": "Observation",
        "id": "3c03bc03-1455-4326-9e6d-a57785af46dd",
        "meta": {
          "profile": [
            "http://hl7.eu/fhir/laboratory/StructureDefinition/Observation-resultslab-eu-lab"
          ]
        },
        "performer": [
          {
            "display": "The Central European Lab"
          }
        ],
        "category": [
          {
            "coding": [
              {
                "system": "http://terminology.hl7.org/CodeSystem/observation-category",
                "code": "laboratory"
              }
            ]
          }
        ],
        "code": {
          "coding": [
            {
              "code": "5804-0",
              "system": "http://loinc.org",
              "display": "Protein [Mass/volume] in Urine by Test strip"
            }
          ],
          "text": "Protein [Mass/volume] in Urine by Test strip"
        },
        "valueQuantity": {
          "system": "http://unitsofmeasure.org",
          "value": 211.8,
          "unit": "mg/dL",
          "code": "mg/dL"
        },
        "referenceRange": [
          {
            "low": {
              "value": 0,
              "code": "mg/dL",
              "system": "http://unitsofmeasure.org"
            }
          },
          {
            "high": {
              "value": 14,
              "code": "mg/dL",
              "system": "http://unitsofmeasure.org"
            }
          }
        ],
        "interpretation": [
          {
            "coding": [
              {
                "code": "H",
                "system": "http://terminology.hl7.org/CodeSystem/v3-ObservationInterpretation",
                "display": "High"
              }
            ]
          }
        ],
        "text": {
          "status": "generated",
          "div": "<div xmlns=\"http://www.w3.org/1999/xhtml\"><table class=\"hl7__eu__lab__report\"><tr><th>Test</th><th>29-Apr-2025</th><th>Reference&#xA0;Range</th><th>Unit</th></tr><tr><td>Protein [Mass/volume] in Urine by Test strip</td><td>211.8</td><td>0 - 14</td><td>H</td><td>mg/dL</td></tr></table></div>"
        },
        "status": "final",
        "subject": {
          "reference": "urn:uuid:58550e82-2e0a-4008-940a-8e9f9c2c24f6",
          "display": "Meaghan Neary"
        },
        "effectiveDateTime": "2025-04-28T22:11:04Z",
        "specimen": {
          "reference": "urn:uuid:99bcba27-0219-483a-b785-2d5379673715"
        }
      }
    },
    {
      "fullUrl": "urn:uuid:78a971e4-9788-4f7e-a1bf-cfbb47e9305a",
      "resource": {
        "resourceType": "Observation",
        "id": "78a971e4-9788-4f7e-a1bf-cfbb47e9305a",
        "meta": {
          "profile": [
            "http://hl7.eu/fhir/laboratory/StructureDefinition/Observation-resultslab-eu-lab"
          ]
        },
        "performer": [
          {
            "display": "The Central European Lab"
          }
        ],
        "category": [
          {
            "coding": [
              {
                "system": "http://terminology.hl7.org/CodeSystem/observation-category",
                "code": "laboratory"
              }
            ]
          }
        ],
        "code": {
          "coding": [
            {
              "code": "20454-5",
              "system": "http://loinc.org",
              "display": "Protein [Presence] in Urine by Test strip"
            }
          ],
          "text": "Protein [Presence] in Urine by Test strip"
        },
        "text": {
          "status": "generated",
          "div": "<div xmlns=\"http://www.w3.org/1999/xhtml\"><table class=\"hl7__eu__lab__report\"><tr><th>Test</th><th>29-Apr-2025</th><th>Reference&#xA0;Range</th><th>Unit</th></tr><tr><td>Protein [Presence] in Urine by Test strip</td></tr></table></div>"
        },
        "status": "final",
        "subject": {
          "reference": "urn:uuid:58550e82-2e0a-4008-940a-8e9f9c2c24f6",
          "display": "Meaghan Neary"
        },
        "effectiveDateTime": "2025-04-28T22:11:04Z",
        "specimen": {
          "reference": "urn:uuid:99bcba27-0219-483a-b785-2d5379673715"
        }
      }
    },
    {
      "fullUrl": "urn:uuid:b765cc26-8743-4584-be1e-ac40fd75b793",
      "resource": {
        "resourceType": "Observation",
        "id": "b765cc26-8743-4584-be1e-ac40fd75b793",
        "meta": {
          "profile": [
            "http://hl7.eu/fhir/laboratory/StructureDefinition/Observation-resultslab-eu-lab"
          ]
        },
        "performer": [
          {
            "display": "The Central European Lab"
          }
        ],
        "category": [
          {
            "coding": [
              {
                "system": "http://terminology.hl7.org/CodeSystem/observation-category",
                "code": "laboratory"
              }
            ]
          }
        ],
        "code": {
          "coding": [
            {
              "code": "5802-4",
              "system": "http://loinc.org",
              "display": "Nitrite [Presence] in Urine by Test strip"
            }
          ],
          "text": "Nitrite [Presence] in Urine by Test strip"
        },
        "text": {
          "status": "generated",
          "div": "<div xmlns=\"http://www.w3.org/1999/xhtml\"><table class=\"hl7__eu__lab__report\"><tr><th>Test</th><th>29-Apr-2025</th><th>Reference&#xA0;Range</th><th>Unit</th></tr><tr><td>Nitrite [Presence] in Urine by Test strip</td></tr></table></div>"
        },
        "status": "final",
        "subject": {
          "reference": "urn:uuid:58550e82-2e0a-4008-940a-8e9f9c2c24f6",
          "display": "Meaghan Neary"
        },
        "effectiveDateTime": "2025-04-28T22:11:04Z",
        "specimen": {
          "reference": "urn:uuid:99bcba27-0219-483a-b785-2d5379673715"
        }
      }
    },
    {
      "fullUrl": "urn:uuid:43ec8543-92b3-4aa0-a8c2-3cf1c1d07ee1",
      "resource": {
        "resourceType": "Observation",
        "id": "43ec8543-92b3-4aa0-a8c2-3cf1c1d07ee1",
        "meta": {
          "profile": [
            "http://hl7.eu/fhir/laboratory/StructureDefinition/Observation-resultslab-eu-lab"
          ]
        },
        "performer": [
          {
            "display": "The Central European Lab"
          }
        ],
        "category": [
          {
            "coding": [
              {
                "system": "http://terminology.hl7.org/CodeSystem/observation-category",
                "code": "laboratory"
              }
            ]
          }
        ],
        "code": {
          "coding": [
            {
              "code": "5794-3",
              "system": "http://loinc.org",
              "display": "Hemoglobin [Presence] in Urine by Test strip"
            }
          ],
          "text": "Hemoglobin [Presence] in Urine by Test strip"
        },
        "text": {
          "status": "generated",
          "div": "<div xmlns=\"http://www.w3.org/1999/xhtml\"><table class=\"hl7__eu__lab__report\"><tr><th>Test</th><th>29-Apr-2025</th><th>Reference&#xA0;Range</th><th>Unit</th></tr><tr><td>Hemoglobin [Presence] in Urine by Test strip</td></tr></table></div>"
        },
        "status": "final",
        "subject": {
          "reference": "urn:uuid:58550e82-2e0a-4008-940a-8e9f9c2c24f6",
          "display": "Meaghan Neary"
        },
        "effectiveDateTime": "2025-04-28T22:11:04Z",
        "specimen": {
          "reference": "urn:uuid:99bcba27-0219-483a-b785-2d5379673715"
        }
      }
    },
    {
      "fullUrl": "urn:uuid:c845692f-88dd-4b32-8089-2815f810b34b",
      "resource": {
        "resourceType": "Observation",
        "id": "c845692f-88dd-4b32-8089-2815f810b34b",
        "meta": {
          "profile": [
            "http://hl7.eu/fhir/laboratory/StructureDefinition/Observation-resultslab-eu-lab"
          ]
        },
        "performer": [
          {
            "display": "The Central European Lab"
          }
        ],
        "category": [
          {
            "coding": [
              {
                "system": "http://terminology.hl7.org/CodeSystem/observation-category",
                "code": "laboratory"
              }
            ]
          }
        ],
        "code": {
          "coding": [
            {
              "code": "5799-2",
              "system": "http://loinc.org",
              "display": "Leukocyte esterase [Presence] in Urine by Test strip"
            }
          ],
          "text": "Leukocyte esterase [Presence] in Urine by Test strip"
        },
        "text": {
          "status": "generated",
          "div": "<div xmlns=\"http://www.w3.org/1999/xhtml\"><table class=\"hl7__eu__lab__report\"><tr><th>Test</th><th>29-Apr-2025</th><th>Reference&#xA0;Range</th><th>Unit</th></tr><tr><td>Leukocyte esterase [Presence] in Urine by Test strip</td></tr></table></div>"
        },
        "status": "final",
        "subject": {
          "reference": "urn:uuid:58550e82-2e0a-4008-940a-8e9f9c2c24f6",
          "display": "Meaghan Neary"
        },
        "effectiveDateTime": "2025-04-28T22:11:04Z",
        "specimen": {
          "reference": "urn:uuid:99bcba27-0219-483a-b785-2d5379673715"
        }
      }
    },
    {
      "fullUrl": "urn:uuid:555b0d42-168a-4845-be14-41a15a619f4d",
      "resource": {
        "resourceType": "Observation",
        "id": "555b0d42-168a-4845-be14-41a15a619f4d",
        "meta": {
          "profile": [
            "http://hl7.eu/fhir/laboratory/StructureDefinition/Observation-resultslab-eu-lab"
          ]
        },
        "performer": [
          {
            "display": "The Central European Lab"
          }
        ],
        "category": [
          {
            "coding": [
              {
                "system": "http://terminology.hl7.org/CodeSystem/observation-category",
                "code": "laboratory"
              }
            ]
          }
        ],
        "code": {
          "coding": [
            {
              "code": "4548-4",
              "system": "http://loinc.org",
              "display": "Hemoglobin A1c/Hemoglobin.total in Blood"
            }
          ],
          "text": "Hemoglobin A1c/Hemoglobin.total in Blood"
        },
        "valueQuantity": {
          "system": "http://unitsofmeasure.org",
          "value": 4,
          "unit": "%",
          "code": "%"
        },
        "referenceRange": [
          {
            "low": {
              "value": 4,
              "code": "%",
              "system": "http://unitsofmeasure.org"
            }
          },
          {
            "high": {
              "value": 6.4,
              "code": "%",
              "system": "http://unitsofmeasure.org"
            }
          }
        ],
        "text": {
          "status": "generated",
          "div": "<div xmlns=\"http://www.w3.org/1999/xhtml\"><table class=\"hl7__eu__lab__report\"><tr><th>Test</th><th>29-Apr-2025</th><th>Reference&#xA0;Range</th><th>Unit</th></tr><tr><td>Hemoglobin A1c/Hemoglobin.total in Blood</td><td>4.0</td><td>4 - 6.4</td><td></td><td>%</td></tr></table></div>"
        },
        "status": "final",
        "subject": {
          "reference": "urn:uuid:58550e82-2e0a-4008-940a-8e9f9c2c24f6",
          "display": "Meaghan Neary"
        },
        "effectiveDateTime": "2025-04-28T22:11:04Z",
        "specimen": {
          "reference": "urn:uuid:d0b86dc2-0a96-4668-8bbb-7bf0f195bdda"
        }
      }
    },
    {
      "fullUrl": "urn:uuid:e6482e0a-467d-4e0e-ba10-0e15ebeecd88",
      "resource": {
        "resourceType": "Observation",
        "id": "e6482e0a-467d-4e0e-ba10-0e15ebeecd88",
        "meta": {
          "profile": [
            "http://hl7.eu/fhir/laboratory/StructureDefinition/Observation-resultslab-eu-lab"
          ]
        },
        "performer": [
          {
            "display": "The Central European Lab"
          }
        ],
        "category": [
          {
            "coding": [
              {
                "system": "http://terminology.hl7.org/CodeSystem/observation-category",
                "code": "laboratory"
              }
            ]
          }
        ],
        "code": {
          "coding": [
            {
              "code": "2339-0",
              "system": "http://loinc.org",
              "display": "Glucose [Mass/volume] in Blood"
            }
          ],
          "text": "Glucose [Mass/volume] in Blood"
        },
        "valueQuantity": {
          "system": "http://unitsofmeasure.org",
          "value": 87.8,
          "unit": "mg/dL",
          "code": "mg/dL"
        },
        "referenceRange": [
          {
            "low": {
              "value": 70,
              "code": "mg/dL",
              "system": "http://unitsofmeasure.org"
            }
          },
          {
            "high": {
              "value": 100,
              "code": "mg/dL",
              "system": "http://unitsofmeasure.org"
            }
          }
        ],
        "text": {
          "status": "generated",
          "div": "<div xmlns=\"http://www.w3.org/1999/xhtml\"><table class=\"hl7__eu__lab__report\"><tr><th>Test</th><th>29-Apr-2025</th><th>Reference&#xA0;Range</th><th>Unit</th></tr><tr><td>Glucose [Mass/volume] in Blood</td><td>87.8</td><td>70 - 100</td><td></td><td>mg/dL</td></tr></table></div>"
        },
        "status": "final",
        "subject": {
          "reference": "urn:uuid:58550e82-2e0a-4008-940a-8e9f9c2c24f6",
          "display": "Meaghan Neary"
        },
        "effectiveDateTime": "2025-04-28T22:11:04Z",
        "specimen": {
          "reference": "urn:uuid:d0b86dc2-0a96-4668-8bbb-7bf0f195bdda"
        }
      }
    },
    {
      "fullUrl": "urn:uuid:2d094abd-9118-42ee-ad1b-dcf2d21fa6c8",
      "resource": {
        "resourceType": "Observation",
        "id": "2d094abd-9118-42ee-ad1b-dcf2d21fa6c8",
        "meta": {
          "profile": [
            "http://hl7.eu/fhir/laboratory/StructureDefinition/Observation-resultslab-eu-lab"
          ]
        },
        "performer": [
          {
            "display": "The Central European Lab"
          }
        ],
        "category": [
          {
            "coding": [
              {
                "system": "http://terminology.hl7.org/CodeSystem/observation-category",
                "code": "laboratory"
              }
            ]
          }
        ],
        "code": {
          "coding": [
            {
              "code": "6299-2",
              "system": "http://loinc.org",
              "display": "Urea nitrogen [Mass/volume] in Blood"
            }
          ],
          "text": "Urea nitrogen [Mass/volume] in Blood"
        },
        "valueQuantity": {
          "system": "http://unitsofmeasure.org",
          "value": 10.9,
          "unit": "mg/dL",
          "code": "mg/dL"
        },
        "referenceRange": [
          {
            "low": {
              "value": 7,
              "code": "mg/dL",
              "system": "http://unitsofmeasure.org"
            }
          },
          {
            "high": {
              "value": 43,
              "code": "mg/dL",
              "system": "http://unitsofmeasure.org"
            }
          }
        ],
        "text": {
          "status": "generated",
          "div": "<div xmlns=\"http://www.w3.org/1999/xhtml\"><table class=\"hl7__eu__lab__report\"><tr><th>Test</th><th>29-Apr-2025</th><th>Reference&#xA0;Range</th><th>Unit</th></tr><tr><td>Urea nitrogen [Mass/volume] in Blood</td><td>10.9</td><td>7 - 43</td><td></td><td>mg/dL</td></tr></table></div>"
        },
        "status": "final",
        "subject": {
          "reference": "urn:uuid:58550e82-2e0a-4008-940a-8e9f9c2c24f6",
          "display": "Meaghan Neary"
        },
        "effectiveDateTime": "2025-04-28T22:11:04Z",
        "specimen": {
          "reference": "urn:uuid:d0b86dc2-0a96-4668-8bbb-7bf0f195bdda"
        }
      }
    },
    {
      "fullUrl": "urn:uuid:825a4e6f-3a8e-45f0-9103-d0b5af9b7687",
      "resource": {
        "resourceType": "Observation",
        "id": "825a4e6f-3a8e-45f0-9103-d0b5af9b7687",
        "meta": {
          "profile": [
            "http://hl7.eu/fhir/laboratory/StructureDefinition/Observation-resultslab-eu-lab"
          ]
        },
        "performer": [
          {
            "display": "The Central European Lab"
          }
        ],
        "category": [
          {
            "coding": [
              {
                "system": "http://terminology.hl7.org/CodeSystem/observation-category",
                "code": "laboratory"
              }
            ]
          }
        ],
        "code": {
          "coding": [
            {
              "code": "38483-4",
              "system": "http://loinc.org",
              "display": "Creatinine [Mass/volume] in Blood"
            }
          ],
          "text": "Creatinine [Mass/volume] in Blood"
        },
        "valueQuantity": {
          "system": "http://unitsofmeasure.org",
          "value": 3,
          "unit": "mg/dL",
          "code": "mg/dL"
        },
        "referenceRange": [
          {
            "low": {
              "value": 0.6,
              "code": "mg/dL",
              "system": "http://unitsofmeasure.org"
            }
          },
          {
            "high": {
              "value": 1.1,
              "code": "mg/dL",
              "system": "http://unitsofmeasure.org"
            }
          }
        ],
        "interpretation": [
          {
            "coding": [
              {
                "code": "H",
                "system": "http://terminology.hl7.org/CodeSystem/v3-ObservationInterpretation",
                "display": "High"
              }
            ]
          }
        ],
        "text": {
          "status": "generated",
          "div": "<div xmlns=\"http://www.w3.org/1999/xhtml\"><table class=\"hl7__eu__lab__report\"><tr><th>Test</th><th>29-Apr-2025</th><th>Reference&#xA0;Range</th><th>Unit</th></tr><tr><td>Creatinine [Mass/volume] in Blood</td><td>3.0</td><td>0.6 - 1.1</td><td>H</td><td>mg/dL</td></tr></table></div>"
        },
        "status": "final",
        "subject": {
          "reference": "urn:uuid:58550e82-2e0a-4008-940a-8e9f9c2c24f6",
          "display": "Meaghan Neary"
        },
        "effectiveDateTime": "2025-04-28T22:11:04Z",
        "specimen": {
          "reference": "urn:uuid:d0b86dc2-0a96-4668-8bbb-7bf0f195bdda"
        }
      }
    },
    {
      "fullUrl": "urn:uuid:95b81013-c548-44bb-aa36-a6a50368bb36",
      "resource": {
        "resourceType": "Observation",
        "id": "95b81013-c548-44bb-aa36-a6a50368bb36",
        "meta": {
          "profile": [
            "http://hl7.eu/fhir/laboratory/StructureDefinition/Observation-resultslab-eu-lab"
          ]
        },
        "performer": [
          {
            "display": "The Central European Lab"
          }
        ],
        "category": [
          {
            "coding": [
              {
                "system": "http://terminology.hl7.org/CodeSystem/observation-category",
                "code": "laboratory"
              }
            ]
          }
        ],
        "code": {
          "coding": [
            {
              "code": "49765-1",
              "system": "http://loinc.org",
              "display": "Calcium [Mass/volume] in Blood"
            }
          ],
          "text": "Calcium [Mass/volume] in Blood"
        },
        "valueQuantity": {
          "system": "http://unitsofmeasure.org",
          "value": 8.9,
          "unit": "mg/dL",
          "code": "mg/dL"
        },
        "referenceRange": [
          {
            "low": {
              "value": 8.5,
              "code": "mg/dL",
              "system": "http://unitsofmeasure.org"
            }
          },
          {
            "high": {
              "value": 10.5,
              "code": "mg/dL",
              "system": "http://unitsofmeasure.org"
            }
          }
        ],
        "text": {
          "status": "generated",
          "div": "<div xmlns=\"http://www.w3.org/1999/xhtml\"><table class=\"hl7__eu__lab__report\"><tr><th>Test</th><th>29-Apr-2025</th><th>Reference&#xA0;Range</th><th>Unit</th></tr><tr><td>Calcium [Mass/volume] in Blood</td><td>8.9</td><td>8.5 - 10.5</td><td></td><td>mg/dL</td></tr></table></div>"
        },
        "status": "final",
        "subject": {
          "reference": "urn:uuid:58550e82-2e0a-4008-940a-8e9f9c2c24f6",
          "display": "Meaghan Neary"
        },
        "effectiveDateTime": "2025-04-28T22:11:04Z",
        "specimen": {
          "reference": "urn:uuid:d0b86dc2-0a96-4668-8bbb-7bf0f195bdda"
        }
      }
    },
    {
      "fullUrl": "urn:uuid:069fb730-0ef9-4360-93b5-fb0e8e537d46",
      "resource": {
        "resourceType": "Observation",
        "id": "069fb730-0ef9-4360-93b5-fb0e8e537d46",
        "meta": {
          "profile": [
            "http://hl7.eu/fhir/laboratory/StructureDefinition/Observation-resultslab-eu-lab"
          ]
        },
        "performer": [
          {
            "display": "The Central European Lab"
          }
        ],
        "category": [
          {
            "coding": [
              {
                "system": "http://terminology.hl7.org/CodeSystem/observation-category",
                "code": "laboratory"
              }
            ]
          }
        ],
        "code": {
          "coding": [
            {
              "code": "2947-0",
              "system": "http://loinc.org",
              "display": "Sodium [Moles/volume] in Blood"
            }
          ],
          "text": "Sodium [Moles/volume] in Blood"
        },
        "valueQuantity": {
          "system": "http://unitsofmeasure.org",
          "value": 140.1,
          "unit": "mmol/L",
          "code": "mmol/L"
        },
        "referenceRange": [
          {
            "low": {
              "value": 135,
              "code": "mmol/L",
              "system": "http://unitsofmeasure.org"
            }
          },
          {
            "high": {
              "value": 145,
              "code": "mmol/L",
              "system": "http://unitsofmeasure.org"
            }
          }
        ],
        "text": {
          "status": "generated",
          "div": "<div xmlns=\"http://www.w3.org/1999/xhtml\"><table class=\"hl7__eu__lab__report\"><tr><th>Test</th><th>29-Apr-2025</th><th>Reference&#xA0;Range</th><th>Unit</th></tr><tr><td>Sodium [Moles/volume] in Blood</td><td>140.1</td><td>135 - 145</td><td></td><td>mmol/L</td></tr></table></div>"
        },
        "status": "final",
        "subject": {
          "reference": "urn:uuid:58550e82-2e0a-4008-940a-8e9f9c2c24f6",
          "display": "Meaghan Neary"
        },
        "effectiveDateTime": "2025-04-28T22:11:04Z",
        "specimen": {
          "reference": "urn:uuid:d0b86dc2-0a96-4668-8bbb-7bf0f195bdda"
        }
      }
    },
    {
      "fullUrl": "urn:uuid:b8824464-1288-4576-b79c-9984c92d6668",
      "resource": {
        "resourceType": "Observation",
        "id": "b8824464-1288-4576-b79c-9984c92d6668",
        "meta": {
          "profile": [
            "http://hl7.eu/fhir/laboratory/StructureDefinition/Observation-resultslab-eu-lab"
          ]
        },
        "performer": [
          {
            "display": "The Central European Lab"
          }
        ],
        "category": [
          {
            "coding": [
              {
                "system": "http://terminology.hl7.org/CodeSystem/observation-category",
                "code": "laboratory"
              }
            ]
          }
        ],
        "code": {
          "coding": [
            {
              "code": "6298-4",
              "system": "http://loinc.org",
              "display": "Potassium [Moles/volume] in Blood"
            }
          ],
          "text": "Potassium [Moles/volume] in Blood"
        },
        "valueQuantity": {
          "system": "http://unitsofmeasure.org",
          "value": 4.3,
          "unit": "mmol/L",
          "code": "mmol/L"
        },
        "referenceRange": [
          {
            "low": {
              "value": 3.5,
              "code": "mmol/L",
              "system": "http://unitsofmeasure.org"
            }
          },
          {
            "high": {
              "value": 5.1,
              "code": "mmol/L",
              "system": "http://unitsofmeasure.org"
            }
          }
        ],
        "text": {
          "status": "generated",
          "div": "<div xmlns=\"http://www.w3.org/1999/xhtml\"><table class=\"hl7__eu__lab__report\"><tr><th>Test</th><th>29-Apr-2025</th><th>Reference&#xA0;Range</th><th>Unit</th></tr><tr><td>Potassium [Moles/volume] in Blood</td><td>4.3</td><td>3.5 - 5.1</td><td></td><td>mmol/L</td></tr></table></div>"
        },
        "status": "final",
        "subject": {
          "reference": "urn:uuid:58550e82-2e0a-4008-940a-8e9f9c2c24f6",
          "display": "Meaghan Neary"
        },
        "effectiveDateTime": "2025-04-28T22:11:04Z",
        "specimen": {
          "reference": "urn:uuid:d0b86dc2-0a96-4668-8bbb-7bf0f195bdda"
        }
      }
    },
    {
      "fullUrl": "urn:uuid:c7540c5d-2c39-499e-ab11-b893574c5119",
      "resource": {
        "resourceType": "Observation",
        "id": "c7540c5d-2c39-499e-ab11-b893574c5119",
        "meta": {
          "profile": [
            "http://hl7.eu/fhir/laboratory/StructureDefinition/Observation-resultslab-eu-lab"
          ]
        },
        "performer": [
          {
            "display": "The Central European Lab"
          }
        ],
        "category": [
          {
            "coding": [
              {
                "system": "http://terminology.hl7.org/CodeSystem/observation-category",
                "code": "laboratory"
              }
            ]
          }
        ],
        "code": {
          "coding": [
            {
              "code": "2069-3",
              "system": "http://loinc.org",
              "display": "Chloride [Moles/volume] in Blood"
            }
          ],
          "text": "Chloride [Moles/volume] in Blood"
        },
        "valueQuantity": {
          "system": "http://unitsofmeasure.org",
          "value": 109,
          "unit": "mmol/L",
          "code": "mmol/L"
        },
        "referenceRange": [
          {
            "low": {
              "value": 98,
              "code": "mmol/L",
              "system": "http://unitsofmeasure.org"
            }
          },
          {
            "high": {
              "value": 108,
              "code": "mmol/L",
              "system": "http://unitsofmeasure.org"
            }
          }
        ],
        "interpretation": [
          {
            "coding": [
              {
                "code": "H",
                "system": "http://terminology.hl7.org/CodeSystem/v3-ObservationInterpretation",
                "display": "High"
              }
            ]
          }
        ],
        "text": {
          "status": "generated",
          "div": "<div xmlns=\"http://www.w3.org/1999/xhtml\"><table class=\"hl7__eu__lab__report\"><tr><th>Test</th><th>29-Apr-2025</th><th>Reference&#xA0;Range</th><th>Unit</th></tr><tr><td>Chloride [Moles/volume] in Blood</td><td>109.0</td><td>98 - 108</td><td>H</td><td>mmol/L</td></tr></table></div>"
        },
        "status": "final",
        "subject": {
          "reference": "urn:uuid:58550e82-2e0a-4008-940a-8e9f9c2c24f6",
          "display": "Meaghan Neary"
        },
        "effectiveDateTime": "2025-04-28T22:11:04Z",
        "specimen": {
          "reference": "urn:uuid:d0b86dc2-0a96-4668-8bbb-7bf0f195bdda"
        }
      }
    },
    {
      "fullUrl": "urn:uuid:d1acdb1b-6622-46a3-96a1-a63bb4b045fe",
      "resource": {
        "resourceType": "Observation",
        "id": "d1acdb1b-6622-46a3-96a1-a63bb4b045fe",
        "meta": {
          "profile": [
            "http://hl7.eu/fhir/laboratory/StructureDefinition/Observation-resultslab-eu-lab"
          ]
        },
        "performer": [
          {
            "display": "The Central European Lab"
          }
        ],
        "category": [
          {
            "coding": [
              {
                "system": "http://terminology.hl7.org/CodeSystem/observation-category",
                "code": "laboratory"
              }
            ]
          }
        ],
        "code": {
          "coding": [
            {
              "code": "20565-8",
              "system": "http://loinc.org",
              "display": "Carbon dioxide, total [Moles/volume] in Blood"
            }
          ],
          "text": "Carbon dioxide, total [Moles/volume] in Blood"
        },
        "valueQuantity": {
          "system": "http://unitsofmeasure.org",
          "value": 27.4,
          "unit": "mmol/L",
          "code": "mmol/L"
        },
        "referenceRange": [
          {
            "low": {
              "value": 22,
              "code": "mmol/L",
              "system": "http://unitsofmeasure.org"
            }
          },
          {
            "high": {
              "value": 29,
              "code": "mmol/L",
              "system": "http://unitsofmeasure.org"
            }
          }
        ],
        "text": {
          "status": "generated",
          "div": "<div xmlns=\"http://www.w3.org/1999/xhtml\"><table class=\"hl7__eu__lab__report\"><tr><th>Test</th><th>29-Apr-2025</th><th>Reference&#xA0;Range</th><th>Unit</th></tr><tr><td>Carbon dioxide, total [Moles/volume] in Blood</td><td>27.4</td><td>22 - 29</td><td></td><td>mmol/L</td></tr></table></div>"
        },
        "status": "final",
        "subject": {
          "reference": "urn:uuid:58550e82-2e0a-4008-940a-8e9f9c2c24f6",
          "display": "Meaghan Neary"
        },
        "effectiveDateTime": "2025-04-28T22:11:04Z",
        "specimen": {
          "reference": "urn:uuid:d0b86dc2-0a96-4668-8bbb-7bf0f195bdda"
        }
      }
    },
    {
      "fullUrl": "urn:uuid:87885271-3eaf-484c-9579-83ce02b151ac",
      "resource": {
        "resourceType": "Device",
        "id": "87885271-3eaf-484c-9579-83ce02b151ac",
        "deviceName": [
          {
            "name": "SYNDERAI Synthetic Generator",
            "type": "manufacturer-name"
          }
        ],
        "version": [
          {
            "value": "5.0"
          }
        ],
        "text": {
          "status": "generated",
          "div": "<div xmlns=\"http://www.w3.org/1999/xhtml\">SYNDERAI Synthetic Generator v5.0</div>"
        },
        "status": "active\"",
        "distinctIdentifier": "synderai-generator-50",
        "manufacturer": "SYNDERAI Project"
      }
    },
    {
      "fullUrl": "urn:uuid:6ba7ffc1-ca41-4c0b-b288-ecd844e5e00c",
      "resource": {
        "resourceType": "Provenance",
        "id": "6ba7ffc1-ca41-4c0b-b288-ecd844e5e00c",
        "target": [
          {
            "reference": "Patient/58550e82-2e0a-4008-940a-8e9f9c2c24f6"
          },
          {
            "reference": "Bundle/2905d3fd-a632-4766-af08-18e65bb16250"
          },
          {
            "reference": "Composition/6dc76f15-d6f4-4118-afe1-0bb006705405"
          },
          {
            "reference": "PractitionerRole/1a2b1570-cbca-4b43-bdd0-6d0a88e1caf0"
          },
          {
            "reference": "Practitioner/36a0cabd-5266-4a2d-8b42-e4bd24305d97"
          },
          {
            "reference": "PractitionerRole/b7dfa228-6062-4474-ade2-aaea7e452f0f"
          },
          {
            "reference": "Organization/a12dba45-30b0-4162-a426-c7e2ab3795e3"
          }
        ],
        "activity": {
          "text": "Synthetic Example Data Generation"
        },
        "policy": [
          "https://synderai.net/synderai-synthetic-data-policy"
        ],
        "agent": [
          {
            "type": {
              "text": "author"
            },
            "who": {
              "reference": "Device/87885271-3eaf-484c-9579-83ce02b151ac"
            }
          }
        ],
        "reason": [
          {
            "text": "Interoperability Testing and Training (non-clinical use)"
          }
        ],
        "text": {
          "status": "generated",
          "div": "<div xmlns=\"http://www.w3.org/1999/xhtml\">Provenance for SYNDERAI Synthetic Example Data Resource</div>"
        },
        "recorded": "2025-04-29T00:11:04Z"
      }
    },
    {
      "fullUrl": "urn:uuid:1a2b1570-cbca-4b43-bdd0-6d0a88e1caf0",
      "resource": {
        "resourceType": "PractitionerRole",
        "id": "1a2b1570-cbca-4b43-bdd0-6d0a88e1caf0",
        "meta": {
          "profile": [
            "http://hl7.eu/fhir/base/StructureDefinition/practitionerRole-eu"
          ]
        },
        "text": {
          "status": "generated",
          "div": "<div xmlns=\"http://www.w3.org/1999/xhtml\">Laboratory Role Id: 1a2b1570-cbca-4b43-bdd0-6d0a88e1caf0</div>"
        },
        "practitioner": {
          "reference": "urn:uuid:36a0cabd-5266-4a2d-8b42-e4bd24305d97"
        }
      }
    },
    {
      "fullUrl": "urn:uuid:36a0cabd-5266-4a2d-8b42-e4bd24305d97",
      "resource": {
        "resourceType": "Practitioner",
        "id": "36a0cabd-5266-4a2d-8b42-e4bd24305d97",
        "meta": {
          "profile": [
            "http://hl7.eu/fhir/base/StructureDefinition/practitioner-eu"
          ]
        },
        "identifier": [
          {
            "assigner": {
              "display": "HL7 Europe"
            },
            "system": "urn:oid:2.16.840.1.113883.2.51.999",
            "value": "70a06b23-f434-47fe-a0ad-e25a4059a6f8"
          }
        ],
        "name": [
          {
            "prefix": [
              "dr"
            ],
            "given": [
              "Ex"
            ],
            "family": "Ample"
          }
        ],
        "address": [
          {
            "line": [
              "Laboratoire Central Européenne",
              "Boulevard du Jardin Botanique 32"
            ],
            "postalCode": "1000",
            "city": "Brussels",
            "country": "Belgium"
          }
        ],
        "text": {
          "status": "generated",
          "div": "<div xmlns=\"http://www.w3.org/1999/xhtml\">Laboratory: Laboratoire Central Européenne, 1000 Brussels, Belgium</div>"
        }
      }
    }
  ],
  "type": "document",
  "timestamp": "2025-04-29T00:11:04Z"
}
