{
  "resourceType": "Bundle",
  "id": "36d32abb-6f9d-4aa9-a1c5-7694c0ea96e4",
  "meta": {
    "profile": [
      "http://hl7.eu/fhir/laboratory/StructureDefinition/Bundle-eu-lab"
    ]
  },
  "identifier": {
    "assigner": {
      "display": "HL7 Europe"
    },
    "system": "urn:oid:2.16.840.1.113883.2.51.999",
    "value": "62923600-3373-4216-9f69-d420b52f0b8e"
  },
  "entry": [
    {
      "fullUrl": "urn:uuid:d945e14a-adbf-4966-8474-3634feac40fd",
      "resource": {
        "resourceType": "Composition",
        "id": "d945e14a-adbf-4966-8474-3634feac40fd",
        "meta": {
          "profile": [
            "http://hl7.eu/fhir/laboratory/StructureDefinition/Composition-eu-lab"
          ]
        },
        "identifier": {
          "assigner": {
            "display": "HL7 Europe"
          },
          "system": "urn:oid:2.16.840.1.113883.2.51.999",
          "value": "4ff3ca3b-f603-49a4-982f-a279f2163acb"
        },
        "author": [
          {
            "reference": "urn:uuid:af917edf-1821-4528-b005-6eb996db2564"
          }
        ],
        "category": [
          {
            "coding": [
              {
                "code": "26436-6",
                "system": "http://loinc.org",
                "display": "Laboratory studies (set)"
              }
            ]
          }
        ],
        "type": {
          "coding": [
            {
              "code": "11502-2",
              "system": "http://loinc.org",
              "display": "Laboratory report"
            }
          ],
          "text": "Laboratory Report"
        },
        "section": [
          {
            "code": {
              "coding": [
                {
                  "code": "26436-6",
                  "system": "http://loinc.org",
                  "display": "Laboratory studies (set)"
                }
              ],
              "text": "Laboratory studies"
            },
            "section": [
              {
                "code": {
                  "coding": [
                    {
                      "code": "$18723-7",
                      "system": "http://loinc.org",
                      "display": "Hematology studies (set)"
                    }
                  ],
                  "text": "Hematology"
                },
                "entry": [
                  {
                    "reference": "urn:uuid:e6b10cb3-73f3-4589-b830-f24305f48766"
                  },
                  {
                    "reference": "urn:uuid:9752fae7-0fbc-42c6-8aa4-654f6882eb36"
                  },
                  {
                    "reference": "urn:uuid:2f21fe0e-4f34-4f41-ba27-f8131f34ab1e"
                  },
                  {
                    "reference": "urn:uuid:152c348f-2c1b-40fc-aa64-e97a62467a44"
                  },
                  {
                    "reference": "urn:uuid:85c3bf56-91fe-4531-b228-ddeadda13c6e"
                  },
                  {
                    "reference": "urn:uuid:b49a07da-bd42-4443-abf4-fd5e47d303c9"
                  },
                  {
                    "reference": "urn:uuid:bfa8eda1-8d1e-4310-a54b-07ca2f576579"
                  },
                  {
                    "reference": "urn:uuid:2727b6eb-0ea3-4cd9-a03d-90c0e6e0e511"
                  },
                  {
                    "reference": "urn:uuid:d187b5c3-04ab-47a0-99b6-f99ba2c0ee1e"
                  },
                  {
                    "reference": "urn:uuid:10d004ff-f728-4e3f-a605-f5f6aec26f4b"
                  },
                  {
                    "reference": "urn:uuid:fd963da0-0f6a-4cd4-a69c-282d9d840807"
                  }
                ],
                "text": {
                  "status": "generated",
                  "div": "<div xmlns=\"http://www.w3.org/1999/xhtml\"><h3>Hematology</h3><table class=\"hl7__eu__lab__report\"><thead><tr><th>Test</th><th>18-APR-2022</th><th>Reference&#xA0;Range</th><th>Unit</th></tr></thead><tbody><tr><td>Leukocytes [#/volume] in Blood by Automated count</td><td>7.2</td><td>4 - 11</td><td>10*3/uL</td></tr><tr><td>Erythrocytes [#/volume] in Blood by Automated count</td><td>5.0</td><td>4.2 - 6.2</td><td>10*6/uL</td></tr><tr><td>Hemoglobin [Mass/volume] in Blood</td><td>13.5</td><td>13.5 - 17.5</td><td>g/dL</td></tr><tr><td>Hematocrit [Volume Fraction] of Blood by Automated count</td><td>42.6</td><td>38 - 50</td><td>%</td></tr><tr><td>MCV [Entitic volume] by Automated count</td><td>89.5</td><td>80 - 98</td><td>fL</td></tr><tr><td>MCH [Entitic mass] by Automated count</td><td>27.4</td><td>27 - 34</td><td>pg</td></tr><tr><td>MCHC [Mass/volume] by Automated count</td><td>33.1</td><td>31 - 35</td><td>g/dL</td></tr><tr><td>Erythrocyte distribution width [Entitic volume] by Automated count</td><td>41.4</td><td>36 - 55</td><td>fL</td></tr><tr><td>Platelets [#/volume] in Blood by Automated count</td><td>229.2</td><td>140 - 363</td><td>10*3/uL</td></tr><tr><td>Platelet distribution width [Entitic volume] in Blood by Automated count</td><td><strong>430.3 H</strong></td><td>144 - 366</td><td>fL</td></tr><tr><td>Platelet mean volume [Entitic volume] in Blood by Automated count</td><td>10.3</td><td>9.4 - 13.5</td><td>fL</td></tr></tbody></table></div>"
                },
                "title": "Hematology"
              },
              {
                "code": {
                  "coding": [
                    {
                      "code": "$18719-5",
                      "system": "http://loinc.org",
                      "display": "Chemistry studies (set)"
                    }
                  ],
                  "text": "Chemistry"
                },
                "entry": [
                  {
                    "reference": "urn:uuid:73287b08-b690-486e-984b-ca6495c9f92f"
                  },
                  {
                    "reference": "urn:uuid:e052d7e7-beef-4f9a-b81b-7a54902792d7"
                  },
                  {
                    "reference": "urn:uuid:989e2f26-98ca-4a0c-a7a2-851d41f88ae2"
                  },
                  {
                    "reference": "urn:uuid:0964b109-3432-4ca8-9515-ddeda2a2a6ee"
                  },
                  {
                    "reference": "urn:uuid:99bb71e6-3b6f-4c44-b260-35eb54654318"
                  },
                  {
                    "reference": "urn:uuid:bef4642d-62da-42e8-a90c-bf7e52705d49"
                  },
                  {
                    "reference": "urn:uuid:28a1b18f-d597-4f85-9bbf-f5c85ad89c65"
                  },
                  {
                    "reference": "urn:uuid:c938f4bc-a2fc-4ff7-9a7e-d64c0f4518cb"
                  },
                  {
                    "reference": "urn:uuid:34656dab-7939-4868-b14c-5e9f6838ed5d"
                  },
                  {
                    "reference": "urn:uuid:771fab40-570f-444a-8cea-86cc3486d7e5"
                  },
                  {
                    "reference": "urn:uuid:4686911d-8476-47ab-b732-dd1fa4def8a2"
                  },
                  {
                    "reference": "urn:uuid:f5df628c-7ca5-4bb0-bc22-d1ffd5a2c5d8"
                  },
                  {
                    "reference": "urn:uuid:f96b0d2a-0e8e-4c73-9251-0a96c8ea5429"
                  }
                ],
                "text": {
                  "status": "generated",
                  "div": "<div xmlns=\"http://www.w3.org/1999/xhtml\"><h3>Chemistry</h3><table class=\"hl7__eu__lab__report\"><thead><tr><th>Test</th><th>18-APR-2022</th><th>Reference&#xA0;Range</th><th>Unit</th></tr></thead><tbody><tr><td>Hemoglobin A1c/Hemoglobin.total in Blood</td><td>6.0</td><td>4 - 6</td><td>%</td></tr><tr><td>Glucose [Mass/volume] in Blood</td><td><strong>65.1 L</strong></td><td>70 - 140</td><td>mg/dL</td></tr><tr><td>Urea nitrogen [Mass/volume] in Blood</td><td>12.8</td><td>7 - 20</td><td>mg/dL</td></tr><tr><td>Creatinine [Mass/volume] in Blood</td><td>0.9</td><td>0.9 - 1.3</td><td>mg/dL</td></tr><tr><td>Calcium [Mass/volume] in Blood</td><td>9.3</td><td>8.5 - 10.5</td><td>mg/dL</td></tr><tr><td>Sodium [Moles/volume] in Blood</td><td>137.1</td><td>135 - 145</td><td>mmol/L</td></tr><tr><td>Potassium [Moles/volume] in Blood</td><td>3.9</td><td>3.5 - 5</td><td>mmol/L</td></tr><tr><td>Chloride [Moles/volume] in Blood</td><td>108.8</td><td>98 - 110</td><td>mmol/L</td></tr><tr><td>Carbon dioxide, total [Moles/volume] in Blood</td><td><strong>20.2 L</strong></td><td>22 - 32</td><td>mmol/L</td></tr><tr><td>Cholesterol [Mass/volume] in Serum or Plasma</td><td>178.5</td><td>125 - 200</td><td>mg/dL</td></tr><tr><td>Triglyceride [Mass/volume] in Serum or Plasma</td><td>147.5</td><td>0 - 150</td><td>mg/dL</td></tr><tr><td>Cholesterol in LDL [Mass/volume] in Serum or Plasma by Direct assay</td><td>118.3</td><td>0 - 130</td><td>mg/dL</td></tr><tr><td>Cholesterol in HDL [Mass/volume] in Serum or Plasma</td><td><strong>30.7 L</strong></td><td>40 - 60</td><td>mg/dL</td></tr></tbody></table></div>"
                },
                "title": "Chemistry"
              }
            ],
            "title": "Laboratory Report"
          },
          {
            "text": {
              "status": "generated",
              "div": "<div xmlns=\"http://www.w3.org/1999/xhtml\"><h3>Annotation</h3><table class=\"hl7__eu__lab__report\"><tr><th>Conclusion and Recommendations based on this report and previous findings known to us</th></tr><tr><td>The results show mildly increased HbA1c (6.0%) at the upper limit of normal, low fasting glucose (65.1 mg/dL), low HDL cholesterol, and low total CO₂, which may suggest mild metabolic acidosis. Platelet distribution width is elevated, possibly indicating platelet activation or variability. Renal, liver, and hematological parameters are within normal limits. Recommend clinical correlation for hypoglycemia, cardiovascular risk (low HDL), and possible metabolic acidosis.</td></tr></table></div>"
            },
            "code": {
              "coding": [
                {
                  "system": "http://loinc.org",
                  "code": "48767-8",
                  "display": "Annotation comment"
                }
              ]
            },
            "title": "Annotation comment"
          }
        ],
        "status": "final",
        "subject": {
          "reference": "urn:uuid:2a600959-4ca5-48ee-ab86-fcbfda9aed8e",
          "display": "Alessio Fanucci"
        },
        "date": "2022-04-18T09:49:06Z",
        "title": "Laboratory Report",
        "confidentiality": "N"
      }
    },
    {
      "fullUrl": "urn:uuid:ed529ba5-a6ee-422d-8fb1-832c65546106",
      "resource": {
        "resourceType": "DiagnosticReport",
        "id": "ed529ba5-a6ee-422d-8fb1-832c65546106",
        "meta": {
          "profile": [
            "http://hl7.eu/fhir/laboratory/StructureDefinition/DiagnosticReport-eu-lab"
          ]
        },
        "identifier": [
          {
            "assigner": {
              "display": "HL7 Europe"
            },
            "system": "urn:oid:2.16.840.1.113883.2.51.999",
            "value": "3da38663-a03b-4dbb-8db2-9680419a7a10"
          }
        ],
        "extension": [
          {
            "url": "http://hl7.org/fhir/5.0/StructureDefinition/extension-DiagnosticReport.composition",
            "valueReference": {
              "reference": "urn:uuid:4ff3ca3b-f603-49a4-982f-a279f2163acb"
            }
          }
        ],
        "category": [
          {
            "coding": [
              {
                "code": "26436-6",
                "system": "http://loinc.org",
                "display": "Laboratory studies (set)"
              }
            ]
          }
        ],
        "specimen": [
          {
            "reference": "urn:uuid:4a27342f-4fb7-4709-acc1-be78cf277c06"
          },
          {
            "reference": "urn:uuid:57b10da2-dee3-4965-b804-e8222344a201"
          },
          {
            "reference": "urn:uuid:4a27342f-4fb7-4709-acc1-be78cf277c06"
          }
        ],
        "result": [
          {
            "reference": "urn:uuid:73287b08-b690-486e-984b-ca6495c9f92f"
          },
          {
            "reference": "urn:uuid:e052d7e7-beef-4f9a-b81b-7a54902792d7"
          },
          {
            "reference": "urn:uuid:989e2f26-98ca-4a0c-a7a2-851d41f88ae2"
          },
          {
            "reference": "urn:uuid:0964b109-3432-4ca8-9515-ddeda2a2a6ee"
          },
          {
            "reference": "urn:uuid:99bb71e6-3b6f-4c44-b260-35eb54654318"
          },
          {
            "reference": "urn:uuid:bef4642d-62da-42e8-a90c-bf7e52705d49"
          },
          {
            "reference": "urn:uuid:28a1b18f-d597-4f85-9bbf-f5c85ad89c65"
          },
          {
            "reference": "urn:uuid:c938f4bc-a2fc-4ff7-9a7e-d64c0f4518cb"
          },
          {
            "reference": "urn:uuid:34656dab-7939-4868-b14c-5e9f6838ed5d"
          },
          {
            "reference": "urn:uuid:771fab40-570f-444a-8cea-86cc3486d7e5"
          },
          {
            "reference": "urn:uuid:4686911d-8476-47ab-b732-dd1fa4def8a2"
          },
          {
            "reference": "urn:uuid:f5df628c-7ca5-4bb0-bc22-d1ffd5a2c5d8"
          },
          {
            "reference": "urn:uuid:f96b0d2a-0e8e-4c73-9251-0a96c8ea5429"
          },
          {
            "reference": "urn:uuid:e6b10cb3-73f3-4589-b830-f24305f48766"
          },
          {
            "reference": "urn:uuid:9752fae7-0fbc-42c6-8aa4-654f6882eb36"
          },
          {
            "reference": "urn:uuid:2f21fe0e-4f34-4f41-ba27-f8131f34ab1e"
          },
          {
            "reference": "urn:uuid:152c348f-2c1b-40fc-aa64-e97a62467a44"
          },
          {
            "reference": "urn:uuid:85c3bf56-91fe-4531-b228-ddeadda13c6e"
          },
          {
            "reference": "urn:uuid:b49a07da-bd42-4443-abf4-fd5e47d303c9"
          },
          {
            "reference": "urn:uuid:bfa8eda1-8d1e-4310-a54b-07ca2f576579"
          },
          {
            "reference": "urn:uuid:2727b6eb-0ea3-4cd9-a03d-90c0e6e0e511"
          },
          {
            "reference": "urn:uuid:d187b5c3-04ab-47a0-99b6-f99ba2c0ee1e"
          },
          {
            "reference": "urn:uuid:10d004ff-f728-4e3f-a605-f5f6aec26f4b"
          },
          {
            "reference": "urn:uuid:fd963da0-0f6a-4cd4-a69c-282d9d840807"
          }
        ],
        "status": "registered",
        "code": {
          "coding": [
            {
              "code": "11502-2",
              "system": "http://loinc.org",
              "display": "Laboratory report"
            }
          ]
        },
        "subject": {
          "reference": "urn:uuid:2a600959-4ca5-48ee-ab86-fcbfda9aed8e",
          "display": "Alessio Fanucci"
        }
      }
    },
    {
      "fullUrl": "urn:uuid:2a600959-4ca5-48ee-ab86-fcbfda9aed8e",
      "resource": {
        "resourceType": "Patient",
        "id": "2a600959-4ca5-48ee-ab86-fcbfda9aed8e",
        "meta": {
          "security": [
            {
              "system": "http://terminology.hl7.org/CodeSystem/v3-ActReason",
              "code": "HTEST"
            },
            {
              "system": "http://terminology.hl7.org/CodeSystem/v3-ActReason",
              "code": "TRAIN"
            }
          ],
          "tag": [
            {
              "system": "https://synderai.net/fhir/CodeSystem/tags",
              "code": "synthetic",
              "display": "SYNDERAI Synthetic data"
            }
          ],
          "profile": [
            "http://hl7.eu/fhir/base/StructureDefinition/patient-eu-core"
          ]
        },
        "identifier": [
          {
            "type": {
              "coding": [
                {
                  "code": "PT",
                  "system": "http://terminology.hl7.org/CodeSystem/v2-0203"
                }
              ]
            },
            "system": "http://ec.europa.eu/identifier/eci",
            "value": "4754-874768-3"
          },
          {
            "type": {
              "coding": [
                {
                  "code": "MR",
                  "system": "http://terminology.hl7.org/CodeSystem/v2-0203"
                }
              ]
            },
            "system": "http://local.setting.eu/identifier",
            "value": "4b888823-bdd8-59a3-b785-e7ba28e6a7b5"
          }
        ],
        "name": [
          {
            "family": "Fanucci"
          },
          {
            "given": [
              "Alessio"
            ]
          },
          {
            "text": "Alessio Fanucci"
          }
        ],
        "address": [
          {
            "line": [
              "Incrocio Combi, 822"
            ],
            "use": "home",
            "type": "physical",
            "postalCode": "33015",
            "city": "Moggio Udinese",
            "country": "Italy"
          }
        ],
        "telecom": [
          {
            "system": "phone",
            "value": "0125684636"
          }
        ],
        "extension": [
          {
            "url": "http://hl7.org/fhir/StructureDefinition/patient-nationality",
            "valueCodeableConcept": {
              "coding": [
                {
                  "code": "IT",
                  "system": "http://hl7.org/fhir/ValueSet/country"
                }
              ]
            }
          }
        ],
        "text": {
          "status": "generated",
          "div": "<div xmlns=\"http://www.w3.org/1999/xhtml\"><table class=\"hl7__ips\"><tr><td>Alessio Fanucci</td><td>male</td><td>12-Sep-1964</td></tr></table></div>"
        },
        "gender": "male",
        "birthDate": "1964-09-12"
      }
    },
    {
      "fullUrl": "urn:uuid:3189f247-bd2c-450f-b0ec-aaf7159dfe8a",
      "resource": {
        "resourceType": "ServiceRequest",
        "id": "3189f247-bd2c-450f-b0ec-aaf7159dfe8a",
        "meta": {
          "profile": [
            "http://hl7.eu/fhir/laboratory/StructureDefinition/ServiceRequest-eu-lab"
          ]
        },
        "identifier": [
          {
            "system": "http://example.org",
            "value": "12fc8d01-10f8-4be8-9d50-8ee6eeb67950"
          }
        ],
        "specimen": [
          {
            "reference": "urn:uuid:4a27342f-4fb7-4709-acc1-be78cf277c06"
          },
          {
            "reference": "urn:uuid:57b10da2-dee3-4965-b804-e8222344a201"
          }
        ],
        "reasonCode": [
          {
            "coding": [
              {
                "code": "15777000",
                "system": "http://snomed.info/sct",
                "display": "Prediabetes"
              }
            ]
          },
          {
            "coding": [
              {
                "code": "271737000",
                "system": "http://snomed.info/sct",
                "display": "Anemia"
              }
            ]
          },
          {
            "coding": [
              {
                "code": "40055000",
                "system": "http://snomed.info/sct",
                "display": "Chronic sinusitis"
              }
            ]
          }
        ],
        "status": "active",
        "intent": "order",
        "code": {
          "coding": [
            {
              "code": "108252007",
              "system": "http://snomed.info/sct",
              "display": "Laboratory procedure"
            }
          ]
        },
        "subject": {
          "reference": "urn:uuid:2a600959-4ca5-48ee-ab86-fcbfda9aed8e",
          "display": "Alessio Fanucci"
        },
        "requester": {
          "reference": "urn:uuid:17b9bd47-0118-4403-933b-247cd68f1b1a"
        }
      }
    },
    {
      "fullUrl": "urn:uuid:17b9bd47-0118-4403-933b-247cd68f1b1a",
      "resource": {
        "resourceType": "PractitionerRole",
        "id": "17b9bd47-0118-4403-933b-247cd68f1b1a",
        "meta": {
          "profile": [
            "http://hl7.eu/fhir/base/StructureDefinition/practitionerRole-eu"
          ]
        },
        "text": {
          "status": "generated",
          "div": "<div xmlns=\"http://www.w3.org/1999/xhtml\">Provider Role Id: 17b9bd47-0118-4403-933b-247cd68f1b1a</div>"
        },
        "organization": {
          "reference": "urn:uuid:312e40a0-54db-45fa-a837-27ccb1674b4f"
        }
      }
    },
    {
      "fullUrl": "urn:uuid:312e40a0-54db-45fa-a837-27ccb1674b4f",
      "resource": {
        "resourceType": "Organization",
        "id": "312e40a0-54db-45fa-a837-27ccb1674b4f",
        "meta": {
          "profile": [
            "http://hl7.eu/fhir/base/StructureDefinition/organization-eu"
          ]
        },
        "identifier": [
          {
            "assigner": {
              "display": "HL7 Europe"
            },
            "system": "urn:oid:2.16.840.1.113883.2.51.999",
            "value": "6005a8f0-c7f0-4e88-893d-4f09fd263d51"
          }
        ],
        "address": [
          {
            "city": "Artegna",
            "postalCode": "33011",
            "country": "Italy"
          }
        ],
        "text": {
          "status": "generated",
          "div": "<div xmlns=\"http://www.w3.org/1999/xhtml\">Provider Organization: Ambulatori</div>"
        },
        "name": "Ambulatori"
      }
    },
    {
      "fullUrl": "urn:uuid:4a27342f-4fb7-4709-acc1-be78cf277c06",
      "resource": {
        "resourceType": "Specimen",
        "id": "4a27342f-4fb7-4709-acc1-be78cf277c06",
        "meta": {
          "profile": [
            "http://hl7.eu/fhir/laboratory/StructureDefinition/Specimen-eu-lab"
          ]
        },
        "collection": {
          "collectedDateTime": "2022-04-18"
        },
        "text": {
          "status": "generated",
          "div": "<div xmlns=\"http://www.w3.org/1999/xhtml\"><table class=\"hl7__eu__lab__report\"><tr><th>Specimen</th><th>Collection Date</th></tr><tr><td>Whole blood specimen (specimen)</td><td><span class=\"nb\">18-Apr-2022</span></td></tr></table></div>"
        },
        "type": {
          "coding": [
            {
              "code": "258580003",
              "system": "http://snomed.info/sct",
              "display": "Whole blood specimen (specimen)"
            }
          ]
        }
      }
    },
    {
      "fullUrl": "urn:uuid:57b10da2-dee3-4965-b804-e8222344a201",
      "resource": {
        "resourceType": "Specimen",
        "id": "57b10da2-dee3-4965-b804-e8222344a201",
        "meta": {
          "profile": [
            "http://hl7.eu/fhir/laboratory/StructureDefinition/Specimen-eu-lab"
          ]
        },
        "collection": {
          "collectedDateTime": "2022-04-18"
        },
        "text": {
          "status": "generated",
          "div": "<div xmlns=\"http://www.w3.org/1999/xhtml\"><table class=\"hl7__eu__lab__report\"><tr><th>Specimen</th><th>Collection Date</th></tr><tr><td>Acellular blood (serum or plasma) specimen</td><td><span class=\"nb\">18-Apr-2022</span></td></tr></table></div>"
        },
        "type": {
          "coding": [
            {
              "code": "122592007",
              "system": "http://snomed.info/sct",
              "display": "Acellular blood (serum or plasma) specimen"
            }
          ]
        }
      }
    },
    {
      "fullUrl": "urn:uuid:4a27342f-4fb7-4709-acc1-be78cf277c06",
      "resource": {
        "resourceType": "Specimen",
        "id": "4a27342f-4fb7-4709-acc1-be78cf277c06",
        "meta": {
          "profile": [
            "http://hl7.eu/fhir/laboratory/StructureDefinition/Specimen-eu-lab"
          ]
        },
        "collection": {
          "collectedDateTime": "2022-04-18"
        },
        "text": {
          "status": "generated",
          "div": "<div xmlns=\"http://www.w3.org/1999/xhtml\"><table class=\"hl7__eu__lab__report\"><tr><th>Specimen</th><th>Collection Date</th></tr><tr><td>Whole blood specimen (specimen)</td><td><span class=\"nb\">18-Apr-2022</span></td></tr></table></div>"
        },
        "type": {
          "coding": [
            {
              "code": "258580003",
              "system": "http://snomed.info/sct",
              "display": "Whole blood specimen (specimen)"
            }
          ]
        }
      }
    },
    {
      "fullUrl": "urn:uuid:73287b08-b690-486e-984b-ca6495c9f92f",
      "resource": {
        "resourceType": "Observation",
        "id": "73287b08-b690-486e-984b-ca6495c9f92f",
        "meta": {
          "profile": [
            "http://hl7.eu/fhir/laboratory/StructureDefinition/Observation-resultslab-eu-lab"
          ]
        },
        "performer": [
          {
            "display": "The Central European Lab"
          }
        ],
        "category": [
          {
            "coding": [
              {
                "system": "http://terminology.hl7.org/CodeSystem/observation-category",
                "code": "laboratory"
              }
            ]
          }
        ],
        "code": {
          "coding": [
            {
              "code": "4548-4",
              "system": "http://loinc.org",
              "display": "Hemoglobin A1c/Hemoglobin.total in Blood"
            }
          ],
          "text": "Hemoglobin A1c/Hemoglobin.total in Blood"
        },
        "valueQuantity": {
          "system": "http://unitsofmeasure.org",
          "value": 6,
          "unit": "%",
          "code": "%"
        },
        "referenceRange": [
          {
            "low": {
              "value": 4,
              "code": "%",
              "system": "http://unitsofmeasure.org"
            }
          },
          {
            "high": {
              "value": 6,
              "code": "%",
              "system": "http://unitsofmeasure.org"
            }
          }
        ],
        "text": {
          "status": "generated",
          "div": "<div xmlns=\"http://www.w3.org/1999/xhtml\"><table class=\"hl7__eu__lab__report\"><tr><th>Test</th><th>18-Apr-2022</th><th>Reference&#xA0;Range</th><th>Unit</th></tr><tr><td>Hemoglobin A1c/Hemoglobin.total in Blood</td><td>6.0</td><td>4 - 6</td><td></td><td>%</td></tr></table></div>"
        },
        "status": "final",
        "subject": {
          "reference": "urn:uuid:2a600959-4ca5-48ee-ab86-fcbfda9aed8e",
          "display": "Alessio Fanucci"
        },
        "effectiveDateTime": "2022-04-18T07:49:06Z",
        "specimen": {
          "reference": "urn:uuid:4a27342f-4fb7-4709-acc1-be78cf277c06"
        }
      }
    },
    {
      "fullUrl": "urn:uuid:e052d7e7-beef-4f9a-b81b-7a54902792d7",
      "resource": {
        "resourceType": "Observation",
        "id": "e052d7e7-beef-4f9a-b81b-7a54902792d7",
        "meta": {
          "profile": [
            "http://hl7.eu/fhir/laboratory/StructureDefinition/Observation-resultslab-eu-lab"
          ]
        },
        "performer": [
          {
            "display": "The Central European Lab"
          }
        ],
        "category": [
          {
            "coding": [
              {
                "system": "http://terminology.hl7.org/CodeSystem/observation-category",
                "code": "laboratory"
              }
            ]
          }
        ],
        "code": {
          "coding": [
            {
              "code": "2339-0",
              "system": "http://loinc.org",
              "display": "Glucose [Mass/volume] in Blood"
            }
          ],
          "text": "Glucose [Mass/volume] in Blood"
        },
        "valueQuantity": {
          "system": "http://unitsofmeasure.org",
          "value": 65.1,
          "unit": "mg/dL",
          "code": "mg/dL"
        },
        "referenceRange": [
          {
            "low": {
              "value": 70,
              "code": "mg/dL",
              "system": "http://unitsofmeasure.org"
            }
          },
          {
            "high": {
              "value": 140,
              "code": "mg/dL",
              "system": "http://unitsofmeasure.org"
            }
          }
        ],
        "interpretation": [
          {
            "coding": [
              {
                "code": "L",
                "system": "http://terminology.hl7.org/CodeSystem/v3-ObservationInterpretation",
                "display": "Low"
              }
            ]
          }
        ],
        "text": {
          "status": "generated",
          "div": "<div xmlns=\"http://www.w3.org/1999/xhtml\"><table class=\"hl7__eu__lab__report\"><tr><th>Test</th><th>18-Apr-2022</th><th>Reference&#xA0;Range</th><th>Unit</th></tr><tr><td>Glucose [Mass/volume] in Blood</td><td>65.1</td><td>70 - 140</td><td>L</td><td>mg/dL</td></tr></table></div>"
        },
        "status": "final",
        "subject": {
          "reference": "urn:uuid:2a600959-4ca5-48ee-ab86-fcbfda9aed8e",
          "display": "Alessio Fanucci"
        },
        "effectiveDateTime": "2022-04-18T07:49:06Z",
        "specimen": {
          "reference": "urn:uuid:4a27342f-4fb7-4709-acc1-be78cf277c06"
        }
      }
    },
    {
      "fullUrl": "urn:uuid:989e2f26-98ca-4a0c-a7a2-851d41f88ae2",
      "resource": {
        "resourceType": "Observation",
        "id": "989e2f26-98ca-4a0c-a7a2-851d41f88ae2",
        "meta": {
          "profile": [
            "http://hl7.eu/fhir/laboratory/StructureDefinition/Observation-resultslab-eu-lab"
          ]
        },
        "performer": [
          {
            "display": "The Central European Lab"
          }
        ],
        "category": [
          {
            "coding": [
              {
                "system": "http://terminology.hl7.org/CodeSystem/observation-category",
                "code": "laboratory"
              }
            ]
          }
        ],
        "code": {
          "coding": [
            {
              "code": "6299-2",
              "system": "http://loinc.org",
              "display": "Urea nitrogen [Mass/volume] in Blood"
            }
          ],
          "text": "Urea nitrogen [Mass/volume] in Blood"
        },
        "valueQuantity": {
          "system": "http://unitsofmeasure.org",
          "value": 12.8,
          "unit": "mg/dL",
          "code": "mg/dL"
        },
        "referenceRange": [
          {
            "low": {
              "value": 7,
              "code": "mg/dL",
              "system": "http://unitsofmeasure.org"
            }
          },
          {
            "high": {
              "value": 20,
              "code": "mg/dL",
              "system": "http://unitsofmeasure.org"
            }
          }
        ],
        "text": {
          "status": "generated",
          "div": "<div xmlns=\"http://www.w3.org/1999/xhtml\"><table class=\"hl7__eu__lab__report\"><tr><th>Test</th><th>18-Apr-2022</th><th>Reference&#xA0;Range</th><th>Unit</th></tr><tr><td>Urea nitrogen [Mass/volume] in Blood</td><td>12.8</td><td>7 - 20</td><td></td><td>mg/dL</td></tr></table></div>"
        },
        "status": "final",
        "subject": {
          "reference": "urn:uuid:2a600959-4ca5-48ee-ab86-fcbfda9aed8e",
          "display": "Alessio Fanucci"
        },
        "effectiveDateTime": "2022-04-18T07:49:06Z",
        "specimen": {
          "reference": "urn:uuid:4a27342f-4fb7-4709-acc1-be78cf277c06"
        }
      }
    },
    {
      "fullUrl": "urn:uuid:0964b109-3432-4ca8-9515-ddeda2a2a6ee",
      "resource": {
        "resourceType": "Observation",
        "id": "0964b109-3432-4ca8-9515-ddeda2a2a6ee",
        "meta": {
          "profile": [
            "http://hl7.eu/fhir/laboratory/StructureDefinition/Observation-resultslab-eu-lab"
          ]
        },
        "performer": [
          {
            "display": "The Central European Lab"
          }
        ],
        "category": [
          {
            "coding": [
              {
                "system": "http://terminology.hl7.org/CodeSystem/observation-category",
                "code": "laboratory"
              }
            ]
          }
        ],
        "code": {
          "coding": [
            {
              "code": "38483-4",
              "system": "http://loinc.org",
              "display": "Creatinine [Mass/volume] in Blood"
            }
          ],
          "text": "Creatinine [Mass/volume] in Blood"
        },
        "valueQuantity": {
          "system": "http://unitsofmeasure.org",
          "value": 0.9,
          "unit": "mg/dL",
          "code": "mg/dL"
        },
        "referenceRange": [
          {
            "low": {
              "value": 0.9,
              "code": "mg/dL",
              "system": "http://unitsofmeasure.org"
            }
          },
          {
            "high": {
              "value": 1.3,
              "code": "mg/dL",
              "system": "http://unitsofmeasure.org"
            }
          }
        ],
        "text": {
          "status": "generated",
          "div": "<div xmlns=\"http://www.w3.org/1999/xhtml\"><table class=\"hl7__eu__lab__report\"><tr><th>Test</th><th>18-Apr-2022</th><th>Reference&#xA0;Range</th><th>Unit</th></tr><tr><td>Creatinine [Mass/volume] in Blood</td><td>0.9</td><td>0.9 - 1.3</td><td></td><td>mg/dL</td></tr></table></div>"
        },
        "status": "final",
        "subject": {
          "reference": "urn:uuid:2a600959-4ca5-48ee-ab86-fcbfda9aed8e",
          "display": "Alessio Fanucci"
        },
        "effectiveDateTime": "2022-04-18T07:49:06Z",
        "specimen": {
          "reference": "urn:uuid:4a27342f-4fb7-4709-acc1-be78cf277c06"
        }
      }
    },
    {
      "fullUrl": "urn:uuid:99bb71e6-3b6f-4c44-b260-35eb54654318",
      "resource": {
        "resourceType": "Observation",
        "id": "99bb71e6-3b6f-4c44-b260-35eb54654318",
        "meta": {
          "profile": [
            "http://hl7.eu/fhir/laboratory/StructureDefinition/Observation-resultslab-eu-lab"
          ]
        },
        "performer": [
          {
            "display": "The Central European Lab"
          }
        ],
        "category": [
          {
            "coding": [
              {
                "system": "http://terminology.hl7.org/CodeSystem/observation-category",
                "code": "laboratory"
              }
            ]
          }
        ],
        "code": {
          "coding": [
            {
              "code": "49765-1",
              "system": "http://loinc.org",
              "display": "Calcium [Mass/volume] in Blood"
            }
          ],
          "text": "Calcium [Mass/volume] in Blood"
        },
        "valueQuantity": {
          "system": "http://unitsofmeasure.org",
          "value": 9.3,
          "unit": "mg/dL",
          "code": "mg/dL"
        },
        "referenceRange": [
          {
            "low": {
              "value": 8.5,
              "code": "mg/dL",
              "system": "http://unitsofmeasure.org"
            }
          },
          {
            "high": {
              "value": 10.5,
              "code": "mg/dL",
              "system": "http://unitsofmeasure.org"
            }
          }
        ],
        "text": {
          "status": "generated",
          "div": "<div xmlns=\"http://www.w3.org/1999/xhtml\"><table class=\"hl7__eu__lab__report\"><tr><th>Test</th><th>18-Apr-2022</th><th>Reference&#xA0;Range</th><th>Unit</th></tr><tr><td>Calcium [Mass/volume] in Blood</td><td>9.3</td><td>8.5 - 10.5</td><td></td><td>mg/dL</td></tr></table></div>"
        },
        "status": "final",
        "subject": {
          "reference": "urn:uuid:2a600959-4ca5-48ee-ab86-fcbfda9aed8e",
          "display": "Alessio Fanucci"
        },
        "effectiveDateTime": "2022-04-18T07:49:06Z",
        "specimen": {
          "reference": "urn:uuid:4a27342f-4fb7-4709-acc1-be78cf277c06"
        }
      }
    },
    {
      "fullUrl": "urn:uuid:bef4642d-62da-42e8-a90c-bf7e52705d49",
      "resource": {
        "resourceType": "Observation",
        "id": "bef4642d-62da-42e8-a90c-bf7e52705d49",
        "meta": {
          "profile": [
            "http://hl7.eu/fhir/laboratory/StructureDefinition/Observation-resultslab-eu-lab"
          ]
        },
        "performer": [
          {
            "display": "The Central European Lab"
          }
        ],
        "category": [
          {
            "coding": [
              {
                "system": "http://terminology.hl7.org/CodeSystem/observation-category",
                "code": "laboratory"
              }
            ]
          }
        ],
        "code": {
          "coding": [
            {
              "code": "2947-0",
              "system": "http://loinc.org",
              "display": "Sodium [Moles/volume] in Blood"
            }
          ],
          "text": "Sodium [Moles/volume] in Blood"
        },
        "valueQuantity": {
          "system": "http://unitsofmeasure.org",
          "value": 137.1,
          "unit": "mmol/L",
          "code": "mmol/L"
        },
        "referenceRange": [
          {
            "low": {
              "value": 135,
              "code": "mmol/L",
              "system": "http://unitsofmeasure.org"
            }
          },
          {
            "high": {
              "value": 145,
              "code": "mmol/L",
              "system": "http://unitsofmeasure.org"
            }
          }
        ],
        "text": {
          "status": "generated",
          "div": "<div xmlns=\"http://www.w3.org/1999/xhtml\"><table class=\"hl7__eu__lab__report\"><tr><th>Test</th><th>18-Apr-2022</th><th>Reference&#xA0;Range</th><th>Unit</th></tr><tr><td>Sodium [Moles/volume] in Blood</td><td>137.1</td><td>135 - 145</td><td></td><td>mmol/L</td></tr></table></div>"
        },
        "status": "final",
        "subject": {
          "reference": "urn:uuid:2a600959-4ca5-48ee-ab86-fcbfda9aed8e",
          "display": "Alessio Fanucci"
        },
        "effectiveDateTime": "2022-04-18T07:49:06Z",
        "specimen": {
          "reference": "urn:uuid:4a27342f-4fb7-4709-acc1-be78cf277c06"
        }
      }
    },
    {
      "fullUrl": "urn:uuid:28a1b18f-d597-4f85-9bbf-f5c85ad89c65",
      "resource": {
        "resourceType": "Observation",
        "id": "28a1b18f-d597-4f85-9bbf-f5c85ad89c65",
        "meta": {
          "profile": [
            "http://hl7.eu/fhir/laboratory/StructureDefinition/Observation-resultslab-eu-lab"
          ]
        },
        "performer": [
          {
            "display": "The Central European Lab"
          }
        ],
        "category": [
          {
            "coding": [
              {
                "system": "http://terminology.hl7.org/CodeSystem/observation-category",
                "code": "laboratory"
              }
            ]
          }
        ],
        "code": {
          "coding": [
            {
              "code": "6298-4",
              "system": "http://loinc.org",
              "display": "Potassium [Moles/volume] in Blood"
            }
          ],
          "text": "Potassium [Moles/volume] in Blood"
        },
        "valueQuantity": {
          "system": "http://unitsofmeasure.org",
          "value": 3.9,
          "unit": "mmol/L",
          "code": "mmol/L"
        },
        "referenceRange": [
          {
            "low": {
              "value": 3.5,
              "code": "mmol/L",
              "system": "http://unitsofmeasure.org"
            }
          },
          {
            "high": {
              "value": 5,
              "code": "mmol/L",
              "system": "http://unitsofmeasure.org"
            }
          }
        ],
        "text": {
          "status": "generated",
          "div": "<div xmlns=\"http://www.w3.org/1999/xhtml\"><table class=\"hl7__eu__lab__report\"><tr><th>Test</th><th>18-Apr-2022</th><th>Reference&#xA0;Range</th><th>Unit</th></tr><tr><td>Potassium [Moles/volume] in Blood</td><td>3.9</td><td>3.5 - 5</td><td></td><td>mmol/L</td></tr></table></div>"
        },
        "status": "final",
        "subject": {
          "reference": "urn:uuid:2a600959-4ca5-48ee-ab86-fcbfda9aed8e",
          "display": "Alessio Fanucci"
        },
        "effectiveDateTime": "2022-04-18T07:49:06Z",
        "specimen": {
          "reference": "urn:uuid:4a27342f-4fb7-4709-acc1-be78cf277c06"
        }
      }
    },
    {
      "fullUrl": "urn:uuid:c938f4bc-a2fc-4ff7-9a7e-d64c0f4518cb",
      "resource": {
        "resourceType": "Observation",
        "id": "c938f4bc-a2fc-4ff7-9a7e-d64c0f4518cb",
        "meta": {
          "profile": [
            "http://hl7.eu/fhir/laboratory/StructureDefinition/Observation-resultslab-eu-lab"
          ]
        },
        "performer": [
          {
            "display": "The Central European Lab"
          }
        ],
        "category": [
          {
            "coding": [
              {
                "system": "http://terminology.hl7.org/CodeSystem/observation-category",
                "code": "laboratory"
              }
            ]
          }
        ],
        "code": {
          "coding": [
            {
              "code": "2069-3",
              "system": "http://loinc.org",
              "display": "Chloride [Moles/volume] in Blood"
            }
          ],
          "text": "Chloride [Moles/volume] in Blood"
        },
        "valueQuantity": {
          "system": "http://unitsofmeasure.org",
          "value": 108.8,
          "unit": "mmol/L",
          "code": "mmol/L"
        },
        "referenceRange": [
          {
            "low": {
              "value": 98,
              "code": "mmol/L",
              "system": "http://unitsofmeasure.org"
            }
          },
          {
            "high": {
              "value": 110,
              "code": "mmol/L",
              "system": "http://unitsofmeasure.org"
            }
          }
        ],
        "text": {
          "status": "generated",
          "div": "<div xmlns=\"http://www.w3.org/1999/xhtml\"><table class=\"hl7__eu__lab__report\"><tr><th>Test</th><th>18-Apr-2022</th><th>Reference&#xA0;Range</th><th>Unit</th></tr><tr><td>Chloride [Moles/volume] in Blood</td><td>108.8</td><td>98 - 110</td><td></td><td>mmol/L</td></tr></table></div>"
        },
        "status": "final",
        "subject": {
          "reference": "urn:uuid:2a600959-4ca5-48ee-ab86-fcbfda9aed8e",
          "display": "Alessio Fanucci"
        },
        "effectiveDateTime": "2022-04-18T07:49:06Z",
        "specimen": {
          "reference": "urn:uuid:4a27342f-4fb7-4709-acc1-be78cf277c06"
        }
      }
    },
    {
      "fullUrl": "urn:uuid:34656dab-7939-4868-b14c-5e9f6838ed5d",
      "resource": {
        "resourceType": "Observation",
        "id": "34656dab-7939-4868-b14c-5e9f6838ed5d",
        "meta": {
          "profile": [
            "http://hl7.eu/fhir/laboratory/StructureDefinition/Observation-resultslab-eu-lab"
          ]
        },
        "performer": [
          {
            "display": "The Central European Lab"
          }
        ],
        "category": [
          {
            "coding": [
              {
                "system": "http://terminology.hl7.org/CodeSystem/observation-category",
                "code": "laboratory"
              }
            ]
          }
        ],
        "code": {
          "coding": [
            {
              "code": "20565-8",
              "system": "http://loinc.org",
              "display": "Carbon dioxide, total [Moles/volume] in Blood"
            }
          ],
          "text": "Carbon dioxide, total [Moles/volume] in Blood"
        },
        "valueQuantity": {
          "system": "http://unitsofmeasure.org",
          "value": 20.2,
          "unit": "mmol/L",
          "code": "mmol/L"
        },
        "referenceRange": [
          {
            "low": {
              "value": 22,
              "code": "mmol/L",
              "system": "http://unitsofmeasure.org"
            }
          },
          {
            "high": {
              "value": 32,
              "code": "mmol/L",
              "system": "http://unitsofmeasure.org"
            }
          }
        ],
        "interpretation": [
          {
            "coding": [
              {
                "code": "L",
                "system": "http://terminology.hl7.org/CodeSystem/v3-ObservationInterpretation",
                "display": "Low"
              }
            ]
          }
        ],
        "text": {
          "status": "generated",
          "div": "<div xmlns=\"http://www.w3.org/1999/xhtml\"><table class=\"hl7__eu__lab__report\"><tr><th>Test</th><th>18-Apr-2022</th><th>Reference&#xA0;Range</th><th>Unit</th></tr><tr><td>Carbon dioxide, total [Moles/volume] in Blood</td><td>20.2</td><td>22 - 32</td><td>L</td><td>mmol/L</td></tr></table></div>"
        },
        "status": "final",
        "subject": {
          "reference": "urn:uuid:2a600959-4ca5-48ee-ab86-fcbfda9aed8e",
          "display": "Alessio Fanucci"
        },
        "effectiveDateTime": "2022-04-18T07:49:06Z",
        "specimen": {
          "reference": "urn:uuid:4a27342f-4fb7-4709-acc1-be78cf277c06"
        }
      }
    },
    {
      "fullUrl": "urn:uuid:771fab40-570f-444a-8cea-86cc3486d7e5",
      "resource": {
        "resourceType": "Observation",
        "id": "771fab40-570f-444a-8cea-86cc3486d7e5",
        "meta": {
          "profile": [
            "http://hl7.eu/fhir/laboratory/StructureDefinition/Observation-resultslab-eu-lab"
          ]
        },
        "performer": [
          {
            "display": "The Central European Lab"
          }
        ],
        "category": [
          {
            "coding": [
              {
                "system": "http://terminology.hl7.org/CodeSystem/observation-category",
                "code": "laboratory"
              }
            ]
          }
        ],
        "code": {
          "coding": [
            {
              "code": "2093-3",
              "system": "http://loinc.org",
              "display": "Cholesterol [Mass/volume] in Serum or Plasma"
            }
          ],
          "text": "Cholesterol [Mass/volume] in Serum or Plasma"
        },
        "valueQuantity": {
          "system": "http://unitsofmeasure.org",
          "value": 178.5,
          "unit": "mg/dL",
          "code": "mg/dL"
        },
        "referenceRange": [
          {
            "low": {
              "value": 125,
              "code": "mg/dL",
              "system": "http://unitsofmeasure.org"
            }
          },
          {
            "high": {
              "value": 200,
              "code": "mg/dL",
              "system": "http://unitsofmeasure.org"
            }
          }
        ],
        "text": {
          "status": "generated",
          "div": "<div xmlns=\"http://www.w3.org/1999/xhtml\"><table class=\"hl7__eu__lab__report\"><tr><th>Test</th><th>18-Apr-2022</th><th>Reference&#xA0;Range</th><th>Unit</th></tr><tr><td>Cholesterol [Mass/volume] in Serum or Plasma</td><td>178.5</td><td>125 - 200</td><td></td><td>mg/dL</td></tr></table></div>"
        },
        "status": "final",
        "subject": {
          "reference": "urn:uuid:2a600959-4ca5-48ee-ab86-fcbfda9aed8e",
          "display": "Alessio Fanucci"
        },
        "effectiveDateTime": "2022-04-18T07:49:06Z",
        "specimen": {
          "reference": "urn:uuid:57b10da2-dee3-4965-b804-e8222344a201"
        }
      }
    },
    {
      "fullUrl": "urn:uuid:4686911d-8476-47ab-b732-dd1fa4def8a2",
      "resource": {
        "resourceType": "Observation",
        "id": "4686911d-8476-47ab-b732-dd1fa4def8a2",
        "meta": {
          "profile": [
            "http://hl7.eu/fhir/laboratory/StructureDefinition/Observation-resultslab-eu-lab"
          ]
        },
        "performer": [
          {
            "display": "The Central European Lab"
          }
        ],
        "category": [
          {
            "coding": [
              {
                "system": "http://terminology.hl7.org/CodeSystem/observation-category",
                "code": "laboratory"
              }
            ]
          }
        ],
        "code": {
          "coding": [
            {
              "code": "2571-8",
              "system": "http://loinc.org",
              "display": "Triglyceride [Mass/volume] in Serum or Plasma"
            }
          ],
          "text": "Triglyceride [Mass/volume] in Serum or Plasma"
        },
        "valueQuantity": {
          "system": "http://unitsofmeasure.org",
          "value": 147.5,
          "unit": "mg/dL",
          "code": "mg/dL"
        },
        "referenceRange": [
          {
            "low": {
              "value": 0,
              "code": "mg/dL",
              "system": "http://unitsofmeasure.org"
            }
          },
          {
            "high": {
              "value": 150,
              "code": "mg/dL",
              "system": "http://unitsofmeasure.org"
            }
          }
        ],
        "text": {
          "status": "generated",
          "div": "<div xmlns=\"http://www.w3.org/1999/xhtml\"><table class=\"hl7__eu__lab__report\"><tr><th>Test</th><th>18-Apr-2022</th><th>Reference&#xA0;Range</th><th>Unit</th></tr><tr><td>Triglyceride [Mass/volume] in Serum or Plasma</td><td>147.5</td><td>0 - 150</td><td></td><td>mg/dL</td></tr></table></div>"
        },
        "status": "final",
        "subject": {
          "reference": "urn:uuid:2a600959-4ca5-48ee-ab86-fcbfda9aed8e",
          "display": "Alessio Fanucci"
        },
        "effectiveDateTime": "2022-04-18T07:49:06Z",
        "specimen": {
          "reference": "urn:uuid:57b10da2-dee3-4965-b804-e8222344a201"
        }
      }
    },
    {
      "fullUrl": "urn:uuid:f5df628c-7ca5-4bb0-bc22-d1ffd5a2c5d8",
      "resource": {
        "resourceType": "Observation",
        "id": "f5df628c-7ca5-4bb0-bc22-d1ffd5a2c5d8",
        "meta": {
          "profile": [
            "http://hl7.eu/fhir/laboratory/StructureDefinition/Observation-resultslab-eu-lab"
          ]
        },
        "performer": [
          {
            "display": "The Central European Lab"
          }
        ],
        "category": [
          {
            "coding": [
              {
                "system": "http://terminology.hl7.org/CodeSystem/observation-category",
                "code": "laboratory"
              }
            ]
          }
        ],
        "code": {
          "coding": [
            {
              "code": "18262-6",
              "system": "http://loinc.org",
              "display": "Cholesterol in LDL [Mass/volume] in Serum or Plasma by Direct assay"
            }
          ],
          "text": "Cholesterol in LDL [Mass/volume] in Serum or Plasma by Direct assay"
        },
        "valueQuantity": {
          "system": "http://unitsofmeasure.org",
          "value": 118.3,
          "unit": "mg/dL",
          "code": "mg/dL"
        },
        "referenceRange": [
          {
            "low": {
              "value": 0,
              "code": "mg/dL",
              "system": "http://unitsofmeasure.org"
            }
          },
          {
            "high": {
              "value": 130,
              "code": "mg/dL",
              "system": "http://unitsofmeasure.org"
            }
          }
        ],
        "text": {
          "status": "generated",
          "div": "<div xmlns=\"http://www.w3.org/1999/xhtml\"><table class=\"hl7__eu__lab__report\"><tr><th>Test</th><th>18-Apr-2022</th><th>Reference&#xA0;Range</th><th>Unit</th></tr><tr><td>Cholesterol in LDL [Mass/volume] in Serum or Plasma by Direct assay</td><td>118.3</td><td>0 - 130</td><td></td><td>mg/dL</td></tr></table></div>"
        },
        "status": "final",
        "subject": {
          "reference": "urn:uuid:2a600959-4ca5-48ee-ab86-fcbfda9aed8e",
          "display": "Alessio Fanucci"
        },
        "effectiveDateTime": "2022-04-18T07:49:06Z",
        "specimen": {
          "reference": "urn:uuid:57b10da2-dee3-4965-b804-e8222344a201"
        }
      }
    },
    {
      "fullUrl": "urn:uuid:f96b0d2a-0e8e-4c73-9251-0a96c8ea5429",
      "resource": {
        "resourceType": "Observation",
        "id": "f96b0d2a-0e8e-4c73-9251-0a96c8ea5429",
        "meta": {
          "profile": [
            "http://hl7.eu/fhir/laboratory/StructureDefinition/Observation-resultslab-eu-lab"
          ]
        },
        "performer": [
          {
            "display": "The Central European Lab"
          }
        ],
        "category": [
          {
            "coding": [
              {
                "system": "http://terminology.hl7.org/CodeSystem/observation-category",
                "code": "laboratory"
              }
            ]
          }
        ],
        "code": {
          "coding": [
            {
              "code": "2085-9",
              "system": "http://loinc.org",
              "display": "Cholesterol in HDL [Mass/volume] in Serum or Plasma"
            }
          ],
          "text": "Cholesterol in HDL [Mass/volume] in Serum or Plasma"
        },
        "valueQuantity": {
          "system": "http://unitsofmeasure.org",
          "value": 30.7,
          "unit": "mg/dL",
          "code": "mg/dL"
        },
        "referenceRange": [
          {
            "low": {
              "value": 40,
              "code": "mg/dL",
              "system": "http://unitsofmeasure.org"
            }
          },
          {
            "high": {
              "value": 60,
              "code": "mg/dL",
              "system": "http://unitsofmeasure.org"
            }
          }
        ],
        "interpretation": [
          {
            "coding": [
              {
                "code": "L",
                "system": "http://terminology.hl7.org/CodeSystem/v3-ObservationInterpretation",
                "display": "Low"
              }
            ]
          }
        ],
        "text": {
          "status": "generated",
          "div": "<div xmlns=\"http://www.w3.org/1999/xhtml\"><table class=\"hl7__eu__lab__report\"><tr><th>Test</th><th>18-Apr-2022</th><th>Reference&#xA0;Range</th><th>Unit</th></tr><tr><td>Cholesterol in HDL [Mass/volume] in Serum or Plasma</td><td>30.7</td><td>40 - 60</td><td>L</td><td>mg/dL</td></tr></table></div>"
        },
        "status": "final",
        "subject": {
          "reference": "urn:uuid:2a600959-4ca5-48ee-ab86-fcbfda9aed8e",
          "display": "Alessio Fanucci"
        },
        "effectiveDateTime": "2022-04-18T07:49:06Z",
        "specimen": {
          "reference": "urn:uuid:57b10da2-dee3-4965-b804-e8222344a201"
        }
      }
    },
    {
      "fullUrl": "urn:uuid:e6b10cb3-73f3-4589-b830-f24305f48766",
      "resource": {
        "resourceType": "Observation",
        "id": "e6b10cb3-73f3-4589-b830-f24305f48766",
        "meta": {
          "profile": [
            "http://hl7.eu/fhir/laboratory/StructureDefinition/Observation-resultslab-eu-lab"
          ]
        },
        "performer": [
          {
            "display": "The Central European Lab"
          }
        ],
        "category": [
          {
            "coding": [
              {
                "system": "http://terminology.hl7.org/CodeSystem/observation-category",
                "code": "laboratory"
              }
            ]
          }
        ],
        "code": {
          "coding": [
            {
              "code": "6690-2",
              "system": "http://loinc.org",
              "display": "Leukocytes [#/volume] in Blood by Automated count"
            }
          ],
          "text": "Leukocytes [#/volume] in Blood by Automated count"
        },
        "valueQuantity": {
          "system": "http://unitsofmeasure.org",
          "value": 7.2,
          "unit": "10*3/uL",
          "code": "10*3/uL"
        },
        "referenceRange": [
          {
            "low": {
              "value": 4,
              "code": "10*3/uL",
              "system": "http://unitsofmeasure.org"
            }
          },
          {
            "high": {
              "value": 11,
              "code": "10*3/uL",
              "system": "http://unitsofmeasure.org"
            }
          }
        ],
        "text": {
          "status": "generated",
          "div": "<div xmlns=\"http://www.w3.org/1999/xhtml\"><table class=\"hl7__eu__lab__report\"><tr><th>Test</th><th>18-Apr-2022</th><th>Reference&#xA0;Range</th><th>Unit</th></tr><tr><td>Leukocytes [#/volume] in Blood by Automated count</td><td>7.2</td><td>4 - 11</td><td></td><td>10*3/uL</td></tr></table></div>"
        },
        "status": "final",
        "subject": {
          "reference": "urn:uuid:2a600959-4ca5-48ee-ab86-fcbfda9aed8e",
          "display": "Alessio Fanucci"
        },
        "effectiveDateTime": "2022-04-18T07:49:06Z",
        "specimen": {
          "reference": "urn:uuid:4a27342f-4fb7-4709-acc1-be78cf277c06"
        }
      }
    },
    {
      "fullUrl": "urn:uuid:9752fae7-0fbc-42c6-8aa4-654f6882eb36",
      "resource": {
        "resourceType": "Observation",
        "id": "9752fae7-0fbc-42c6-8aa4-654f6882eb36",
        "meta": {
          "profile": [
            "http://hl7.eu/fhir/laboratory/StructureDefinition/Observation-resultslab-eu-lab"
          ]
        },
        "performer": [
          {
            "display": "The Central European Lab"
          }
        ],
        "category": [
          {
            "coding": [
              {
                "system": "http://terminology.hl7.org/CodeSystem/observation-category",
                "code": "laboratory"
              }
            ]
          }
        ],
        "code": {
          "coding": [
            {
              "code": "789-8",
              "system": "http://loinc.org",
              "display": "Erythrocytes [#/volume] in Blood by Automated count"
            }
          ],
          "text": "Erythrocytes [#/volume] in Blood by Automated count"
        },
        "valueQuantity": {
          "system": "http://unitsofmeasure.org",
          "value": 5,
          "unit": "10*6/uL",
          "code": "10*6/uL"
        },
        "referenceRange": [
          {
            "low": {
              "value": 4.2,
              "code": "10*6/uL",
              "system": "http://unitsofmeasure.org"
            }
          },
          {
            "high": {
              "value": 6.2,
              "code": "10*6/uL",
              "system": "http://unitsofmeasure.org"
            }
          }
        ],
        "text": {
          "status": "generated",
          "div": "<div xmlns=\"http://www.w3.org/1999/xhtml\"><table class=\"hl7__eu__lab__report\"><tr><th>Test</th><th>18-Apr-2022</th><th>Reference&#xA0;Range</th><th>Unit</th></tr><tr><td>Erythrocytes [#/volume] in Blood by Automated count</td><td>5.0</td><td>4.2 - 6.2</td><td></td><td>10*6/uL</td></tr></table></div>"
        },
        "status": "final",
        "subject": {
          "reference": "urn:uuid:2a600959-4ca5-48ee-ab86-fcbfda9aed8e",
          "display": "Alessio Fanucci"
        },
        "effectiveDateTime": "2022-04-18T07:49:06Z",
        "specimen": {
          "reference": "urn:uuid:4a27342f-4fb7-4709-acc1-be78cf277c06"
        }
      }
    },
    {
      "fullUrl": "urn:uuid:2f21fe0e-4f34-4f41-ba27-f8131f34ab1e",
      "resource": {
        "resourceType": "Observation",
        "id": "2f21fe0e-4f34-4f41-ba27-f8131f34ab1e",
        "meta": {
          "profile": [
            "http://hl7.eu/fhir/laboratory/StructureDefinition/Observation-resultslab-eu-lab"
          ]
        },
        "performer": [
          {
            "display": "The Central European Lab"
          }
        ],
        "category": [
          {
            "coding": [
              {
                "system": "http://terminology.hl7.org/CodeSystem/observation-category",
                "code": "laboratory"
              }
            ]
          }
        ],
        "code": {
          "coding": [
            {
              "code": "718-7",
              "system": "http://loinc.org",
              "display": "Hemoglobin [Mass/volume] in Blood"
            }
          ],
          "text": "Hemoglobin [Mass/volume] in Blood"
        },
        "valueQuantity": {
          "system": "http://unitsofmeasure.org",
          "value": 13.5,
          "unit": "g/dL",
          "code": "g/dL"
        },
        "referenceRange": [
          {
            "low": {
              "value": 13.5,
              "code": "g/dL",
              "system": "http://unitsofmeasure.org"
            }
          },
          {
            "high": {
              "value": 17.5,
              "code": "g/dL",
              "system": "http://unitsofmeasure.org"
            }
          }
        ],
        "text": {
          "status": "generated",
          "div": "<div xmlns=\"http://www.w3.org/1999/xhtml\"><table class=\"hl7__eu__lab__report\"><tr><th>Test</th><th>18-Apr-2022</th><th>Reference&#xA0;Range</th><th>Unit</th></tr><tr><td>Hemoglobin [Mass/volume] in Blood</td><td>13.5</td><td>13.5 - 17.5</td><td></td><td>g/dL</td></tr></table></div>"
        },
        "status": "final",
        "subject": {
          "reference": "urn:uuid:2a600959-4ca5-48ee-ab86-fcbfda9aed8e",
          "display": "Alessio Fanucci"
        },
        "effectiveDateTime": "2022-04-18T07:49:06Z",
        "specimen": {
          "reference": "urn:uuid:4a27342f-4fb7-4709-acc1-be78cf277c06"
        }
      }
    },
    {
      "fullUrl": "urn:uuid:152c348f-2c1b-40fc-aa64-e97a62467a44",
      "resource": {
        "resourceType": "Observation",
        "id": "152c348f-2c1b-40fc-aa64-e97a62467a44",
        "meta": {
          "profile": [
            "http://hl7.eu/fhir/laboratory/StructureDefinition/Observation-resultslab-eu-lab"
          ]
        },
        "performer": [
          {
            "display": "The Central European Lab"
          }
        ],
        "category": [
          {
            "coding": [
              {
                "system": "http://terminology.hl7.org/CodeSystem/observation-category",
                "code": "laboratory"
              }
            ]
          }
        ],
        "code": {
          "coding": [
            {
              "code": "4544-3",
              "system": "http://loinc.org",
              "display": "Hematocrit [Volume Fraction] of Blood by Automated count"
            }
          ],
          "text": "Hematocrit [Volume Fraction] of Blood by Automated count"
        },
        "valueQuantity": {
          "system": "http://unitsofmeasure.org",
          "value": 42.6,
          "unit": "%",
          "code": "%"
        },
        "referenceRange": [
          {
            "low": {
              "value": 38,
              "code": "%",
              "system": "http://unitsofmeasure.org"
            }
          },
          {
            "high": {
              "value": 50,
              "code": "%",
              "system": "http://unitsofmeasure.org"
            }
          }
        ],
        "text": {
          "status": "generated",
          "div": "<div xmlns=\"http://www.w3.org/1999/xhtml\"><table class=\"hl7__eu__lab__report\"><tr><th>Test</th><th>18-Apr-2022</th><th>Reference&#xA0;Range</th><th>Unit</th></tr><tr><td>Hematocrit [Volume Fraction] of Blood by Automated count</td><td>42.6</td><td>38 - 50</td><td></td><td>%</td></tr></table></div>"
        },
        "status": "final",
        "subject": {
          "reference": "urn:uuid:2a600959-4ca5-48ee-ab86-fcbfda9aed8e",
          "display": "Alessio Fanucci"
        },
        "effectiveDateTime": "2022-04-18T07:49:06Z",
        "specimen": {
          "reference": "urn:uuid:4a27342f-4fb7-4709-acc1-be78cf277c06"
        }
      }
    },
    {
      "fullUrl": "urn:uuid:85c3bf56-91fe-4531-b228-ddeadda13c6e",
      "resource": {
        "resourceType": "Observation",
        "id": "85c3bf56-91fe-4531-b228-ddeadda13c6e",
        "meta": {
          "profile": [
            "http://hl7.eu/fhir/laboratory/StructureDefinition/Observation-resultslab-eu-lab"
          ]
        },
        "performer": [
          {
            "display": "The Central European Lab"
          }
        ],
        "category": [
          {
            "coding": [
              {
                "system": "http://terminology.hl7.org/CodeSystem/observation-category",
                "code": "laboratory"
              }
            ]
          }
        ],
        "code": {
          "coding": [
            {
              "code": "787-2",
              "system": "http://loinc.org",
              "display": "MCV [Entitic volume] by Automated count"
            }
          ],
          "text": "MCV [Entitic volume] by Automated count"
        },
        "valueQuantity": {
          "system": "http://unitsofmeasure.org",
          "value": 89.5,
          "unit": "fL",
          "code": "fL"
        },
        "referenceRange": [
          {
            "low": {
              "value": 80,
              "code": "fL",
              "system": "http://unitsofmeasure.org"
            }
          },
          {
            "high": {
              "value": 98,
              "code": "fL",
              "system": "http://unitsofmeasure.org"
            }
          }
        ],
        "text": {
          "status": "generated",
          "div": "<div xmlns=\"http://www.w3.org/1999/xhtml\"><table class=\"hl7__eu__lab__report\"><tr><th>Test</th><th>18-Apr-2022</th><th>Reference&#xA0;Range</th><th>Unit</th></tr><tr><td>MCV [Entitic volume] by Automated count</td><td>89.5</td><td>80 - 98</td><td></td><td>fL</td></tr></table></div>"
        },
        "status": "final",
        "subject": {
          "reference": "urn:uuid:2a600959-4ca5-48ee-ab86-fcbfda9aed8e",
          "display": "Alessio Fanucci"
        },
        "effectiveDateTime": "2022-04-18T07:49:06Z",
        "specimen": {
          "reference": "urn:uuid:4a27342f-4fb7-4709-acc1-be78cf277c06"
        }
      }
    },
    {
      "fullUrl": "urn:uuid:b49a07da-bd42-4443-abf4-fd5e47d303c9",
      "resource": {
        "resourceType": "Observation",
        "id": "b49a07da-bd42-4443-abf4-fd5e47d303c9",
        "meta": {
          "profile": [
            "http://hl7.eu/fhir/laboratory/StructureDefinition/Observation-resultslab-eu-lab"
          ]
        },
        "performer": [
          {
            "display": "The Central European Lab"
          }
        ],
        "category": [
          {
            "coding": [
              {
                "system": "http://terminology.hl7.org/CodeSystem/observation-category",
                "code": "laboratory"
              }
            ]
          }
        ],
        "code": {
          "coding": [
            {
              "code": "785-6",
              "system": "http://loinc.org",
              "display": "MCH [Entitic mass] by Automated count"
            }
          ],
          "text": "MCH [Entitic mass] by Automated count"
        },
        "valueQuantity": {
          "system": "http://unitsofmeasure.org",
          "value": 27.4,
          "unit": "pg",
          "code": "pg"
        },
        "referenceRange": [
          {
            "low": {
              "value": 27,
              "code": "pg",
              "system": "http://unitsofmeasure.org"
            }
          },
          {
            "high": {
              "value": 34,
              "code": "pg",
              "system": "http://unitsofmeasure.org"
            }
          }
        ],
        "text": {
          "status": "generated",
          "div": "<div xmlns=\"http://www.w3.org/1999/xhtml\"><table class=\"hl7__eu__lab__report\"><tr><th>Test</th><th>18-Apr-2022</th><th>Reference&#xA0;Range</th><th>Unit</th></tr><tr><td>MCH [Entitic mass] by Automated count</td><td>27.4</td><td>27 - 34</td><td></td><td>pg</td></tr></table></div>"
        },
        "status": "final",
        "subject": {
          "reference": "urn:uuid:2a600959-4ca5-48ee-ab86-fcbfda9aed8e",
          "display": "Alessio Fanucci"
        },
        "effectiveDateTime": "2022-04-18T07:49:06Z",
        "specimen": {
          "reference": "urn:uuid:4a27342f-4fb7-4709-acc1-be78cf277c06"
        }
      }
    },
    {
      "fullUrl": "urn:uuid:bfa8eda1-8d1e-4310-a54b-07ca2f576579",
      "resource": {
        "resourceType": "Observation",
        "id": "bfa8eda1-8d1e-4310-a54b-07ca2f576579",
        "meta": {
          "profile": [
            "http://hl7.eu/fhir/laboratory/StructureDefinition/Observation-resultslab-eu-lab"
          ]
        },
        "performer": [
          {
            "display": "The Central European Lab"
          }
        ],
        "category": [
          {
            "coding": [
              {
                "system": "http://terminology.hl7.org/CodeSystem/observation-category",
                "code": "laboratory"
              }
            ]
          }
        ],
        "code": {
          "coding": [
            {
              "code": "786-4",
              "system": "http://loinc.org",
              "display": "MCHC [Mass/volume] by Automated count"
            }
          ],
          "text": "MCHC [Mass/volume] by Automated count"
        },
        "valueQuantity": {
          "system": "http://unitsofmeasure.org",
          "value": 33.1,
          "unit": "g/dL",
          "code": "g/dL"
        },
        "referenceRange": [
          {
            "low": {
              "value": 31,
              "code": "g/dL",
              "system": "http://unitsofmeasure.org"
            }
          },
          {
            "high": {
              "value": 35,
              "code": "g/dL",
              "system": "http://unitsofmeasure.org"
            }
          }
        ],
        "text": {
          "status": "generated",
          "div": "<div xmlns=\"http://www.w3.org/1999/xhtml\"><table class=\"hl7__eu__lab__report\"><tr><th>Test</th><th>18-Apr-2022</th><th>Reference&#xA0;Range</th><th>Unit</th></tr><tr><td>MCHC [Mass/volume] by Automated count</td><td>33.1</td><td>31 - 35</td><td></td><td>g/dL</td></tr></table></div>"
        },
        "status": "final",
        "subject": {
          "reference": "urn:uuid:2a600959-4ca5-48ee-ab86-fcbfda9aed8e",
          "display": "Alessio Fanucci"
        },
        "effectiveDateTime": "2022-04-18T07:49:06Z",
        "specimen": {
          "reference": "urn:uuid:4a27342f-4fb7-4709-acc1-be78cf277c06"
        }
      }
    },
    {
      "fullUrl": "urn:uuid:2727b6eb-0ea3-4cd9-a03d-90c0e6e0e511",
      "resource": {
        "resourceType": "Observation",
        "id": "2727b6eb-0ea3-4cd9-a03d-90c0e6e0e511",
        "meta": {
          "profile": [
            "http://hl7.eu/fhir/laboratory/StructureDefinition/Observation-resultslab-eu-lab"
          ]
        },
        "performer": [
          {
            "display": "The Central European Lab"
          }
        ],
        "category": [
          {
            "coding": [
              {
                "system": "http://terminology.hl7.org/CodeSystem/observation-category",
                "code": "laboratory"
              }
            ]
          }
        ],
        "code": {
          "coding": [
            {
              "code": "21000-5",
              "system": "http://loinc.org",
              "display": "Erythrocyte distribution width [Entitic volume] by Automated count"
            }
          ],
          "text": "Erythrocyte distribution width [Entitic volume] by Automated count"
        },
        "valueQuantity": {
          "system": "http://unitsofmeasure.org",
          "value": 41.4,
          "unit": "fL",
          "code": "fL"
        },
        "referenceRange": [
          {
            "low": {
              "value": 36,
              "code": "fL",
              "system": "http://unitsofmeasure.org"
            }
          },
          {
            "high": {
              "value": 55,
              "code": "fL",
              "system": "http://unitsofmeasure.org"
            }
          }
        ],
        "text": {
          "status": "generated",
          "div": "<div xmlns=\"http://www.w3.org/1999/xhtml\"><table class=\"hl7__eu__lab__report\"><tr><th>Test</th><th>18-Apr-2022</th><th>Reference&#xA0;Range</th><th>Unit</th></tr><tr><td>Erythrocyte distribution width [Entitic volume] by Automated count</td><td>41.4</td><td>36 - 55</td><td></td><td>fL</td></tr></table></div>"
        },
        "status": "final",
        "subject": {
          "reference": "urn:uuid:2a600959-4ca5-48ee-ab86-fcbfda9aed8e",
          "display": "Alessio Fanucci"
        },
        "effectiveDateTime": "2022-04-18T07:49:06Z",
        "specimen": {
          "reference": "urn:uuid:4a27342f-4fb7-4709-acc1-be78cf277c06"
        }
      }
    },
    {
      "fullUrl": "urn:uuid:d187b5c3-04ab-47a0-99b6-f99ba2c0ee1e",
      "resource": {
        "resourceType": "Observation",
        "id": "d187b5c3-04ab-47a0-99b6-f99ba2c0ee1e",
        "meta": {
          "profile": [
            "http://hl7.eu/fhir/laboratory/StructureDefinition/Observation-resultslab-eu-lab"
          ]
        },
        "performer": [
          {
            "display": "The Central European Lab"
          }
        ],
        "category": [
          {
            "coding": [
              {
                "system": "http://terminology.hl7.org/CodeSystem/observation-category",
                "code": "laboratory"
              }
            ]
          }
        ],
        "code": {
          "coding": [
            {
              "code": "777-3",
              "system": "http://loinc.org",
              "display": "Platelets [#/volume] in Blood by Automated count"
            }
          ],
          "text": "Platelets [#/volume] in Blood by Automated count"
        },
        "valueQuantity": {
          "system": "http://unitsofmeasure.org",
          "value": 229.2,
          "unit": "10*3/uL",
          "code": "10*3/uL"
        },
        "referenceRange": [
          {
            "low": {
              "value": 140,
              "code": "10*3/uL",
              "system": "http://unitsofmeasure.org"
            }
          },
          {
            "high": {
              "value": 363,
              "code": "10*3/uL",
              "system": "http://unitsofmeasure.org"
            }
          }
        ],
        "text": {
          "status": "generated",
          "div": "<div xmlns=\"http://www.w3.org/1999/xhtml\"><table class=\"hl7__eu__lab__report\"><tr><th>Test</th><th>18-Apr-2022</th><th>Reference&#xA0;Range</th><th>Unit</th></tr><tr><td>Platelets [#/volume] in Blood by Automated count</td><td>229.2</td><td>140 - 363</td><td></td><td>10*3/uL</td></tr></table></div>"
        },
        "status": "final",
        "subject": {
          "reference": "urn:uuid:2a600959-4ca5-48ee-ab86-fcbfda9aed8e",
          "display": "Alessio Fanucci"
        },
        "effectiveDateTime": "2022-04-18T07:49:06Z",
        "specimen": {
          "reference": "urn:uuid:4a27342f-4fb7-4709-acc1-be78cf277c06"
        }
      }
    },
    {
      "fullUrl": "urn:uuid:10d004ff-f728-4e3f-a605-f5f6aec26f4b",
      "resource": {
        "resourceType": "Observation",
        "id": "10d004ff-f728-4e3f-a605-f5f6aec26f4b",
        "meta": {
          "profile": [
            "http://hl7.eu/fhir/laboratory/StructureDefinition/Observation-resultslab-eu-lab"
          ]
        },
        "performer": [
          {
            "display": "The Central European Lab"
          }
        ],
        "category": [
          {
            "coding": [
              {
                "system": "http://terminology.hl7.org/CodeSystem/observation-category",
                "code": "laboratory"
              }
            ]
          }
        ],
        "code": {
          "coding": [
            {
              "code": "32207-3",
              "system": "http://loinc.org",
              "display": "Platelet distribution width [Entitic volume] in Blood by Automated count"
            }
          ],
          "text": "Platelet distribution width [Entitic volume] in Blood by Automated count"
        },
        "valueQuantity": {
          "system": "http://unitsofmeasure.org",
          "value": 430.3,
          "unit": "fL",
          "code": "fL"
        },
        "referenceRange": [
          {
            "low": {
              "value": 144,
              "code": "fL",
              "system": "http://unitsofmeasure.org"
            }
          },
          {
            "high": {
              "value": 366,
              "code": "fL",
              "system": "http://unitsofmeasure.org"
            }
          }
        ],
        "interpretation": [
          {
            "coding": [
              {
                "code": "H",
                "system": "http://terminology.hl7.org/CodeSystem/v3-ObservationInterpretation",
                "display": "High"
              }
            ]
          }
        ],
        "text": {
          "status": "generated",
          "div": "<div xmlns=\"http://www.w3.org/1999/xhtml\"><table class=\"hl7__eu__lab__report\"><tr><th>Test</th><th>18-Apr-2022</th><th>Reference&#xA0;Range</th><th>Unit</th></tr><tr><td>Platelet distribution width [Entitic volume] in Blood by Automated count</td><td>430.3</td><td>144 - 366</td><td>H</td><td>fL</td></tr></table></div>"
        },
        "status": "final",
        "subject": {
          "reference": "urn:uuid:2a600959-4ca5-48ee-ab86-fcbfda9aed8e",
          "display": "Alessio Fanucci"
        },
        "effectiveDateTime": "2022-04-18T07:49:06Z",
        "specimen": {
          "reference": "urn:uuid:4a27342f-4fb7-4709-acc1-be78cf277c06"
        }
      }
    },
    {
      "fullUrl": "urn:uuid:fd963da0-0f6a-4cd4-a69c-282d9d840807",
      "resource": {
        "resourceType": "Observation",
        "id": "fd963da0-0f6a-4cd4-a69c-282d9d840807",
        "meta": {
          "profile": [
            "http://hl7.eu/fhir/laboratory/StructureDefinition/Observation-resultslab-eu-lab"
          ]
        },
        "performer": [
          {
            "display": "The Central European Lab"
          }
        ],
        "category": [
          {
            "coding": [
              {
                "system": "http://terminology.hl7.org/CodeSystem/observation-category",
                "code": "laboratory"
              }
            ]
          }
        ],
        "code": {
          "coding": [
            {
              "code": "32623-1",
              "system": "http://loinc.org",
              "display": "Platelet mean volume [Entitic volume] in Blood by Automated count"
            }
          ],
          "text": "Platelet mean volume [Entitic volume] in Blood by Automated count"
        },
        "valueQuantity": {
          "system": "http://unitsofmeasure.org",
          "value": 10.3,
          "unit": "fL",
          "code": "fL"
        },
        "referenceRange": [
          {
            "low": {
              "value": 9.4,
              "code": "fL",
              "system": "http://unitsofmeasure.org"
            }
          },
          {
            "high": {
              "value": 13.5,
              "code": "fL",
              "system": "http://unitsofmeasure.org"
            }
          }
        ],
        "text": {
          "status": "generated",
          "div": "<div xmlns=\"http://www.w3.org/1999/xhtml\"><table class=\"hl7__eu__lab__report\"><tr><th>Test</th><th>18-Apr-2022</th><th>Reference&#xA0;Range</th><th>Unit</th></tr><tr><td>Platelet mean volume [Entitic volume] in Blood by Automated count</td><td>10.3</td><td>9.4 - 13.5</td><td></td><td>fL</td></tr></table></div>"
        },
        "status": "final",
        "subject": {
          "reference": "urn:uuid:2a600959-4ca5-48ee-ab86-fcbfda9aed8e",
          "display": "Alessio Fanucci"
        },
        "effectiveDateTime": "2022-04-18T07:49:06Z",
        "specimen": {
          "reference": "urn:uuid:4a27342f-4fb7-4709-acc1-be78cf277c06"
        }
      }
    },
    {
      "fullUrl": "urn:uuid:ff9a746f-1474-422f-9f37-8d313774dc1c",
      "resource": {
        "resourceType": "Device",
        "id": "ff9a746f-1474-422f-9f37-8d313774dc1c",
        "deviceName": [
          {
            "name": "SYNDERAI Synthetic Generator",
            "type": "manufacturer-name"
          }
        ],
        "version": [
          {
            "value": "5.0"
          }
        ],
        "text": {
          "status": "generated",
          "div": "<div xmlns=\"http://www.w3.org/1999/xhtml\">SYNDERAI Synthetic Generator v5.0</div>"
        },
        "status": "active\"",
        "distinctIdentifier": "synderai-generator-50",
        "manufacturer": "SYNDERAI Project"
      }
    },
    {
      "fullUrl": "urn:uuid:523d6225-3b5f-49f7-9193-d924bef170d9",
      "resource": {
        "resourceType": "Provenance",
        "id": "523d6225-3b5f-49f7-9193-d924bef170d9",
        "target": [
          {
            "reference": "Patient/2a600959-4ca5-48ee-ab86-fcbfda9aed8e"
          },
          {
            "reference": "Bundle/36d32abb-6f9d-4aa9-a1c5-7694c0ea96e4"
          },
          {
            "reference": "Composition/d945e14a-adbf-4966-8474-3634feac40fd"
          },
          {
            "reference": "PractitionerRole/af917edf-1821-4528-b005-6eb996db2564"
          },
          {
            "reference": "Practitioner/0e02d580-5e02-46f5-ad68-227d639f76b0"
          },
          {
            "reference": "PractitionerRole/17b9bd47-0118-4403-933b-247cd68f1b1a"
          },
          {
            "reference": "Organization/312e40a0-54db-45fa-a837-27ccb1674b4f"
          }
        ],
        "activity": {
          "text": "Synthetic Example Data Generation"
        },
        "policy": [
          "https://synderai.net/synderai-synthetic-data-policy"
        ],
        "agent": [
          {
            "type": {
              "text": "author"
            },
            "who": {
              "reference": "Device/ff9a746f-1474-422f-9f37-8d313774dc1c"
            }
          }
        ],
        "reason": [
          {
            "text": "Interoperability Testing and Training (non-clinical use)"
          }
        ],
        "text": {
          "status": "generated",
          "div": "<div xmlns=\"http://www.w3.org/1999/xhtml\">Provenance for SYNDERAI Synthetic Example Data Resource</div>"
        },
        "recorded": "2022-04-18T09:49:06Z"
      }
    },
    {
      "fullUrl": "urn:uuid:af917edf-1821-4528-b005-6eb996db2564",
      "resource": {
        "resourceType": "PractitionerRole",
        "id": "af917edf-1821-4528-b005-6eb996db2564",
        "meta": {
          "profile": [
            "http://hl7.eu/fhir/base/StructureDefinition/practitionerRole-eu"
          ]
        },
        "text": {
          "status": "generated",
          "div": "<div xmlns=\"http://www.w3.org/1999/xhtml\">Laboratory Role Id: af917edf-1821-4528-b005-6eb996db2564</div>"
        },
        "practitioner": {
          "reference": "urn:uuid:0e02d580-5e02-46f5-ad68-227d639f76b0"
        }
      }
    },
    {
      "fullUrl": "urn:uuid:0e02d580-5e02-46f5-ad68-227d639f76b0",
      "resource": {
        "resourceType": "Practitioner",
        "id": "0e02d580-5e02-46f5-ad68-227d639f76b0",
        "meta": {
          "profile": [
            "http://hl7.eu/fhir/base/StructureDefinition/practitioner-eu"
          ]
        },
        "identifier": [
          {
            "assigner": {
              "display": "HL7 Europe"
            },
            "system": "urn:oid:2.16.840.1.113883.2.51.999",
            "value": "f415ce3f-f2de-479a-89ce-be8652a7840c"
          }
        ],
        "name": [
          {
            "prefix": [
              "dr"
            ],
            "given": [
              "Ex"
            ],
            "family": "Ample"
          }
        ],
        "address": [
          {
            "line": [
              "Laboratoire Central Européenne",
              "Boulevard du Jardin Botanique 32"
            ],
            "postalCode": "1000",
            "city": "Brussels",
            "country": "Belgium"
          }
        ],
        "text": {
          "status": "generated",
          "div": "<div xmlns=\"http://www.w3.org/1999/xhtml\">Laboratory: Laboratoire Central Européenne, 1000 Brussels, Belgium</div>"
        }
      }
    }
  ],
  "type": "document",
  "timestamp": "2022-04-18T09:49:06Z"
}
