{
  "resourceType": "Bundle",
  "id": "fc5bc976-8063-4b13-86e8-2380d5ed5a87",
  "meta": {
    "profile": [
      "http://hl7.eu/fhir/laboratory/StructureDefinition/Bundle-eu-lab"
    ]
  },
  "identifier": {
    "assigner": {
      "display": "HL7 Europe"
    },
    "system": "urn:oid:2.16.840.1.113883.2.51.999",
    "value": "be841ef0-b434-4099-a621-87db2e5d0928"
  },
  "entry": [
    {
      "fullUrl": "urn:uuid:cbc40d41-9298-4d38-8a28-7f291c367612",
      "resource": {
        "resourceType": "Composition",
        "id": "cbc40d41-9298-4d38-8a28-7f291c367612",
        "meta": {
          "profile": [
            "http://hl7.eu/fhir/laboratory/StructureDefinition/Composition-eu-lab"
          ]
        },
        "identifier": {
          "assigner": {
            "display": "HL7 Europe"
          },
          "system": "urn:oid:2.16.840.1.113883.2.51.999",
          "value": "2b26a665-8f12-46a1-b8c4-449261cd1e20"
        },
        "author": [
          {
            "reference": "urn:uuid:789023d9-097d-46d5-b819-d380e90e29bc"
          }
        ],
        "category": [
          {
            "coding": [
              {
                "code": "26436-6",
                "system": "http://loinc.org",
                "display": "Laboratory studies (set)"
              }
            ]
          }
        ],
        "type": {
          "coding": [
            {
              "code": "11502-2",
              "system": "http://loinc.org",
              "display": "Laboratory report"
            }
          ],
          "text": "Laboratory Report"
        },
        "section": [
          {
            "code": {
              "coding": [
                {
                  "code": "26436-6",
                  "system": "http://loinc.org",
                  "display": "Laboratory studies (set)"
                }
              ],
              "text": "Laboratory studies"
            },
            "section": [
              {
                "code": {
                  "coding": [
                    {
                      "code": "$18723-7",
                      "system": "http://loinc.org",
                      "display": "Hematology studies (set)"
                    }
                  ],
                  "text": "Hematology"
                },
                "entry": [
                  {
                    "reference": "urn:uuid:709f6765-af07-4683-ba69-fb845e931cbb"
                  },
                  {
                    "reference": "urn:uuid:a2c0babe-23c1-4b14-a12c-a2f48a276f10"
                  },
                  {
                    "reference": "urn:uuid:451d7d2c-7e5c-4bae-8a24-0d1d4ead9faf"
                  },
                  {
                    "reference": "urn:uuid:60c839e2-cb43-4bb9-be91-a5b1168c5868"
                  },
                  {
                    "reference": "urn:uuid:00190e21-4b8b-417b-90e3-b1505122fa5e"
                  },
                  {
                    "reference": "urn:uuid:530854f9-9af8-403c-8975-a8bdf3a31e8f"
                  },
                  {
                    "reference": "urn:uuid:a30afc0c-c5ee-4a10-930f-5d024158acf7"
                  },
                  {
                    "reference": "urn:uuid:ff9e61c9-17e8-40d8-991b-d91f50ba2998"
                  },
                  {
                    "reference": "urn:uuid:a380016f-2160-4e45-b259-140844f8a97c"
                  }
                ],
                "text": {
                  "status": "generated",
                  "div": "<div xmlns=\"http://www.w3.org/1999/xhtml\"><h3>Hematology</h3><table class=\"hl7__eu__lab__report\"><thead><tr><th>Test</th><th>22-MAY-2017</th><th>Reference&#xA0;Range</th><th>Unit</th></tr></thead><tbody><tr><td>Leukocytes [#/volume] in Blood by Automated count</td><td>9.4</td><td>4 - 11</td><td>10*3/uL</td></tr><tr><td>Erythrocytes [#/volume] in Blood by Automated count</td><td>5.4</td><td>3.8 - 5.7</td><td>10*6/uL</td></tr><tr><td>Hemoglobin [Mass/volume] in Blood</td><td><strong>16.7 H</strong></td><td>12 - 16</td><td>g/dL</td></tr><tr><td>Hematocrit [Volume Fraction] of Blood by Automated count</td><td>38.0</td><td>38 - 56</td><td>%</td></tr><tr><td>MCV [Entitic volume] by Automated count</td><td>87.4</td><td>78 - 98</td><td>fL</td></tr><tr><td>MCH [Entitic mass] by Automated count</td><td>28.0</td><td>27 - 34</td><td>pg</td></tr><tr><td>MCHC [Mass/volume] by Automated count</td><td>32.2</td><td>32 - 35</td><td>g/dL</td></tr><tr><td>Erythrocyte distribution width [Ratio] by Automated count</td><td>13.9</td><td>11.6 - 16.5</td><td>%</td></tr><tr><td>Platelets [#/volume] in Blood by Automated count</td><td>238.3</td><td>157 - 415</td><td>10*3/uL</td></tr></tbody></table></div>"
                },
                "title": "Hematology"
              },
              {
                "code": {
                  "coding": [
                    {
                      "code": "$18719-5",
                      "system": "http://loinc.org",
                      "display": "Chemistry studies (set)"
                    }
                  ],
                  "text": "Chemistry"
                },
                "entry": [
                  {
                    "reference": "urn:uuid:12ac6f60-ba83-46bf-a56a-cc215273c9c7"
                  },
                  {
                    "reference": "urn:uuid:1d88f86a-e50c-4f69-b0d1-07102bfd6a41"
                  },
                  {
                    "reference": "urn:uuid:f9d29f40-3e31-42de-a901-27a8034cab6c"
                  },
                  {
                    "reference": "urn:uuid:4a0089c7-55be-4899-8e0a-57b85bad93e0"
                  },
                  {
                    "reference": "urn:uuid:80639214-29bb-4ffd-8bc2-4f2187d92888"
                  },
                  {
                    "reference": "urn:uuid:c9ee1e39-3d03-43d4-916e-68091d51c77f"
                  },
                  {
                    "reference": "urn:uuid:1c4a82d4-327b-47ad-b7ee-3f48864bc5ff"
                  },
                  {
                    "reference": "urn:uuid:af7c65f9-5a8f-4c04-8a59-aa275d9f8a8c"
                  },
                  {
                    "reference": "urn:uuid:f903f33c-c1d0-4057-90d3-507779868ee8"
                  },
                  {
                    "reference": "urn:uuid:806624bd-689d-4bfb-889f-9dd32d742bfa"
                  },
                  {
                    "reference": "urn:uuid:1565ff4b-a165-4bce-8db4-bcc5ca22603a"
                  },
                  {
                    "reference": "urn:uuid:f87b633d-7e9a-4543-a683-fe0b1182148d"
                  },
                  {
                    "reference": "urn:uuid:f3354a6e-182a-4f2f-ba34-db416a8b110d"
                  },
                  {
                    "reference": "urn:uuid:f45490e4-c7a8-424d-91cd-460e3d2fe98d"
                  },
                  {
                    "reference": "urn:uuid:e0ba512b-c5a0-4528-ae5a-1e58535d247c"
                  },
                  {
                    "reference": "urn:uuid:b54b235e-654a-497b-bc64-da6c67beadde"
                  },
                  {
                    "reference": "urn:uuid:ce1277e1-6491-4c2b-b62c-7bfbddd61c18"
                  },
                  {
                    "reference": "urn:uuid:4ffadfd3-89aa-4bf8-9b7f-132aad62b7f9"
                  },
                  {
                    "reference": "urn:uuid:18eee32e-5658-449d-8e76-f97d824df82f"
                  },
                  {
                    "reference": "urn:uuid:0e2be23e-1d67-47b8-93d9-14cdf7145537"
                  },
                  {
                    "reference": "urn:uuid:a21a1e02-624b-4cc7-8ff9-4f65eea23bb9"
                  },
                  {
                    "reference": "urn:uuid:ef4f27cd-305f-4392-95bf-5c5e5d5fbe6d"
                  },
                  {
                    "reference": "urn:uuid:7c454ec0-5987-4882-8c30-6db751d01dce"
                  },
                  {
                    "reference": "urn:uuid:87a83626-c5e9-4d09-ab04-f343b1db3214"
                  },
                  {
                    "reference": "urn:uuid:5ccef291-3245-4066-bf1c-a4d571709d19"
                  }
                ],
                "text": {
                  "status": "generated",
                  "div": "<div xmlns=\"http://www.w3.org/1999/xhtml\"><h3>Chemistry</h3><table class=\"hl7__eu__lab__report\"><thead><tr><th>Test</th><th>22-MAY-2017</th><th>Reference&#xA0;Range</th><th>Unit</th></tr></thead><tbody><tr><td>Glucose [Mass/volume] in Serum or Plasma</td><td>71.5</td><td>70 - 99</td><td>mg/dL</td></tr><tr><td>Urea nitrogen [Mass/volume] in Serum or Plasma</td><td>7.8</td><td>7 - 20</td><td>mg/dL</td></tr><tr><td>Creatinine [Mass/volume] in Serum or Plasma</td><td><strong>2.7 H</strong></td><td>0.6 - 1.3</td><td>mg/dL</td></tr><tr><td>Calcium [Mass/volume] in Serum or Plasma</td><td>9.7</td><td>8.5 - 10.4</td><td>mg/dL</td></tr><tr><td>Sodium [Moles/volume] in Serum or Plasma</td><td>136.6</td><td>135 - 145</td><td>mmol/L</td></tr><tr><td>Potassium [Moles/volume] in Serum or Plasma</td><td>4.3</td><td>3.5 - 5.1</td><td>mmol/L</td></tr><tr><td>Chloride [Moles/volume] in Serum or Plasma</td><td>105.0</td><td>98 - 108</td><td>mmol/L</td></tr><tr><td>Carbon dioxide, total [Moles/volume] in Serum or Plasma</td><td>23.3</td><td>22 - 32</td><td>mmol/L</td></tr><tr><td>Protein [Mass/volume] in Serum or Plasma</td><td><strong>8.5 H</strong></td><td>6 - 8.3</td><td>g/dL</td></tr><tr><td>Albumin [Mass/volume] in Serum or Plasma</td><td>4.1</td><td>3.5 - 5</td><td>g/dL</td></tr><tr><td>Bilirubin.total [Mass/volume] in Serum or Plasma</td><td><strong>14.9 H</strong></td><td>0.3 - 1.2</td><td>mg/dL</td></tr><tr><td>Alkaline phosphatase [Enzymatic activity/volume] in Serum or Plasma</td><td>54.9</td><td>32 - 150</td><td>U/L</td></tr><tr><td>Alanine aminotransferase [Enzymatic activity/volume] in Serum or Plasma</td><td>18.0</td><td>13 - 32</td><td>U/L</td></tr><tr><td>Aspartate aminotransferase [Enzymatic activity/volume] in Serum or Plasma</td><td>28.7</td><td>10 - 40</td><td>U/L</td></tr><tr><td>Magnesium [Mass/volume] in Serum or Plasma</td><td>2.2</td><td>1.7 - 2.6</td><td>mg/dL</td></tr><tr><td>Phosphate [Mass/volume] in Serum or Plasma</td><td>3.3</td><td>2.5 - 4.5</td><td>mg/dL</td></tr><tr><td>pH of Arterial blood</td><td><strong>7.2 L</strong></td><td>7.35 - 7.45</td><td>[pH]</td></tr><tr><td>Carbon dioxide [Partial pressure] in Arterial blood</td><td>39.2</td><td>38 - 48</td><td>mm[Hg]</td></tr><tr><td>Oxygen [Partial pressure] in Arterial blood</td><td>80.9</td><td>75 - 100</td><td>mm[Hg]</td></tr><tr><td>Bicarbonate [Moles/volume] in Arterial blood</td><td>23.7</td><td>22 - 31</td><td>mmol/L</td></tr><tr><td>Oxygen saturation in Arterial blood</td><td><strong>94.0 L</strong></td><td>95 - 100</td><td>%</td></tr><tr><td>Cholesterol [Mass/volume] in Serum or Plasma</td><td><strong>299.5 H</strong></td><td>130 - 200</td><td>mg/dL</td></tr><tr><td>Triglyceride [Mass/volume] in Serum or Plasma</td><td>140.8</td><td>0 - 199</td><td>mg/dL</td></tr><tr><td>Cholesterol in LDL [Mass/volume] in Serum or Plasma by Direct assay</td><td><strong>210.5 H</strong></td><td>0 - 130</td><td>mg/dL</td></tr><tr><td>Cholesterol in HDL [Mass/volume] in Serum or Plasma</td><td>60.9</td><td>50 - 100</td><td>mg/dL</td></tr></tbody></table></div>"
                },
                "title": "Chemistry"
              },
              {
                "code": {
                  "coding": [
                    {
                      "code": "$18720-3",
                      "system": "http://loinc.org",
                      "display": "Coagulation studies (set)"
                    }
                  ],
                  "text": "Coagulation"
                },
                "entry": [
                  {
                    "reference": "urn:uuid:7c9aada5-cf0f-4756-a8ae-4d4f8c369777"
                  },
                  {
                    "reference": "urn:uuid:194734f4-be07-4aa9-9e7e-5b146f3a7c55"
                  },
                  {
                    "reference": "urn:uuid:ded80d7c-4812-448b-a308-f8985bccb8b2"
                  }
                ],
                "text": {
                  "status": "generated",
                  "div": "<div xmlns=\"http://www.w3.org/1999/xhtml\"><h3>Coagulation</h3><table class=\"hl7__eu__lab__report\"><thead><tr><th>Test</th><th>22-MAY-2017</th><th>Reference&#xA0;Range</th><th>Unit</th></tr></thead><tbody><tr><td>Prothrombin time (PT)</td><td><strong>10.2 L</strong></td><td>11 - 15</td><td>s</td></tr><tr><td>INR in Platelet poor plasma by Coagulation assay</td><td>0.9</td><td>0.9 - 1.1</td><td>{INR}</td></tr><tr><td>aPTT in Blood by Coagulation assay</td><td>26.8</td><td>25 - 35</td><td>s</td></tr></tbody></table></div>"
                },
                "title": "Coagulation"
              }
            ],
            "title": "Laboratory Report"
          },
          {
            "text": {
              "status": "generated",
              "div": "<div xmlns=\"http://www.w3.org/1999/xhtml\"><h3>Annotation</h3><table class=\"hl7__eu__lab__report\"><tr><th>Conclusion and Recommendations based on this report and previous findings known to us</th></tr><tr><td>The patient shows elevated hemoglobin, creatinine, total protein, total and LDL cholesterol, and markedly increased total bilirubin, with low arterial pH and oxygen saturation. These findings suggest possible renal dysfunction, hyperbilirubinemia (likely hepatic or post-hepatic origin), and dyslipidemia. The low pH indicates acidosis, and mild hypoxemia is present. Further clinical correlation and evaluation of liver and kidney function are recommended.</td></tr></table></div>"
            },
            "code": {
              "coding": [
                {
                  "system": "http://loinc.org",
                  "code": "48767-8",
                  "display": "Annotation comment"
                }
              ]
            },
            "title": "Annotation comment"
          }
        ],
        "status": "final",
        "subject": {
          "reference": "urn:uuid:03525be1-5922-441d-83ef-9dee3f92bf4c",
          "display": "Aniela Prażmo"
        },
        "date": "2017-05-22T20:02:04Z",
        "title": "Laboratory Report",
        "confidentiality": "N"
      }
    },
    {
      "fullUrl": "urn:uuid:d20ad4e6-b457-4cd6-afc4-ad7e0ac9d675",
      "resource": {
        "resourceType": "DiagnosticReport",
        "id": "d20ad4e6-b457-4cd6-afc4-ad7e0ac9d675",
        "meta": {
          "profile": [
            "http://hl7.eu/fhir/laboratory/StructureDefinition/DiagnosticReport-eu-lab"
          ]
        },
        "identifier": [
          {
            "assigner": {
              "display": "HL7 Europe"
            },
            "system": "urn:oid:2.16.840.1.113883.2.51.999",
            "value": "b55ecd49-056f-419c-ab23-952a3aa072b6"
          }
        ],
        "extension": [
          {
            "url": "http://hl7.org/fhir/5.0/StructureDefinition/extension-DiagnosticReport.composition",
            "valueReference": {
              "reference": "urn:uuid:2b26a665-8f12-46a1-b8c4-449261cd1e20"
            }
          }
        ],
        "category": [
          {
            "coding": [
              {
                "code": "26436-6",
                "system": "http://loinc.org",
                "display": "Laboratory studies (set)"
              }
            ]
          }
        ],
        "specimen": [
          {
            "reference": "urn:uuid:ac80d653-b4e4-4545-9003-35cc3d05301a"
          },
          {
            "reference": "urn:uuid:ac80d653-b4e4-4545-9003-35cc3d05301a"
          },
          {
            "reference": "urn:uuid:5a7aa436-0325-4417-8b1a-1a107c44ab28"
          },
          {
            "reference": "urn:uuid:3bd3f78f-90fa-4765-97bd-7f7d706a7d81"
          },
          {
            "reference": "urn:uuid:f3fba8e3-816d-49b4-a5d1-bb56ccf26308"
          }
        ],
        "result": [
          {
            "reference": "urn:uuid:709f6765-af07-4683-ba69-fb845e931cbb"
          },
          {
            "reference": "urn:uuid:a2c0babe-23c1-4b14-a12c-a2f48a276f10"
          },
          {
            "reference": "urn:uuid:451d7d2c-7e5c-4bae-8a24-0d1d4ead9faf"
          },
          {
            "reference": "urn:uuid:60c839e2-cb43-4bb9-be91-a5b1168c5868"
          },
          {
            "reference": "urn:uuid:00190e21-4b8b-417b-90e3-b1505122fa5e"
          },
          {
            "reference": "urn:uuid:530854f9-9af8-403c-8975-a8bdf3a31e8f"
          },
          {
            "reference": "urn:uuid:a30afc0c-c5ee-4a10-930f-5d024158acf7"
          },
          {
            "reference": "urn:uuid:ff9e61c9-17e8-40d8-991b-d91f50ba2998"
          },
          {
            "reference": "urn:uuid:a380016f-2160-4e45-b259-140844f8a97c"
          },
          {
            "reference": "urn:uuid:12ac6f60-ba83-46bf-a56a-cc215273c9c7"
          },
          {
            "reference": "urn:uuid:1d88f86a-e50c-4f69-b0d1-07102bfd6a41"
          },
          {
            "reference": "urn:uuid:f9d29f40-3e31-42de-a901-27a8034cab6c"
          },
          {
            "reference": "urn:uuid:4a0089c7-55be-4899-8e0a-57b85bad93e0"
          },
          {
            "reference": "urn:uuid:80639214-29bb-4ffd-8bc2-4f2187d92888"
          },
          {
            "reference": "urn:uuid:c9ee1e39-3d03-43d4-916e-68091d51c77f"
          },
          {
            "reference": "urn:uuid:1c4a82d4-327b-47ad-b7ee-3f48864bc5ff"
          },
          {
            "reference": "urn:uuid:af7c65f9-5a8f-4c04-8a59-aa275d9f8a8c"
          },
          {
            "reference": "urn:uuid:f903f33c-c1d0-4057-90d3-507779868ee8"
          },
          {
            "reference": "urn:uuid:806624bd-689d-4bfb-889f-9dd32d742bfa"
          },
          {
            "reference": "urn:uuid:1565ff4b-a165-4bce-8db4-bcc5ca22603a"
          },
          {
            "reference": "urn:uuid:f87b633d-7e9a-4543-a683-fe0b1182148d"
          },
          {
            "reference": "urn:uuid:f3354a6e-182a-4f2f-ba34-db416a8b110d"
          },
          {
            "reference": "urn:uuid:f45490e4-c7a8-424d-91cd-460e3d2fe98d"
          },
          {
            "reference": "urn:uuid:e0ba512b-c5a0-4528-ae5a-1e58535d247c"
          },
          {
            "reference": "urn:uuid:b54b235e-654a-497b-bc64-da6c67beadde"
          },
          {
            "reference": "urn:uuid:7c9aada5-cf0f-4756-a8ae-4d4f8c369777"
          },
          {
            "reference": "urn:uuid:194734f4-be07-4aa9-9e7e-5b146f3a7c55"
          },
          {
            "reference": "urn:uuid:ded80d7c-4812-448b-a308-f8985bccb8b2"
          },
          {
            "reference": "urn:uuid:ce1277e1-6491-4c2b-b62c-7bfbddd61c18"
          },
          {
            "reference": "urn:uuid:4ffadfd3-89aa-4bf8-9b7f-132aad62b7f9"
          },
          {
            "reference": "urn:uuid:18eee32e-5658-449d-8e76-f97d824df82f"
          },
          {
            "reference": "urn:uuid:0e2be23e-1d67-47b8-93d9-14cdf7145537"
          },
          {
            "reference": "urn:uuid:a21a1e02-624b-4cc7-8ff9-4f65eea23bb9"
          },
          {
            "reference": "urn:uuid:ef4f27cd-305f-4392-95bf-5c5e5d5fbe6d"
          },
          {
            "reference": "urn:uuid:7c454ec0-5987-4882-8c30-6db751d01dce"
          },
          {
            "reference": "urn:uuid:87a83626-c5e9-4d09-ab04-f343b1db3214"
          },
          {
            "reference": "urn:uuid:5ccef291-3245-4066-bf1c-a4d571709d19"
          }
        ],
        "status": "registered",
        "code": {
          "coding": [
            {
              "code": "11502-2",
              "system": "http://loinc.org",
              "display": "Laboratory report"
            }
          ]
        },
        "subject": {
          "reference": "urn:uuid:03525be1-5922-441d-83ef-9dee3f92bf4c",
          "display": "Aniela Prażmo"
        }
      }
    },
    {
      "fullUrl": "urn:uuid:03525be1-5922-441d-83ef-9dee3f92bf4c",
      "resource": {
        "resourceType": "Patient",
        "id": "03525be1-5922-441d-83ef-9dee3f92bf4c",
        "meta": {
          "security": [
            {
              "system": "http://terminology.hl7.org/CodeSystem/v3-ActReason",
              "code": "HTEST"
            },
            {
              "system": "http://terminology.hl7.org/CodeSystem/v3-ActReason",
              "code": "TRAIN"
            }
          ],
          "tag": [
            {
              "system": "https://synderai.net/fhir/CodeSystem/tags",
              "code": "synthetic",
              "display": "SYNDERAI Synthetic data"
            }
          ],
          "profile": [
            "http://hl7.eu/fhir/base/StructureDefinition/patient-eu-core"
          ]
        },
        "identifier": [
          {
            "type": {
              "coding": [
                {
                  "code": "PT",
                  "system": "http://terminology.hl7.org/CodeSystem/v2-0203"
                }
              ]
            },
            "system": "http://ec.europa.eu/identifier/eci",
            "value": "9657-869171-7"
          },
          {
            "type": {
              "coding": [
                {
                  "code": "MR",
                  "system": "http://terminology.hl7.org/CodeSystem/v2-0203"
                }
              ]
            },
            "system": "http://local.setting.eu/identifier",
            "value": "ab00158c-e2d0-01e4-6cf5-730949937551"
          }
        ],
        "name": [
          {
            "family": "Prażmo"
          },
          {
            "given": [
              "Aniela"
            ]
          },
          {
            "text": "Aniela Prażmo"
          }
        ],
        "address": [
          {
            "line": [
              "pl. Kołłątaja 62/43"
            ],
            "use": "home",
            "type": "physical",
            "postalCode": "97-200",
            "city": "Tomaszów Mazowiecki",
            "country": "Poland"
          }
        ],
        "telecom": [
          {
            "system": "phone",
            "value": "+48 782 809 233"
          }
        ],
        "extension": [
          {
            "url": "http://hl7.org/fhir/StructureDefinition/patient-nationality",
            "valueCodeableConcept": {
              "coding": [
                {
                  "code": "PL",
                  "system": "http://hl7.org/fhir/ValueSet/country"
                }
              ]
            }
          }
        ],
        "text": {
          "status": "generated",
          "div": "<div xmlns=\"http://www.w3.org/1999/xhtml\"><table class=\"hl7__ips\"><tr><td>Aniela Prażmo</td><td>female</td><td>08-Feb-1941</td></tr></table></div>"
        },
        "gender": "female",
        "birthDate": "1941-02-08"
      }
    },
    {
      "fullUrl": "urn:uuid:5cb38139-577c-4884-8c35-45aeb0ba33b2",
      "resource": {
        "resourceType": "ServiceRequest",
        "id": "5cb38139-577c-4884-8c35-45aeb0ba33b2",
        "meta": {
          "profile": [
            "http://hl7.eu/fhir/laboratory/StructureDefinition/ServiceRequest-eu-lab"
          ]
        },
        "identifier": [
          {
            "system": "http://example.org",
            "value": "10c00297-08e3-4184-9385-4feee693a265"
          }
        ],
        "specimen": [
          {
            "reference": "urn:uuid:ac80d653-b4e4-4545-9003-35cc3d05301a"
          },
          {
            "reference": "urn:uuid:5a7aa436-0325-4417-8b1a-1a107c44ab28"
          },
          {
            "reference": "urn:uuid:3bd3f78f-90fa-4765-97bd-7f7d706a7d81"
          },
          {
            "reference": "urn:uuid:f3fba8e3-816d-49b4-a5d1-bb56ccf26308"
          }
        ],
        "reasonCode": [
          {
            "coding": [
              {
                "code": "64859006",
                "system": "http://snomed.info/sct",
                "display": "Osteoporosis"
              }
            ]
          },
          {
            "coding": [
              {
                "code": "55822004",
                "system": "http://snomed.info/sct",
                "display": "Hyperlipidemia"
              }
            ]
          },
          {
            "coding": [
              {
                "code": "414545008",
                "system": "http://snomed.info/sct",
                "display": "Ischemic heart disease"
              }
            ]
          },
          {
            "coding": [
              {
                "code": "59621000",
                "system": "http://snomed.info/sct",
                "display": "Essential hypertension"
              }
            ]
          },
          {
            "coding": [
              {
                "code": "40055000",
                "system": "http://snomed.info/sct",
                "display": "Chronic sinusitis"
              }
            ]
          }
        ],
        "status": "active",
        "intent": "order",
        "code": {
          "coding": [
            {
              "code": "108252007",
              "system": "http://snomed.info/sct",
              "display": "Laboratory procedure"
            }
          ]
        },
        "subject": {
          "reference": "urn:uuid:03525be1-5922-441d-83ef-9dee3f92bf4c",
          "display": "Aniela Prażmo"
        },
        "requester": {
          "reference": "urn:uuid:dcfdefe5-12f2-4a4d-a220-0f31dd67541e"
        }
      }
    },
    {
      "fullUrl": "urn:uuid:dcfdefe5-12f2-4a4d-a220-0f31dd67541e",
      "resource": {
        "resourceType": "PractitionerRole",
        "id": "dcfdefe5-12f2-4a4d-a220-0f31dd67541e",
        "meta": {
          "profile": [
            "http://hl7.eu/fhir/base/StructureDefinition/practitionerRole-eu"
          ]
        },
        "text": {
          "status": "generated",
          "div": "<div xmlns=\"http://www.w3.org/1999/xhtml\">Provider Role Id: dcfdefe5-12f2-4a4d-a220-0f31dd67541e</div>"
        },
        "organization": {
          "reference": "urn:uuid:9ba75a69-d981-4cbe-88d5-96711666cf10"
        }
      }
    },
    {
      "fullUrl": "urn:uuid:9ba75a69-d981-4cbe-88d5-96711666cf10",
      "resource": {
        "resourceType": "Organization",
        "id": "9ba75a69-d981-4cbe-88d5-96711666cf10",
        "meta": {
          "profile": [
            "http://hl7.eu/fhir/base/StructureDefinition/organization-eu"
          ]
        },
        "identifier": [
          {
            "assigner": {
              "display": "HL7 Europe"
            },
            "system": "urn:oid:2.16.840.1.113883.2.51.999",
            "value": "13cc0765-648d-4a87-bd1a-b0b3ca9fc61a"
          }
        ],
        "address": [
          {
            "city": "Tomaszów Mazowiecki",
            "postalCode": "97-200",
            "country": "Poland"
          }
        ],
        "text": {
          "status": "generated",
          "div": "<div xmlns=\"http://www.w3.org/1999/xhtml\">Provider Organization: Poradnia rehabilitacyjna</div>"
        },
        "name": "Poradnia rehabilitacyjna"
      }
    },
    {
      "fullUrl": "urn:uuid:ac80d653-b4e4-4545-9003-35cc3d05301a",
      "resource": {
        "resourceType": "Specimen",
        "id": "ac80d653-b4e4-4545-9003-35cc3d05301a",
        "meta": {
          "profile": [
            "http://hl7.eu/fhir/laboratory/StructureDefinition/Specimen-eu-lab"
          ]
        },
        "collection": {
          "collectedDateTime": "2017-05-22"
        },
        "text": {
          "status": "generated",
          "div": "<div xmlns=\"http://www.w3.org/1999/xhtml\"><table class=\"hl7__eu__lab__report\"><tr><th>Specimen</th><th>Collection Date</th></tr><tr><td>Whole blood specimen (specimen)</td><td><span class=\"nb\">22-May-2017</span></td></tr></table></div>"
        },
        "type": {
          "coding": [
            {
              "code": "258580003",
              "system": "http://snomed.info/sct",
              "display": "Whole blood specimen (specimen)"
            }
          ]
        }
      }
    },
    {
      "fullUrl": "urn:uuid:ac80d653-b4e4-4545-9003-35cc3d05301a",
      "resource": {
        "resourceType": "Specimen",
        "id": "ac80d653-b4e4-4545-9003-35cc3d05301a",
        "meta": {
          "profile": [
            "http://hl7.eu/fhir/laboratory/StructureDefinition/Specimen-eu-lab"
          ]
        },
        "collection": {
          "collectedDateTime": "2017-05-22"
        },
        "text": {
          "status": "generated",
          "div": "<div xmlns=\"http://www.w3.org/1999/xhtml\"><table class=\"hl7__eu__lab__report\"><tr><th>Specimen</th><th>Collection Date</th></tr><tr><td>Whole blood specimen (specimen)</td><td><span class=\"nb\">22-May-2017</span></td></tr></table></div>"
        },
        "type": {
          "coding": [
            {
              "code": "258580003",
              "system": "http://snomed.info/sct",
              "display": "Whole blood specimen (specimen)"
            }
          ]
        }
      }
    },
    {
      "fullUrl": "urn:uuid:5a7aa436-0325-4417-8b1a-1a107c44ab28",
      "resource": {
        "resourceType": "Specimen",
        "id": "5a7aa436-0325-4417-8b1a-1a107c44ab28",
        "meta": {
          "profile": [
            "http://hl7.eu/fhir/laboratory/StructureDefinition/Specimen-eu-lab"
          ]
        },
        "collection": {
          "collectedDateTime": "2017-05-22"
        },
        "text": {
          "status": "generated",
          "div": "<div xmlns=\"http://www.w3.org/1999/xhtml\"><table class=\"hl7__eu__lab__report\"><tr><th>Specimen</th><th>Collection Date</th></tr><tr><td>Acellular blood (serum or plasma) specimen</td><td><span class=\"nb\">22-May-2017</span></td></tr></table></div>"
        },
        "type": {
          "coding": [
            {
              "code": "122592007",
              "system": "http://snomed.info/sct",
              "display": "Acellular blood (serum or plasma) specimen"
            }
          ]
        }
      }
    },
    {
      "fullUrl": "urn:uuid:3bd3f78f-90fa-4765-97bd-7f7d706a7d81",
      "resource": {
        "resourceType": "Specimen",
        "id": "3bd3f78f-90fa-4765-97bd-7f7d706a7d81",
        "meta": {
          "profile": [
            "http://hl7.eu/fhir/laboratory/StructureDefinition/Specimen-eu-lab"
          ]
        },
        "collection": {
          "collectedDateTime": "2017-05-22"
        },
        "text": {
          "status": "generated",
          "div": "<div xmlns=\"http://www.w3.org/1999/xhtml\"><table class=\"hl7__eu__lab__report\"><tr><th>Specimen</th><th>Collection Date</th></tr><tr><td>Platelet poor plasma specimen</td><td><span class=\"nb\">22-May-2017</span></td></tr></table></div>"
        },
        "type": {
          "coding": [
            {
              "code": "119362004",
              "system": "http://snomed.info/sct",
              "display": "Platelet poor plasma specimen"
            }
          ]
        }
      }
    },
    {
      "fullUrl": "urn:uuid:f3fba8e3-816d-49b4-a5d1-bb56ccf26308",
      "resource": {
        "resourceType": "Specimen",
        "id": "f3fba8e3-816d-49b4-a5d1-bb56ccf26308",
        "meta": {
          "profile": [
            "http://hl7.eu/fhir/laboratory/StructureDefinition/Specimen-eu-lab"
          ]
        },
        "collection": {
          "collectedDateTime": "2017-05-22"
        },
        "text": {
          "status": "generated",
          "div": "<div xmlns=\"http://www.w3.org/1999/xhtml\"><table class=\"hl7__eu__lab__report\"><tr><th>Specimen</th><th>Collection Date</th></tr><tr><td>Arterial blood specimen</td><td><span class=\"nb\">22-May-2017</span></td></tr></table></div>"
        },
        "type": {
          "coding": [
            {
              "code": "122552005",
              "system": "http://snomed.info/sct",
              "display": "Arterial blood specimen"
            }
          ]
        }
      }
    },
    {
      "fullUrl": "urn:uuid:709f6765-af07-4683-ba69-fb845e931cbb",
      "resource": {
        "resourceType": "Observation",
        "id": "709f6765-af07-4683-ba69-fb845e931cbb",
        "meta": {
          "profile": [
            "http://hl7.eu/fhir/laboratory/StructureDefinition/Observation-resultslab-eu-lab"
          ]
        },
        "performer": [
          {
            "display": "The Central European Lab"
          }
        ],
        "category": [
          {
            "coding": [
              {
                "system": "http://terminology.hl7.org/CodeSystem/observation-category",
                "code": "laboratory"
              }
            ]
          }
        ],
        "code": {
          "coding": [
            {
              "code": "6690-2",
              "system": "http://loinc.org",
              "display": "Leukocytes [#/volume] in Blood by Automated count"
            }
          ],
          "text": "Leukocytes [#/volume] in Blood by Automated count"
        },
        "valueQuantity": {
          "system": "http://unitsofmeasure.org",
          "value": 9.4,
          "unit": "10*3/uL",
          "code": "10*3/uL"
        },
        "referenceRange": [
          {
            "low": {
              "value": 4,
              "code": "10*3/uL",
              "system": "http://unitsofmeasure.org"
            }
          },
          {
            "high": {
              "value": 11,
              "code": "10*3/uL",
              "system": "http://unitsofmeasure.org"
            }
          }
        ],
        "text": {
          "status": "generated",
          "div": "<div xmlns=\"http://www.w3.org/1999/xhtml\"><table class=\"hl7__eu__lab__report\"><tr><th>Test</th><th>22-May-2017</th><th>Reference&#xA0;Range</th><th>Unit</th></tr><tr><td>Leukocytes [#/volume] in Blood by Automated count</td><td>9.4</td><td>4 - 11</td><td></td><td>10*3/uL</td></tr></table></div>"
        },
        "status": "final",
        "subject": {
          "reference": "urn:uuid:03525be1-5922-441d-83ef-9dee3f92bf4c",
          "display": "Aniela Prażmo"
        },
        "effectiveDateTime": "2017-05-22T18:02:04Z",
        "specimen": {
          "reference": "urn:uuid:ac80d653-b4e4-4545-9003-35cc3d05301a"
        }
      }
    },
    {
      "fullUrl": "urn:uuid:a2c0babe-23c1-4b14-a12c-a2f48a276f10",
      "resource": {
        "resourceType": "Observation",
        "id": "a2c0babe-23c1-4b14-a12c-a2f48a276f10",
        "meta": {
          "profile": [
            "http://hl7.eu/fhir/laboratory/StructureDefinition/Observation-resultslab-eu-lab"
          ]
        },
        "performer": [
          {
            "display": "The Central European Lab"
          }
        ],
        "category": [
          {
            "coding": [
              {
                "system": "http://terminology.hl7.org/CodeSystem/observation-category",
                "code": "laboratory"
              }
            ]
          }
        ],
        "code": {
          "coding": [
            {
              "code": "789-8",
              "system": "http://loinc.org",
              "display": "Erythrocytes [#/volume] in Blood by Automated count"
            }
          ],
          "text": "Erythrocytes [#/volume] in Blood by Automated count"
        },
        "valueQuantity": {
          "system": "http://unitsofmeasure.org",
          "value": 5.4,
          "unit": "10*6/uL",
          "code": "10*6/uL"
        },
        "referenceRange": [
          {
            "low": {
              "value": 3.8,
              "code": "10*6/uL",
              "system": "http://unitsofmeasure.org"
            }
          },
          {
            "high": {
              "value": 5.7,
              "code": "10*6/uL",
              "system": "http://unitsofmeasure.org"
            }
          }
        ],
        "text": {
          "status": "generated",
          "div": "<div xmlns=\"http://www.w3.org/1999/xhtml\"><table class=\"hl7__eu__lab__report\"><tr><th>Test</th><th>22-May-2017</th><th>Reference&#xA0;Range</th><th>Unit</th></tr><tr><td>Erythrocytes [#/volume] in Blood by Automated count</td><td>5.4</td><td>3.8 - 5.7</td><td></td><td>10*6/uL</td></tr></table></div>"
        },
        "status": "final",
        "subject": {
          "reference": "urn:uuid:03525be1-5922-441d-83ef-9dee3f92bf4c",
          "display": "Aniela Prażmo"
        },
        "effectiveDateTime": "2017-05-22T18:02:04Z",
        "specimen": {
          "reference": "urn:uuid:ac80d653-b4e4-4545-9003-35cc3d05301a"
        }
      }
    },
    {
      "fullUrl": "urn:uuid:451d7d2c-7e5c-4bae-8a24-0d1d4ead9faf",
      "resource": {
        "resourceType": "Observation",
        "id": "451d7d2c-7e5c-4bae-8a24-0d1d4ead9faf",
        "meta": {
          "profile": [
            "http://hl7.eu/fhir/laboratory/StructureDefinition/Observation-resultslab-eu-lab"
          ]
        },
        "performer": [
          {
            "display": "The Central European Lab"
          }
        ],
        "category": [
          {
            "coding": [
              {
                "system": "http://terminology.hl7.org/CodeSystem/observation-category",
                "code": "laboratory"
              }
            ]
          }
        ],
        "code": {
          "coding": [
            {
              "code": "718-7",
              "system": "http://loinc.org",
              "display": "Hemoglobin [Mass/volume] in Blood"
            }
          ],
          "text": "Hemoglobin [Mass/volume] in Blood"
        },
        "valueQuantity": {
          "system": "http://unitsofmeasure.org",
          "value": 16.7,
          "unit": "g/dL",
          "code": "g/dL"
        },
        "referenceRange": [
          {
            "low": {
              "value": 12,
              "code": "g/dL",
              "system": "http://unitsofmeasure.org"
            }
          },
          {
            "high": {
              "value": 16,
              "code": "g/dL",
              "system": "http://unitsofmeasure.org"
            }
          }
        ],
        "interpretation": [
          {
            "coding": [
              {
                "code": "H",
                "system": "http://terminology.hl7.org/CodeSystem/v3-ObservationInterpretation",
                "display": "High"
              }
            ]
          }
        ],
        "text": {
          "status": "generated",
          "div": "<div xmlns=\"http://www.w3.org/1999/xhtml\"><table class=\"hl7__eu__lab__report\"><tr><th>Test</th><th>22-May-2017</th><th>Reference&#xA0;Range</th><th>Unit</th></tr><tr><td>Hemoglobin [Mass/volume] in Blood</td><td>16.7</td><td>12 - 16</td><td>H</td><td>g/dL</td></tr></table></div>"
        },
        "status": "final",
        "subject": {
          "reference": "urn:uuid:03525be1-5922-441d-83ef-9dee3f92bf4c",
          "display": "Aniela Prażmo"
        },
        "effectiveDateTime": "2017-05-22T18:02:04Z",
        "specimen": {
          "reference": "urn:uuid:ac80d653-b4e4-4545-9003-35cc3d05301a"
        }
      }
    },
    {
      "fullUrl": "urn:uuid:60c839e2-cb43-4bb9-be91-a5b1168c5868",
      "resource": {
        "resourceType": "Observation",
        "id": "60c839e2-cb43-4bb9-be91-a5b1168c5868",
        "meta": {
          "profile": [
            "http://hl7.eu/fhir/laboratory/StructureDefinition/Observation-resultslab-eu-lab"
          ]
        },
        "performer": [
          {
            "display": "The Central European Lab"
          }
        ],
        "category": [
          {
            "coding": [
              {
                "system": "http://terminology.hl7.org/CodeSystem/observation-category",
                "code": "laboratory"
              }
            ]
          }
        ],
        "code": {
          "coding": [
            {
              "code": "4544-3",
              "system": "http://loinc.org",
              "display": "Hematocrit [Volume Fraction] of Blood by Automated count"
            }
          ],
          "text": "Hematocrit [Volume Fraction] of Blood by Automated count"
        },
        "valueQuantity": {
          "system": "http://unitsofmeasure.org",
          "value": 38,
          "unit": "%",
          "code": "%"
        },
        "referenceRange": [
          {
            "low": {
              "value": 38,
              "code": "%",
              "system": "http://unitsofmeasure.org"
            }
          },
          {
            "high": {
              "value": 56,
              "code": "%",
              "system": "http://unitsofmeasure.org"
            }
          }
        ],
        "text": {
          "status": "generated",
          "div": "<div xmlns=\"http://www.w3.org/1999/xhtml\"><table class=\"hl7__eu__lab__report\"><tr><th>Test</th><th>22-May-2017</th><th>Reference&#xA0;Range</th><th>Unit</th></tr><tr><td>Hematocrit [Volume Fraction] of Blood by Automated count</td><td>38.0</td><td>38 - 56</td><td></td><td>%</td></tr></table></div>"
        },
        "status": "final",
        "subject": {
          "reference": "urn:uuid:03525be1-5922-441d-83ef-9dee3f92bf4c",
          "display": "Aniela Prażmo"
        },
        "effectiveDateTime": "2017-05-22T18:02:04Z",
        "specimen": {
          "reference": "urn:uuid:ac80d653-b4e4-4545-9003-35cc3d05301a"
        }
      }
    },
    {
      "fullUrl": "urn:uuid:00190e21-4b8b-417b-90e3-b1505122fa5e",
      "resource": {
        "resourceType": "Observation",
        "id": "00190e21-4b8b-417b-90e3-b1505122fa5e",
        "meta": {
          "profile": [
            "http://hl7.eu/fhir/laboratory/StructureDefinition/Observation-resultslab-eu-lab"
          ]
        },
        "performer": [
          {
            "display": "The Central European Lab"
          }
        ],
        "category": [
          {
            "coding": [
              {
                "system": "http://terminology.hl7.org/CodeSystem/observation-category",
                "code": "laboratory"
              }
            ]
          }
        ],
        "code": {
          "coding": [
            {
              "code": "787-2",
              "system": "http://loinc.org",
              "display": "MCV [Entitic volume] by Automated count"
            }
          ],
          "text": "MCV [Entitic volume] by Automated count"
        },
        "valueQuantity": {
          "system": "http://unitsofmeasure.org",
          "value": 87.4,
          "unit": "fL",
          "code": "fL"
        },
        "referenceRange": [
          {
            "low": {
              "value": 78,
              "code": "fL",
              "system": "http://unitsofmeasure.org"
            }
          },
          {
            "high": {
              "value": 98,
              "code": "fL",
              "system": "http://unitsofmeasure.org"
            }
          }
        ],
        "text": {
          "status": "generated",
          "div": "<div xmlns=\"http://www.w3.org/1999/xhtml\"><table class=\"hl7__eu__lab__report\"><tr><th>Test</th><th>22-May-2017</th><th>Reference&#xA0;Range</th><th>Unit</th></tr><tr><td>MCV [Entitic volume] by Automated count</td><td>87.4</td><td>78 - 98</td><td></td><td>fL</td></tr></table></div>"
        },
        "status": "final",
        "subject": {
          "reference": "urn:uuid:03525be1-5922-441d-83ef-9dee3f92bf4c",
          "display": "Aniela Prażmo"
        },
        "effectiveDateTime": "2017-05-22T18:02:04Z",
        "specimen": {
          "reference": "urn:uuid:ac80d653-b4e4-4545-9003-35cc3d05301a"
        }
      }
    },
    {
      "fullUrl": "urn:uuid:530854f9-9af8-403c-8975-a8bdf3a31e8f",
      "resource": {
        "resourceType": "Observation",
        "id": "530854f9-9af8-403c-8975-a8bdf3a31e8f",
        "meta": {
          "profile": [
            "http://hl7.eu/fhir/laboratory/StructureDefinition/Observation-resultslab-eu-lab"
          ]
        },
        "performer": [
          {
            "display": "The Central European Lab"
          }
        ],
        "category": [
          {
            "coding": [
              {
                "system": "http://terminology.hl7.org/CodeSystem/observation-category",
                "code": "laboratory"
              }
            ]
          }
        ],
        "code": {
          "coding": [
            {
              "code": "785-6",
              "system": "http://loinc.org",
              "display": "MCH [Entitic mass] by Automated count"
            }
          ],
          "text": "MCH [Entitic mass] by Automated count"
        },
        "valueQuantity": {
          "system": "http://unitsofmeasure.org",
          "value": 28,
          "unit": "pg",
          "code": "pg"
        },
        "referenceRange": [
          {
            "low": {
              "value": 27,
              "code": "pg",
              "system": "http://unitsofmeasure.org"
            }
          },
          {
            "high": {
              "value": 34,
              "code": "pg",
              "system": "http://unitsofmeasure.org"
            }
          }
        ],
        "text": {
          "status": "generated",
          "div": "<div xmlns=\"http://www.w3.org/1999/xhtml\"><table class=\"hl7__eu__lab__report\"><tr><th>Test</th><th>22-May-2017</th><th>Reference&#xA0;Range</th><th>Unit</th></tr><tr><td>MCH [Entitic mass] by Automated count</td><td>28.0</td><td>27 - 34</td><td></td><td>pg</td></tr></table></div>"
        },
        "status": "final",
        "subject": {
          "reference": "urn:uuid:03525be1-5922-441d-83ef-9dee3f92bf4c",
          "display": "Aniela Prażmo"
        },
        "effectiveDateTime": "2017-05-22T18:02:04Z",
        "specimen": {
          "reference": "urn:uuid:ac80d653-b4e4-4545-9003-35cc3d05301a"
        }
      }
    },
    {
      "fullUrl": "urn:uuid:a30afc0c-c5ee-4a10-930f-5d024158acf7",
      "resource": {
        "resourceType": "Observation",
        "id": "a30afc0c-c5ee-4a10-930f-5d024158acf7",
        "meta": {
          "profile": [
            "http://hl7.eu/fhir/laboratory/StructureDefinition/Observation-resultslab-eu-lab"
          ]
        },
        "performer": [
          {
            "display": "The Central European Lab"
          }
        ],
        "category": [
          {
            "coding": [
              {
                "system": "http://terminology.hl7.org/CodeSystem/observation-category",
                "code": "laboratory"
              }
            ]
          }
        ],
        "code": {
          "coding": [
            {
              "code": "786-4",
              "system": "http://loinc.org",
              "display": "MCHC [Mass/volume] by Automated count"
            }
          ],
          "text": "MCHC [Mass/volume] by Automated count"
        },
        "valueQuantity": {
          "system": "http://unitsofmeasure.org",
          "value": 32.2,
          "unit": "g/dL",
          "code": "g/dL"
        },
        "referenceRange": [
          {
            "low": {
              "value": 32,
              "code": "g/dL",
              "system": "http://unitsofmeasure.org"
            }
          },
          {
            "high": {
              "value": 35,
              "code": "g/dL",
              "system": "http://unitsofmeasure.org"
            }
          }
        ],
        "text": {
          "status": "generated",
          "div": "<div xmlns=\"http://www.w3.org/1999/xhtml\"><table class=\"hl7__eu__lab__report\"><tr><th>Test</th><th>22-May-2017</th><th>Reference&#xA0;Range</th><th>Unit</th></tr><tr><td>MCHC [Mass/volume] by Automated count</td><td>32.2</td><td>32 - 35</td><td></td><td>g/dL</td></tr></table></div>"
        },
        "status": "final",
        "subject": {
          "reference": "urn:uuid:03525be1-5922-441d-83ef-9dee3f92bf4c",
          "display": "Aniela Prażmo"
        },
        "effectiveDateTime": "2017-05-22T18:02:04Z",
        "specimen": {
          "reference": "urn:uuid:ac80d653-b4e4-4545-9003-35cc3d05301a"
        }
      }
    },
    {
      "fullUrl": "urn:uuid:ff9e61c9-17e8-40d8-991b-d91f50ba2998",
      "resource": {
        "resourceType": "Observation",
        "id": "ff9e61c9-17e8-40d8-991b-d91f50ba2998",
        "meta": {
          "profile": [
            "http://hl7.eu/fhir/laboratory/StructureDefinition/Observation-resultslab-eu-lab"
          ]
        },
        "performer": [
          {
            "display": "The Central European Lab"
          }
        ],
        "category": [
          {
            "coding": [
              {
                "system": "http://terminology.hl7.org/CodeSystem/observation-category",
                "code": "laboratory"
              }
            ]
          }
        ],
        "code": {
          "coding": [
            {
              "code": "788-0",
              "system": "http://loinc.org",
              "display": "Erythrocyte distribution width [Ratio] by Automated count"
            }
          ],
          "text": "Erythrocyte distribution width [Ratio] by Automated count"
        },
        "valueQuantity": {
          "system": "http://unitsofmeasure.org",
          "value": 13.9,
          "unit": "%",
          "code": "%"
        },
        "referenceRange": [
          {
            "low": {
              "value": 11.6,
              "code": "%",
              "system": "http://unitsofmeasure.org"
            }
          },
          {
            "high": {
              "value": 16.5,
              "code": "%",
              "system": "http://unitsofmeasure.org"
            }
          }
        ],
        "text": {
          "status": "generated",
          "div": "<div xmlns=\"http://www.w3.org/1999/xhtml\"><table class=\"hl7__eu__lab__report\"><tr><th>Test</th><th>22-May-2017</th><th>Reference&#xA0;Range</th><th>Unit</th></tr><tr><td>Erythrocyte distribution width [Ratio] by Automated count</td><td>13.9</td><td>11.6 - 16.5</td><td></td><td>%</td></tr></table></div>"
        },
        "status": "final",
        "subject": {
          "reference": "urn:uuid:03525be1-5922-441d-83ef-9dee3f92bf4c",
          "display": "Aniela Prażmo"
        },
        "effectiveDateTime": "2017-05-22T18:02:04Z",
        "specimen": {
          "reference": "urn:uuid:ac80d653-b4e4-4545-9003-35cc3d05301a"
        }
      }
    },
    {
      "fullUrl": "urn:uuid:a380016f-2160-4e45-b259-140844f8a97c",
      "resource": {
        "resourceType": "Observation",
        "id": "a380016f-2160-4e45-b259-140844f8a97c",
        "meta": {
          "profile": [
            "http://hl7.eu/fhir/laboratory/StructureDefinition/Observation-resultslab-eu-lab"
          ]
        },
        "performer": [
          {
            "display": "The Central European Lab"
          }
        ],
        "category": [
          {
            "coding": [
              {
                "system": "http://terminology.hl7.org/CodeSystem/observation-category",
                "code": "laboratory"
              }
            ]
          }
        ],
        "code": {
          "coding": [
            {
              "code": "777-3",
              "system": "http://loinc.org",
              "display": "Platelets [#/volume] in Blood by Automated count"
            }
          ],
          "text": "Platelets [#/volume] in Blood by Automated count"
        },
        "valueQuantity": {
          "system": "http://unitsofmeasure.org",
          "value": 238.3,
          "unit": "10*3/uL",
          "code": "10*3/uL"
        },
        "referenceRange": [
          {
            "low": {
              "value": 157,
              "code": "10*3/uL",
              "system": "http://unitsofmeasure.org"
            }
          },
          {
            "high": {
              "value": 415,
              "code": "10*3/uL",
              "system": "http://unitsofmeasure.org"
            }
          }
        ],
        "text": {
          "status": "generated",
          "div": "<div xmlns=\"http://www.w3.org/1999/xhtml\"><table class=\"hl7__eu__lab__report\"><tr><th>Test</th><th>22-May-2017</th><th>Reference&#xA0;Range</th><th>Unit</th></tr><tr><td>Platelets [#/volume] in Blood by Automated count</td><td>238.3</td><td>157 - 415</td><td></td><td>10*3/uL</td></tr></table></div>"
        },
        "status": "final",
        "subject": {
          "reference": "urn:uuid:03525be1-5922-441d-83ef-9dee3f92bf4c",
          "display": "Aniela Prażmo"
        },
        "effectiveDateTime": "2017-05-22T18:02:04Z",
        "specimen": {
          "reference": "urn:uuid:ac80d653-b4e4-4545-9003-35cc3d05301a"
        }
      }
    },
    {
      "fullUrl": "urn:uuid:12ac6f60-ba83-46bf-a56a-cc215273c9c7",
      "resource": {
        "resourceType": "Observation",
        "id": "12ac6f60-ba83-46bf-a56a-cc215273c9c7",
        "meta": {
          "profile": [
            "http://hl7.eu/fhir/laboratory/StructureDefinition/Observation-resultslab-eu-lab"
          ]
        },
        "performer": [
          {
            "display": "The Central European Lab"
          }
        ],
        "category": [
          {
            "coding": [
              {
                "system": "http://terminology.hl7.org/CodeSystem/observation-category",
                "code": "laboratory"
              }
            ]
          }
        ],
        "code": {
          "coding": [
            {
              "code": "2345-7",
              "system": "http://loinc.org",
              "display": "Glucose [Mass/volume] in Serum or Plasma"
            }
          ],
          "text": "Glucose [Mass/volume] in Serum or Plasma"
        },
        "valueQuantity": {
          "system": "http://unitsofmeasure.org",
          "value": 71.5,
          "unit": "mg/dL",
          "code": "mg/dL"
        },
        "referenceRange": [
          {
            "low": {
              "value": 70,
              "code": "mg/dL",
              "system": "http://unitsofmeasure.org"
            }
          },
          {
            "high": {
              "value": 99,
              "code": "mg/dL",
              "system": "http://unitsofmeasure.org"
            }
          }
        ],
        "text": {
          "status": "generated",
          "div": "<div xmlns=\"http://www.w3.org/1999/xhtml\"><table class=\"hl7__eu__lab__report\"><tr><th>Test</th><th>22-May-2017</th><th>Reference&#xA0;Range</th><th>Unit</th></tr><tr><td>Glucose [Mass/volume] in Serum or Plasma</td><td>71.5</td><td>70 - 99</td><td></td><td>mg/dL</td></tr></table></div>"
        },
        "status": "final",
        "subject": {
          "reference": "urn:uuid:03525be1-5922-441d-83ef-9dee3f92bf4c",
          "display": "Aniela Prażmo"
        },
        "effectiveDateTime": "2017-05-22T18:02:04Z",
        "specimen": {
          "reference": "urn:uuid:5a7aa436-0325-4417-8b1a-1a107c44ab28"
        }
      }
    },
    {
      "fullUrl": "urn:uuid:1d88f86a-e50c-4f69-b0d1-07102bfd6a41",
      "resource": {
        "resourceType": "Observation",
        "id": "1d88f86a-e50c-4f69-b0d1-07102bfd6a41",
        "meta": {
          "profile": [
            "http://hl7.eu/fhir/laboratory/StructureDefinition/Observation-resultslab-eu-lab"
          ]
        },
        "performer": [
          {
            "display": "The Central European Lab"
          }
        ],
        "category": [
          {
            "coding": [
              {
                "system": "http://terminology.hl7.org/CodeSystem/observation-category",
                "code": "laboratory"
              }
            ]
          }
        ],
        "code": {
          "coding": [
            {
              "code": "3094-0",
              "system": "http://loinc.org",
              "display": "Urea nitrogen [Mass/volume] in Serum or Plasma"
            }
          ],
          "text": "Urea nitrogen [Mass/volume] in Serum or Plasma"
        },
        "valueQuantity": {
          "system": "http://unitsofmeasure.org",
          "value": 7.8,
          "unit": "mg/dL",
          "code": "mg/dL"
        },
        "referenceRange": [
          {
            "low": {
              "value": 7,
              "code": "mg/dL",
              "system": "http://unitsofmeasure.org"
            }
          },
          {
            "high": {
              "value": 20,
              "code": "mg/dL",
              "system": "http://unitsofmeasure.org"
            }
          }
        ],
        "text": {
          "status": "generated",
          "div": "<div xmlns=\"http://www.w3.org/1999/xhtml\"><table class=\"hl7__eu__lab__report\"><tr><th>Test</th><th>22-May-2017</th><th>Reference&#xA0;Range</th><th>Unit</th></tr><tr><td>Urea nitrogen [Mass/volume] in Serum or Plasma</td><td>7.8</td><td>7 - 20</td><td></td><td>mg/dL</td></tr></table></div>"
        },
        "status": "final",
        "subject": {
          "reference": "urn:uuid:03525be1-5922-441d-83ef-9dee3f92bf4c",
          "display": "Aniela Prażmo"
        },
        "effectiveDateTime": "2017-05-22T18:02:04Z",
        "specimen": {
          "reference": "urn:uuid:5a7aa436-0325-4417-8b1a-1a107c44ab28"
        }
      }
    },
    {
      "fullUrl": "urn:uuid:f9d29f40-3e31-42de-a901-27a8034cab6c",
      "resource": {
        "resourceType": "Observation",
        "id": "f9d29f40-3e31-42de-a901-27a8034cab6c",
        "meta": {
          "profile": [
            "http://hl7.eu/fhir/laboratory/StructureDefinition/Observation-resultslab-eu-lab"
          ]
        },
        "performer": [
          {
            "display": "The Central European Lab"
          }
        ],
        "category": [
          {
            "coding": [
              {
                "system": "http://terminology.hl7.org/CodeSystem/observation-category",
                "code": "laboratory"
              }
            ]
          }
        ],
        "code": {
          "coding": [
            {
              "code": "2160-0",
              "system": "http://loinc.org",
              "display": "Creatinine [Mass/volume] in Serum or Plasma"
            }
          ],
          "text": "Creatinine [Mass/volume] in Serum or Plasma"
        },
        "valueQuantity": {
          "system": "http://unitsofmeasure.org",
          "value": 2.7,
          "unit": "mg/dL",
          "code": "mg/dL"
        },
        "referenceRange": [
          {
            "low": {
              "value": 0.6,
              "code": "mg/dL",
              "system": "http://unitsofmeasure.org"
            }
          },
          {
            "high": {
              "value": 1.3,
              "code": "mg/dL",
              "system": "http://unitsofmeasure.org"
            }
          }
        ],
        "interpretation": [
          {
            "coding": [
              {
                "code": "H",
                "system": "http://terminology.hl7.org/CodeSystem/v3-ObservationInterpretation",
                "display": "High"
              }
            ]
          }
        ],
        "text": {
          "status": "generated",
          "div": "<div xmlns=\"http://www.w3.org/1999/xhtml\"><table class=\"hl7__eu__lab__report\"><tr><th>Test</th><th>22-May-2017</th><th>Reference&#xA0;Range</th><th>Unit</th></tr><tr><td>Creatinine [Mass/volume] in Serum or Plasma</td><td>2.7</td><td>0.6 - 1.3</td><td>H</td><td>mg/dL</td></tr></table></div>"
        },
        "status": "final",
        "subject": {
          "reference": "urn:uuid:03525be1-5922-441d-83ef-9dee3f92bf4c",
          "display": "Aniela Prażmo"
        },
        "effectiveDateTime": "2017-05-22T18:02:04Z",
        "specimen": {
          "reference": "urn:uuid:5a7aa436-0325-4417-8b1a-1a107c44ab28"
        }
      }
    },
    {
      "fullUrl": "urn:uuid:4a0089c7-55be-4899-8e0a-57b85bad93e0",
      "resource": {
        "resourceType": "Observation",
        "id": "4a0089c7-55be-4899-8e0a-57b85bad93e0",
        "meta": {
          "profile": [
            "http://hl7.eu/fhir/laboratory/StructureDefinition/Observation-resultslab-eu-lab"
          ]
        },
        "performer": [
          {
            "display": "The Central European Lab"
          }
        ],
        "category": [
          {
            "coding": [
              {
                "system": "http://terminology.hl7.org/CodeSystem/observation-category",
                "code": "laboratory"
              }
            ]
          }
        ],
        "code": {
          "coding": [
            {
              "code": "17861-6",
              "system": "http://loinc.org",
              "display": "Calcium [Mass/volume] in Serum or Plasma"
            }
          ],
          "text": "Calcium [Mass/volume] in Serum or Plasma"
        },
        "valueQuantity": {
          "system": "http://unitsofmeasure.org",
          "value": 9.7,
          "unit": "mg/dL",
          "code": "mg/dL"
        },
        "referenceRange": [
          {
            "low": {
              "value": 8.5,
              "code": "mg/dL",
              "system": "http://unitsofmeasure.org"
            }
          },
          {
            "high": {
              "value": 10.4,
              "code": "mg/dL",
              "system": "http://unitsofmeasure.org"
            }
          }
        ],
        "text": {
          "status": "generated",
          "div": "<div xmlns=\"http://www.w3.org/1999/xhtml\"><table class=\"hl7__eu__lab__report\"><tr><th>Test</th><th>22-May-2017</th><th>Reference&#xA0;Range</th><th>Unit</th></tr><tr><td>Calcium [Mass/volume] in Serum or Plasma</td><td>9.7</td><td>8.5 - 10.4</td><td></td><td>mg/dL</td></tr></table></div>"
        },
        "status": "final",
        "subject": {
          "reference": "urn:uuid:03525be1-5922-441d-83ef-9dee3f92bf4c",
          "display": "Aniela Prażmo"
        },
        "effectiveDateTime": "2017-05-22T18:02:04Z",
        "specimen": {
          "reference": "urn:uuid:5a7aa436-0325-4417-8b1a-1a107c44ab28"
        }
      }
    },
    {
      "fullUrl": "urn:uuid:80639214-29bb-4ffd-8bc2-4f2187d92888",
      "resource": {
        "resourceType": "Observation",
        "id": "80639214-29bb-4ffd-8bc2-4f2187d92888",
        "meta": {
          "profile": [
            "http://hl7.eu/fhir/laboratory/StructureDefinition/Observation-resultslab-eu-lab"
          ]
        },
        "performer": [
          {
            "display": "The Central European Lab"
          }
        ],
        "category": [
          {
            "coding": [
              {
                "system": "http://terminology.hl7.org/CodeSystem/observation-category",
                "code": "laboratory"
              }
            ]
          }
        ],
        "code": {
          "coding": [
            {
              "code": "2951-2",
              "system": "http://loinc.org",
              "display": "Sodium [Moles/volume] in Serum or Plasma"
            }
          ],
          "text": "Sodium [Moles/volume] in Serum or Plasma"
        },
        "valueQuantity": {
          "system": "http://unitsofmeasure.org",
          "value": 136.6,
          "unit": "mmol/L",
          "code": "mmol/L"
        },
        "referenceRange": [
          {
            "low": {
              "value": 135,
              "code": "mmol/L",
              "system": "http://unitsofmeasure.org"
            }
          },
          {
            "high": {
              "value": 145,
              "code": "mmol/L",
              "system": "http://unitsofmeasure.org"
            }
          }
        ],
        "text": {
          "status": "generated",
          "div": "<div xmlns=\"http://www.w3.org/1999/xhtml\"><table class=\"hl7__eu__lab__report\"><tr><th>Test</th><th>22-May-2017</th><th>Reference&#xA0;Range</th><th>Unit</th></tr><tr><td>Sodium [Moles/volume] in Serum or Plasma</td><td>136.6</td><td>135 - 145</td><td></td><td>mmol/L</td></tr></table></div>"
        },
        "status": "final",
        "subject": {
          "reference": "urn:uuid:03525be1-5922-441d-83ef-9dee3f92bf4c",
          "display": "Aniela Prażmo"
        },
        "effectiveDateTime": "2017-05-22T18:02:04Z",
        "specimen": {
          "reference": "urn:uuid:5a7aa436-0325-4417-8b1a-1a107c44ab28"
        }
      }
    },
    {
      "fullUrl": "urn:uuid:c9ee1e39-3d03-43d4-916e-68091d51c77f",
      "resource": {
        "resourceType": "Observation",
        "id": "c9ee1e39-3d03-43d4-916e-68091d51c77f",
        "meta": {
          "profile": [
            "http://hl7.eu/fhir/laboratory/StructureDefinition/Observation-resultslab-eu-lab"
          ]
        },
        "performer": [
          {
            "display": "The Central European Lab"
          }
        ],
        "category": [
          {
            "coding": [
              {
                "system": "http://terminology.hl7.org/CodeSystem/observation-category",
                "code": "laboratory"
              }
            ]
          }
        ],
        "code": {
          "coding": [
            {
              "code": "2823-3",
              "system": "http://loinc.org",
              "display": "Potassium [Moles/volume] in Serum or Plasma"
            }
          ],
          "text": "Potassium [Moles/volume] in Serum or Plasma"
        },
        "valueQuantity": {
          "system": "http://unitsofmeasure.org",
          "value": 4.3,
          "unit": "mmol/L",
          "code": "mmol/L"
        },
        "referenceRange": [
          {
            "low": {
              "value": 3.5,
              "code": "mmol/L",
              "system": "http://unitsofmeasure.org"
            }
          },
          {
            "high": {
              "value": 5.1,
              "code": "mmol/L",
              "system": "http://unitsofmeasure.org"
            }
          }
        ],
        "text": {
          "status": "generated",
          "div": "<div xmlns=\"http://www.w3.org/1999/xhtml\"><table class=\"hl7__eu__lab__report\"><tr><th>Test</th><th>22-May-2017</th><th>Reference&#xA0;Range</th><th>Unit</th></tr><tr><td>Potassium [Moles/volume] in Serum or Plasma</td><td>4.3</td><td>3.5 - 5.1</td><td></td><td>mmol/L</td></tr></table></div>"
        },
        "status": "final",
        "subject": {
          "reference": "urn:uuid:03525be1-5922-441d-83ef-9dee3f92bf4c",
          "display": "Aniela Prażmo"
        },
        "effectiveDateTime": "2017-05-22T18:02:04Z",
        "specimen": {
          "reference": "urn:uuid:5a7aa436-0325-4417-8b1a-1a107c44ab28"
        }
      }
    },
    {
      "fullUrl": "urn:uuid:1c4a82d4-327b-47ad-b7ee-3f48864bc5ff",
      "resource": {
        "resourceType": "Observation",
        "id": "1c4a82d4-327b-47ad-b7ee-3f48864bc5ff",
        "meta": {
          "profile": [
            "http://hl7.eu/fhir/laboratory/StructureDefinition/Observation-resultslab-eu-lab"
          ]
        },
        "performer": [
          {
            "display": "The Central European Lab"
          }
        ],
        "category": [
          {
            "coding": [
              {
                "system": "http://terminology.hl7.org/CodeSystem/observation-category",
                "code": "laboratory"
              }
            ]
          }
        ],
        "code": {
          "coding": [
            {
              "code": "2075-0",
              "system": "http://loinc.org",
              "display": "Chloride [Moles/volume] in Serum or Plasma"
            }
          ],
          "text": "Chloride [Moles/volume] in Serum or Plasma"
        },
        "valueQuantity": {
          "system": "http://unitsofmeasure.org",
          "value": 105,
          "unit": "mmol/L",
          "code": "mmol/L"
        },
        "referenceRange": [
          {
            "low": {
              "value": 98,
              "code": "mmol/L",
              "system": "http://unitsofmeasure.org"
            }
          },
          {
            "high": {
              "value": 108,
              "code": "mmol/L",
              "system": "http://unitsofmeasure.org"
            }
          }
        ],
        "text": {
          "status": "generated",
          "div": "<div xmlns=\"http://www.w3.org/1999/xhtml\"><table class=\"hl7__eu__lab__report\"><tr><th>Test</th><th>22-May-2017</th><th>Reference&#xA0;Range</th><th>Unit</th></tr><tr><td>Chloride [Moles/volume] in Serum or Plasma</td><td>105.0</td><td>98 - 108</td><td></td><td>mmol/L</td></tr></table></div>"
        },
        "status": "final",
        "subject": {
          "reference": "urn:uuid:03525be1-5922-441d-83ef-9dee3f92bf4c",
          "display": "Aniela Prażmo"
        },
        "effectiveDateTime": "2017-05-22T18:02:04Z",
        "specimen": {
          "reference": "urn:uuid:5a7aa436-0325-4417-8b1a-1a107c44ab28"
        }
      }
    },
    {
      "fullUrl": "urn:uuid:af7c65f9-5a8f-4c04-8a59-aa275d9f8a8c",
      "resource": {
        "resourceType": "Observation",
        "id": "af7c65f9-5a8f-4c04-8a59-aa275d9f8a8c",
        "meta": {
          "profile": [
            "http://hl7.eu/fhir/laboratory/StructureDefinition/Observation-resultslab-eu-lab"
          ]
        },
        "performer": [
          {
            "display": "The Central European Lab"
          }
        ],
        "category": [
          {
            "coding": [
              {
                "system": "http://terminology.hl7.org/CodeSystem/observation-category",
                "code": "laboratory"
              }
            ]
          }
        ],
        "code": {
          "coding": [
            {
              "code": "2028-9",
              "system": "http://loinc.org",
              "display": "Carbon dioxide, total [Moles/volume] in Serum or Plasma"
            }
          ],
          "text": "Carbon dioxide, total [Moles/volume] in Serum or Plasma"
        },
        "valueQuantity": {
          "system": "http://unitsofmeasure.org",
          "value": 23.3,
          "unit": "mmol/L",
          "code": "mmol/L"
        },
        "referenceRange": [
          {
            "low": {
              "value": 22,
              "code": "mmol/L",
              "system": "http://unitsofmeasure.org"
            }
          },
          {
            "high": {
              "value": 32,
              "code": "mmol/L",
              "system": "http://unitsofmeasure.org"
            }
          }
        ],
        "text": {
          "status": "generated",
          "div": "<div xmlns=\"http://www.w3.org/1999/xhtml\"><table class=\"hl7__eu__lab__report\"><tr><th>Test</th><th>22-May-2017</th><th>Reference&#xA0;Range</th><th>Unit</th></tr><tr><td>Carbon dioxide, total [Moles/volume] in Serum or Plasma</td><td>23.3</td><td>22 - 32</td><td></td><td>mmol/L</td></tr></table></div>"
        },
        "status": "final",
        "subject": {
          "reference": "urn:uuid:03525be1-5922-441d-83ef-9dee3f92bf4c",
          "display": "Aniela Prażmo"
        },
        "effectiveDateTime": "2017-05-22T18:02:04Z",
        "specimen": {
          "reference": "urn:uuid:5a7aa436-0325-4417-8b1a-1a107c44ab28"
        }
      }
    },
    {
      "fullUrl": "urn:uuid:f903f33c-c1d0-4057-90d3-507779868ee8",
      "resource": {
        "resourceType": "Observation",
        "id": "f903f33c-c1d0-4057-90d3-507779868ee8",
        "meta": {
          "profile": [
            "http://hl7.eu/fhir/laboratory/StructureDefinition/Observation-resultslab-eu-lab"
          ]
        },
        "performer": [
          {
            "display": "The Central European Lab"
          }
        ],
        "category": [
          {
            "coding": [
              {
                "system": "http://terminology.hl7.org/CodeSystem/observation-category",
                "code": "laboratory"
              }
            ]
          }
        ],
        "code": {
          "coding": [
            {
              "code": "2885-2",
              "system": "http://loinc.org",
              "display": "Protein [Mass/volume] in Serum or Plasma"
            }
          ],
          "text": "Protein [Mass/volume] in Serum or Plasma"
        },
        "valueQuantity": {
          "system": "http://unitsofmeasure.org",
          "value": 8.5,
          "unit": "g/dL",
          "code": "g/dL"
        },
        "referenceRange": [
          {
            "low": {
              "value": 6,
              "code": "g/dL",
              "system": "http://unitsofmeasure.org"
            }
          },
          {
            "high": {
              "value": 8.3,
              "code": "g/dL",
              "system": "http://unitsofmeasure.org"
            }
          }
        ],
        "interpretation": [
          {
            "coding": [
              {
                "code": "H",
                "system": "http://terminology.hl7.org/CodeSystem/v3-ObservationInterpretation",
                "display": "High"
              }
            ]
          }
        ],
        "text": {
          "status": "generated",
          "div": "<div xmlns=\"http://www.w3.org/1999/xhtml\"><table class=\"hl7__eu__lab__report\"><tr><th>Test</th><th>22-May-2017</th><th>Reference&#xA0;Range</th><th>Unit</th></tr><tr><td>Protein [Mass/volume] in Serum or Plasma</td><td>8.5</td><td>6 - 8.3</td><td>H</td><td>g/dL</td></tr></table></div>"
        },
        "status": "final",
        "subject": {
          "reference": "urn:uuid:03525be1-5922-441d-83ef-9dee3f92bf4c",
          "display": "Aniela Prażmo"
        },
        "effectiveDateTime": "2017-05-22T18:02:04Z",
        "specimen": {
          "reference": "urn:uuid:5a7aa436-0325-4417-8b1a-1a107c44ab28"
        }
      }
    },
    {
      "fullUrl": "urn:uuid:806624bd-689d-4bfb-889f-9dd32d742bfa",
      "resource": {
        "resourceType": "Observation",
        "id": "806624bd-689d-4bfb-889f-9dd32d742bfa",
        "meta": {
          "profile": [
            "http://hl7.eu/fhir/laboratory/StructureDefinition/Observation-resultslab-eu-lab"
          ]
        },
        "performer": [
          {
            "display": "The Central European Lab"
          }
        ],
        "category": [
          {
            "coding": [
              {
                "system": "http://terminology.hl7.org/CodeSystem/observation-category",
                "code": "laboratory"
              }
            ]
          }
        ],
        "code": {
          "coding": [
            {
              "code": "1751-7",
              "system": "http://loinc.org",
              "display": "Albumin [Mass/volume] in Serum or Plasma"
            }
          ],
          "text": "Albumin [Mass/volume] in Serum or Plasma"
        },
        "valueQuantity": {
          "system": "http://unitsofmeasure.org",
          "value": 4.1,
          "unit": "g/dL",
          "code": "g/dL"
        },
        "referenceRange": [
          {
            "low": {
              "value": 3.5,
              "code": "g/dL",
              "system": "http://unitsofmeasure.org"
            }
          },
          {
            "high": {
              "value": 5,
              "code": "g/dL",
              "system": "http://unitsofmeasure.org"
            }
          }
        ],
        "text": {
          "status": "generated",
          "div": "<div xmlns=\"http://www.w3.org/1999/xhtml\"><table class=\"hl7__eu__lab__report\"><tr><th>Test</th><th>22-May-2017</th><th>Reference&#xA0;Range</th><th>Unit</th></tr><tr><td>Albumin [Mass/volume] in Serum or Plasma</td><td>4.1</td><td>3.5 - 5</td><td></td><td>g/dL</td></tr></table></div>"
        },
        "status": "final",
        "subject": {
          "reference": "urn:uuid:03525be1-5922-441d-83ef-9dee3f92bf4c",
          "display": "Aniela Prażmo"
        },
        "effectiveDateTime": "2017-05-22T18:02:04Z",
        "specimen": {
          "reference": "urn:uuid:5a7aa436-0325-4417-8b1a-1a107c44ab28"
        }
      }
    },
    {
      "fullUrl": "urn:uuid:1565ff4b-a165-4bce-8db4-bcc5ca22603a",
      "resource": {
        "resourceType": "Observation",
        "id": "1565ff4b-a165-4bce-8db4-bcc5ca22603a",
        "meta": {
          "profile": [
            "http://hl7.eu/fhir/laboratory/StructureDefinition/Observation-resultslab-eu-lab"
          ]
        },
        "performer": [
          {
            "display": "The Central European Lab"
          }
        ],
        "category": [
          {
            "coding": [
              {
                "system": "http://terminology.hl7.org/CodeSystem/observation-category",
                "code": "laboratory"
              }
            ]
          }
        ],
        "code": {
          "coding": [
            {
              "code": "1975-2",
              "system": "http://loinc.org",
              "display": "Bilirubin.total [Mass/volume] in Serum or Plasma"
            }
          ],
          "text": "Bilirubin.total [Mass/volume] in Serum or Plasma"
        },
        "valueQuantity": {
          "system": "http://unitsofmeasure.org",
          "value": 14.9,
          "unit": "mg/dL",
          "code": "mg/dL"
        },
        "referenceRange": [
          {
            "low": {
              "value": 0.3,
              "code": "mg/dL",
              "system": "http://unitsofmeasure.org"
            }
          },
          {
            "high": {
              "value": 1.2,
              "code": "mg/dL",
              "system": "http://unitsofmeasure.org"
            }
          }
        ],
        "interpretation": [
          {
            "coding": [
              {
                "code": "H",
                "system": "http://terminology.hl7.org/CodeSystem/v3-ObservationInterpretation",
                "display": "High"
              }
            ]
          }
        ],
        "text": {
          "status": "generated",
          "div": "<div xmlns=\"http://www.w3.org/1999/xhtml\"><table class=\"hl7__eu__lab__report\"><tr><th>Test</th><th>22-May-2017</th><th>Reference&#xA0;Range</th><th>Unit</th></tr><tr><td>Bilirubin.total [Mass/volume] in Serum or Plasma</td><td>14.9</td><td>0.3 - 1.2</td><td>H</td><td>mg/dL</td></tr></table></div>"
        },
        "status": "final",
        "subject": {
          "reference": "urn:uuid:03525be1-5922-441d-83ef-9dee3f92bf4c",
          "display": "Aniela Prażmo"
        },
        "effectiveDateTime": "2017-05-22T18:02:04Z",
        "specimen": {
          "reference": "urn:uuid:5a7aa436-0325-4417-8b1a-1a107c44ab28"
        }
      }
    },
    {
      "fullUrl": "urn:uuid:f87b633d-7e9a-4543-a683-fe0b1182148d",
      "resource": {
        "resourceType": "Observation",
        "id": "f87b633d-7e9a-4543-a683-fe0b1182148d",
        "meta": {
          "profile": [
            "http://hl7.eu/fhir/laboratory/StructureDefinition/Observation-resultslab-eu-lab"
          ]
        },
        "performer": [
          {
            "display": "The Central European Lab"
          }
        ],
        "category": [
          {
            "coding": [
              {
                "system": "http://terminology.hl7.org/CodeSystem/observation-category",
                "code": "laboratory"
              }
            ]
          }
        ],
        "code": {
          "coding": [
            {
              "code": "6768-6",
              "system": "http://loinc.org",
              "display": "Alkaline phosphatase [Enzymatic activity/volume] in Serum or Plasma"
            }
          ],
          "text": "Alkaline phosphatase [Enzymatic activity/volume] in Serum or Plasma"
        },
        "valueQuantity": {
          "system": "http://unitsofmeasure.org",
          "value": 54.9,
          "unit": "U/L",
          "code": "U/L"
        },
        "referenceRange": [
          {
            "low": {
              "value": 32,
              "code": "U/L",
              "system": "http://unitsofmeasure.org"
            }
          },
          {
            "high": {
              "value": 150,
              "code": "U/L",
              "system": "http://unitsofmeasure.org"
            }
          }
        ],
        "text": {
          "status": "generated",
          "div": "<div xmlns=\"http://www.w3.org/1999/xhtml\"><table class=\"hl7__eu__lab__report\"><tr><th>Test</th><th>22-May-2017</th><th>Reference&#xA0;Range</th><th>Unit</th></tr><tr><td>Alkaline phosphatase [Enzymatic activity/volume] in Serum or Plasma</td><td>54.9</td><td>32 - 150</td><td></td><td>U/L</td></tr></table></div>"
        },
        "status": "final",
        "subject": {
          "reference": "urn:uuid:03525be1-5922-441d-83ef-9dee3f92bf4c",
          "display": "Aniela Prażmo"
        },
        "effectiveDateTime": "2017-05-22T18:02:04Z",
        "specimen": {
          "reference": "urn:uuid:5a7aa436-0325-4417-8b1a-1a107c44ab28"
        }
      }
    },
    {
      "fullUrl": "urn:uuid:f3354a6e-182a-4f2f-ba34-db416a8b110d",
      "resource": {
        "resourceType": "Observation",
        "id": "f3354a6e-182a-4f2f-ba34-db416a8b110d",
        "meta": {
          "profile": [
            "http://hl7.eu/fhir/laboratory/StructureDefinition/Observation-resultslab-eu-lab"
          ]
        },
        "performer": [
          {
            "display": "The Central European Lab"
          }
        ],
        "category": [
          {
            "coding": [
              {
                "system": "http://terminology.hl7.org/CodeSystem/observation-category",
                "code": "laboratory"
              }
            ]
          }
        ],
        "code": {
          "coding": [
            {
              "code": "1742-6",
              "system": "http://loinc.org",
              "display": "Alanine aminotransferase [Enzymatic activity/volume] in Serum or Plasma"
            }
          ],
          "text": "Alanine aminotransferase [Enzymatic activity/volume] in Serum or Plasma"
        },
        "valueQuantity": {
          "system": "http://unitsofmeasure.org",
          "value": 18,
          "unit": "U/L",
          "code": "U/L"
        },
        "referenceRange": [
          {
            "low": {
              "value": 13,
              "code": "U/L",
              "system": "http://unitsofmeasure.org"
            }
          },
          {
            "high": {
              "value": 32,
              "code": "U/L",
              "system": "http://unitsofmeasure.org"
            }
          }
        ],
        "text": {
          "status": "generated",
          "div": "<div xmlns=\"http://www.w3.org/1999/xhtml\"><table class=\"hl7__eu__lab__report\"><tr><th>Test</th><th>22-May-2017</th><th>Reference&#xA0;Range</th><th>Unit</th></tr><tr><td>Alanine aminotransferase [Enzymatic activity/volume] in Serum or Plasma</td><td>18.0</td><td>13 - 32</td><td></td><td>U/L</td></tr></table></div>"
        },
        "status": "final",
        "subject": {
          "reference": "urn:uuid:03525be1-5922-441d-83ef-9dee3f92bf4c",
          "display": "Aniela Prażmo"
        },
        "effectiveDateTime": "2017-05-22T18:02:04Z",
        "specimen": {
          "reference": "urn:uuid:5a7aa436-0325-4417-8b1a-1a107c44ab28"
        }
      }
    },
    {
      "fullUrl": "urn:uuid:f45490e4-c7a8-424d-91cd-460e3d2fe98d",
      "resource": {
        "resourceType": "Observation",
        "id": "f45490e4-c7a8-424d-91cd-460e3d2fe98d",
        "meta": {
          "profile": [
            "http://hl7.eu/fhir/laboratory/StructureDefinition/Observation-resultslab-eu-lab"
          ]
        },
        "performer": [
          {
            "display": "The Central European Lab"
          }
        ],
        "category": [
          {
            "coding": [
              {
                "system": "http://terminology.hl7.org/CodeSystem/observation-category",
                "code": "laboratory"
              }
            ]
          }
        ],
        "code": {
          "coding": [
            {
              "code": "1920-8",
              "system": "http://loinc.org",
              "display": "Aspartate aminotransferase [Enzymatic activity/volume] in Serum or Plasma"
            }
          ],
          "text": "Aspartate aminotransferase [Enzymatic activity/volume] in Serum or Plasma"
        },
        "valueQuantity": {
          "system": "http://unitsofmeasure.org",
          "value": 28.7,
          "unit": "U/L",
          "code": "U/L"
        },
        "referenceRange": [
          {
            "low": {
              "value": 10,
              "code": "U/L",
              "system": "http://unitsofmeasure.org"
            }
          },
          {
            "high": {
              "value": 40,
              "code": "U/L",
              "system": "http://unitsofmeasure.org"
            }
          }
        ],
        "text": {
          "status": "generated",
          "div": "<div xmlns=\"http://www.w3.org/1999/xhtml\"><table class=\"hl7__eu__lab__report\"><tr><th>Test</th><th>22-May-2017</th><th>Reference&#xA0;Range</th><th>Unit</th></tr><tr><td>Aspartate aminotransferase [Enzymatic activity/volume] in Serum or Plasma</td><td>28.7</td><td>10 - 40</td><td></td><td>U/L</td></tr></table></div>"
        },
        "status": "final",
        "subject": {
          "reference": "urn:uuid:03525be1-5922-441d-83ef-9dee3f92bf4c",
          "display": "Aniela Prażmo"
        },
        "effectiveDateTime": "2017-05-22T18:02:04Z",
        "specimen": {
          "reference": "urn:uuid:5a7aa436-0325-4417-8b1a-1a107c44ab28"
        }
      }
    },
    {
      "fullUrl": "urn:uuid:e0ba512b-c5a0-4528-ae5a-1e58535d247c",
      "resource": {
        "resourceType": "Observation",
        "id": "e0ba512b-c5a0-4528-ae5a-1e58535d247c",
        "meta": {
          "profile": [
            "http://hl7.eu/fhir/laboratory/StructureDefinition/Observation-resultslab-eu-lab"
          ]
        },
        "performer": [
          {
            "display": "The Central European Lab"
          }
        ],
        "category": [
          {
            "coding": [
              {
                "system": "http://terminology.hl7.org/CodeSystem/observation-category",
                "code": "laboratory"
              }
            ]
          }
        ],
        "code": {
          "coding": [
            {
              "code": "19123-9",
              "system": "http://loinc.org",
              "display": "Magnesium [Mass/volume] in Serum or Plasma"
            }
          ],
          "text": "Magnesium [Mass/volume] in Serum or Plasma"
        },
        "valueQuantity": {
          "system": "http://unitsofmeasure.org",
          "value": 2.2,
          "unit": "mg/dL",
          "code": "mg/dL"
        },
        "referenceRange": [
          {
            "low": {
              "value": 1.7,
              "code": "mg/dL",
              "system": "http://unitsofmeasure.org"
            }
          },
          {
            "high": {
              "value": 2.6,
              "code": "mg/dL",
              "system": "http://unitsofmeasure.org"
            }
          }
        ],
        "text": {
          "status": "generated",
          "div": "<div xmlns=\"http://www.w3.org/1999/xhtml\"><table class=\"hl7__eu__lab__report\"><tr><th>Test</th><th>22-May-2017</th><th>Reference&#xA0;Range</th><th>Unit</th></tr><tr><td>Magnesium [Mass/volume] in Serum or Plasma</td><td>2.2</td><td>1.7 - 2.6</td><td></td><td>mg/dL</td></tr></table></div>"
        },
        "status": "final",
        "subject": {
          "reference": "urn:uuid:03525be1-5922-441d-83ef-9dee3f92bf4c",
          "display": "Aniela Prażmo"
        },
        "effectiveDateTime": "2017-05-22T18:02:04Z",
        "specimen": {
          "reference": "urn:uuid:5a7aa436-0325-4417-8b1a-1a107c44ab28"
        }
      }
    },
    {
      "fullUrl": "urn:uuid:b54b235e-654a-497b-bc64-da6c67beadde",
      "resource": {
        "resourceType": "Observation",
        "id": "b54b235e-654a-497b-bc64-da6c67beadde",
        "meta": {
          "profile": [
            "http://hl7.eu/fhir/laboratory/StructureDefinition/Observation-resultslab-eu-lab"
          ]
        },
        "performer": [
          {
            "display": "The Central European Lab"
          }
        ],
        "category": [
          {
            "coding": [
              {
                "system": "http://terminology.hl7.org/CodeSystem/observation-category",
                "code": "laboratory"
              }
            ]
          }
        ],
        "code": {
          "coding": [
            {
              "code": "2777-1",
              "system": "http://loinc.org",
              "display": "Phosphate [Mass/volume] in Serum or Plasma"
            }
          ],
          "text": "Phosphate [Mass/volume] in Serum or Plasma"
        },
        "valueQuantity": {
          "system": "http://unitsofmeasure.org",
          "value": 3.3,
          "unit": "mg/dL",
          "code": "mg/dL"
        },
        "referenceRange": [
          {
            "low": {
              "value": 2.5,
              "code": "mg/dL",
              "system": "http://unitsofmeasure.org"
            }
          },
          {
            "high": {
              "value": 4.5,
              "code": "mg/dL",
              "system": "http://unitsofmeasure.org"
            }
          }
        ],
        "text": {
          "status": "generated",
          "div": "<div xmlns=\"http://www.w3.org/1999/xhtml\"><table class=\"hl7__eu__lab__report\"><tr><th>Test</th><th>22-May-2017</th><th>Reference&#xA0;Range</th><th>Unit</th></tr><tr><td>Phosphate [Mass/volume] in Serum or Plasma</td><td>3.3</td><td>2.5 - 4.5</td><td></td><td>mg/dL</td></tr></table></div>"
        },
        "status": "final",
        "subject": {
          "reference": "urn:uuid:03525be1-5922-441d-83ef-9dee3f92bf4c",
          "display": "Aniela Prażmo"
        },
        "effectiveDateTime": "2017-05-22T18:02:04Z",
        "specimen": {
          "reference": "urn:uuid:5a7aa436-0325-4417-8b1a-1a107c44ab28"
        }
      }
    },
    {
      "fullUrl": "urn:uuid:7c9aada5-cf0f-4756-a8ae-4d4f8c369777",
      "resource": {
        "resourceType": "Observation",
        "id": "7c9aada5-cf0f-4756-a8ae-4d4f8c369777",
        "meta": {
          "profile": [
            "http://hl7.eu/fhir/laboratory/StructureDefinition/Observation-resultslab-eu-lab"
          ]
        },
        "performer": [
          {
            "display": "The Central European Lab"
          }
        ],
        "category": [
          {
            "coding": [
              {
                "system": "http://terminology.hl7.org/CodeSystem/observation-category",
                "code": "laboratory"
              }
            ]
          }
        ],
        "code": {
          "coding": [
            {
              "code": "5902-2",
              "system": "http://loinc.org",
              "display": "Prothrombin time (PT)"
            }
          ],
          "text": "Prothrombin time (PT)"
        },
        "valueQuantity": {
          "system": "http://unitsofmeasure.org",
          "value": 10.2,
          "unit": "s",
          "code": "s"
        },
        "referenceRange": [
          {
            "low": {
              "value": 11,
              "code": "s",
              "system": "http://unitsofmeasure.org"
            }
          },
          {
            "high": {
              "value": 15,
              "code": "s",
              "system": "http://unitsofmeasure.org"
            }
          }
        ],
        "interpretation": [
          {
            "coding": [
              {
                "code": "L",
                "system": "http://terminology.hl7.org/CodeSystem/v3-ObservationInterpretation",
                "display": "Low"
              }
            ]
          }
        ],
        "text": {
          "status": "generated",
          "div": "<div xmlns=\"http://www.w3.org/1999/xhtml\"><table class=\"hl7__eu__lab__report\"><tr><th>Test</th><th>22-May-2017</th><th>Reference&#xA0;Range</th><th>Unit</th></tr><tr><td>Prothrombin time (PT)</td><td>10.2</td><td>11 - 15</td><td>L</td><td>s</td></tr></table></div>"
        },
        "status": "final",
        "subject": {
          "reference": "urn:uuid:03525be1-5922-441d-83ef-9dee3f92bf4c",
          "display": "Aniela Prażmo"
        },
        "effectiveDateTime": "2017-05-22T18:02:04Z",
        "specimen": {
          "reference": "urn:uuid:3bd3f78f-90fa-4765-97bd-7f7d706a7d81"
        }
      }
    },
    {
      "fullUrl": "urn:uuid:194734f4-be07-4aa9-9e7e-5b146f3a7c55",
      "resource": {
        "resourceType": "Observation",
        "id": "194734f4-be07-4aa9-9e7e-5b146f3a7c55",
        "meta": {
          "profile": [
            "http://hl7.eu/fhir/laboratory/StructureDefinition/Observation-resultslab-eu-lab"
          ]
        },
        "performer": [
          {
            "display": "The Central European Lab"
          }
        ],
        "category": [
          {
            "coding": [
              {
                "system": "http://terminology.hl7.org/CodeSystem/observation-category",
                "code": "laboratory"
              }
            ]
          }
        ],
        "code": {
          "coding": [
            {
              "code": "6301-6",
              "system": "http://loinc.org",
              "display": "INR in Platelet poor plasma by Coagulation assay"
            }
          ],
          "text": "INR in Platelet poor plasma by Coagulation assay"
        },
        "valueQuantity": {
          "system": "http://unitsofmeasure.org",
          "value": 0.9,
          "unit": "{INR}",
          "code": "{INR}"
        },
        "referenceRange": [
          {
            "low": {
              "value": 0.9,
              "code": "INR",
              "system": "http://unitsofmeasure.org"
            }
          },
          {
            "high": {
              "value": 1.1,
              "code": "INR",
              "system": "http://unitsofmeasure.org"
            }
          }
        ],
        "text": {
          "status": "generated",
          "div": "<div xmlns=\"http://www.w3.org/1999/xhtml\"><table class=\"hl7__eu__lab__report\"><tr><th>Test</th><th>22-May-2017</th><th>Reference&#xA0;Range</th><th>Unit</th></tr><tr><td>INR in Platelet poor plasma by Coagulation assay</td><td>0.9</td><td>0.9 - 1.1</td><td></td><td>{INR}</td></tr></table></div>"
        },
        "status": "final",
        "subject": {
          "reference": "urn:uuid:03525be1-5922-441d-83ef-9dee3f92bf4c",
          "display": "Aniela Prażmo"
        },
        "effectiveDateTime": "2017-05-22T18:02:04Z",
        "specimen": {
          "reference": "urn:uuid:3bd3f78f-90fa-4765-97bd-7f7d706a7d81"
        }
      }
    },
    {
      "fullUrl": "urn:uuid:ded80d7c-4812-448b-a308-f8985bccb8b2",
      "resource": {
        "resourceType": "Observation",
        "id": "ded80d7c-4812-448b-a308-f8985bccb8b2",
        "meta": {
          "profile": [
            "http://hl7.eu/fhir/laboratory/StructureDefinition/Observation-resultslab-eu-lab"
          ]
        },
        "performer": [
          {
            "display": "The Central European Lab"
          }
        ],
        "category": [
          {
            "coding": [
              {
                "system": "http://terminology.hl7.org/CodeSystem/observation-category",
                "code": "laboratory"
              }
            ]
          }
        ],
        "code": {
          "coding": [
            {
              "code": "3173-2",
              "system": "http://loinc.org",
              "display": "aPTT in Blood by Coagulation assay"
            }
          ],
          "text": "aPTT in Blood by Coagulation assay"
        },
        "valueQuantity": {
          "system": "http://unitsofmeasure.org",
          "value": 26.8,
          "unit": "s",
          "code": "s"
        },
        "referenceRange": [
          {
            "low": {
              "value": 25,
              "code": "seconds",
              "system": "http://unitsofmeasure.org"
            }
          },
          {
            "high": {
              "value": 35,
              "code": "seconds",
              "system": "http://unitsofmeasure.org"
            }
          }
        ],
        "text": {
          "status": "generated",
          "div": "<div xmlns=\"http://www.w3.org/1999/xhtml\"><table class=\"hl7__eu__lab__report\"><tr><th>Test</th><th>22-May-2017</th><th>Reference&#xA0;Range</th><th>Unit</th></tr><tr><td>aPTT in Blood by Coagulation assay</td><td>26.8</td><td>25 - 35</td><td></td><td>s</td></tr></table></div>"
        },
        "status": "final",
        "subject": {
          "reference": "urn:uuid:03525be1-5922-441d-83ef-9dee3f92bf4c",
          "display": "Aniela Prażmo"
        },
        "effectiveDateTime": "2017-05-22T18:02:04Z",
        "specimen": {
          "reference": "urn:uuid:ac80d653-b4e4-4545-9003-35cc3d05301a"
        }
      }
    },
    {
      "fullUrl": "urn:uuid:ce1277e1-6491-4c2b-b62c-7bfbddd61c18",
      "resource": {
        "resourceType": "Observation",
        "id": "ce1277e1-6491-4c2b-b62c-7bfbddd61c18",
        "meta": {
          "profile": [
            "http://hl7.eu/fhir/laboratory/StructureDefinition/Observation-resultslab-eu-lab"
          ]
        },
        "performer": [
          {
            "display": "The Central European Lab"
          }
        ],
        "category": [
          {
            "coding": [
              {
                "system": "http://terminology.hl7.org/CodeSystem/observation-category",
                "code": "laboratory"
              }
            ]
          }
        ],
        "code": {
          "coding": [
            {
              "code": "2744-1",
              "system": "http://loinc.org",
              "display": "pH of Arterial blood"
            }
          ],
          "text": "pH of Arterial blood"
        },
        "valueQuantity": {
          "system": "http://unitsofmeasure.org",
          "value": 7.2,
          "unit": "[pH]",
          "code": "[pH]"
        },
        "referenceRange": [
          {
            "low": {
              "value": 7.35,
              "code": "pH",
              "system": "http://unitsofmeasure.org"
            }
          },
          {
            "high": {
              "value": 7.45,
              "code": "pH",
              "system": "http://unitsofmeasure.org"
            }
          }
        ],
        "interpretation": [
          {
            "coding": [
              {
                "code": "L",
                "system": "http://terminology.hl7.org/CodeSystem/v3-ObservationInterpretation",
                "display": "Low"
              }
            ]
          }
        ],
        "text": {
          "status": "generated",
          "div": "<div xmlns=\"http://www.w3.org/1999/xhtml\"><table class=\"hl7__eu__lab__report\"><tr><th>Test</th><th>22-May-2017</th><th>Reference&#xA0;Range</th><th>Unit</th></tr><tr><td>pH of Arterial blood</td><td>7.2</td><td>7.35 - 7.45</td><td>L</td><td>[pH]</td></tr></table></div>"
        },
        "status": "final",
        "subject": {
          "reference": "urn:uuid:03525be1-5922-441d-83ef-9dee3f92bf4c",
          "display": "Aniela Prażmo"
        },
        "effectiveDateTime": "2017-05-22T18:02:04Z",
        "specimen": {
          "reference": "urn:uuid:f3fba8e3-816d-49b4-a5d1-bb56ccf26308"
        }
      }
    },
    {
      "fullUrl": "urn:uuid:4ffadfd3-89aa-4bf8-9b7f-132aad62b7f9",
      "resource": {
        "resourceType": "Observation",
        "id": "4ffadfd3-89aa-4bf8-9b7f-132aad62b7f9",
        "meta": {
          "profile": [
            "http://hl7.eu/fhir/laboratory/StructureDefinition/Observation-resultslab-eu-lab"
          ]
        },
        "performer": [
          {
            "display": "The Central European Lab"
          }
        ],
        "category": [
          {
            "coding": [
              {
                "system": "http://terminology.hl7.org/CodeSystem/observation-category",
                "code": "laboratory"
              }
            ]
          }
        ],
        "code": {
          "coding": [
            {
              "code": "2019-8",
              "system": "http://loinc.org",
              "display": "Carbon dioxide [Partial pressure] in Arterial blood"
            }
          ],
          "text": "Carbon dioxide [Partial pressure] in Arterial blood"
        },
        "valueQuantity": {
          "system": "http://unitsofmeasure.org",
          "value": 39.2,
          "unit": "mm[Hg]",
          "code": "mm[Hg]"
        },
        "referenceRange": [
          {
            "low": {
              "value": 38,
              "code": "mm[Hg]",
              "system": "http://unitsofmeasure.org"
            }
          },
          {
            "high": {
              "value": 48,
              "code": "mm[Hg]",
              "system": "http://unitsofmeasure.org"
            }
          }
        ],
        "text": {
          "status": "generated",
          "div": "<div xmlns=\"http://www.w3.org/1999/xhtml\"><table class=\"hl7__eu__lab__report\"><tr><th>Test</th><th>22-May-2017</th><th>Reference&#xA0;Range</th><th>Unit</th></tr><tr><td>Carbon dioxide [Partial pressure] in Arterial blood</td><td>39.2</td><td>38 - 48</td><td></td><td>mm[Hg]</td></tr></table></div>"
        },
        "status": "final",
        "subject": {
          "reference": "urn:uuid:03525be1-5922-441d-83ef-9dee3f92bf4c",
          "display": "Aniela Prażmo"
        },
        "effectiveDateTime": "2017-05-22T18:02:04Z",
        "specimen": {
          "reference": "urn:uuid:f3fba8e3-816d-49b4-a5d1-bb56ccf26308"
        }
      }
    },
    {
      "fullUrl": "urn:uuid:18eee32e-5658-449d-8e76-f97d824df82f",
      "resource": {
        "resourceType": "Observation",
        "id": "18eee32e-5658-449d-8e76-f97d824df82f",
        "meta": {
          "profile": [
            "http://hl7.eu/fhir/laboratory/StructureDefinition/Observation-resultslab-eu-lab"
          ]
        },
        "performer": [
          {
            "display": "The Central European Lab"
          }
        ],
        "category": [
          {
            "coding": [
              {
                "system": "http://terminology.hl7.org/CodeSystem/observation-category",
                "code": "laboratory"
              }
            ]
          }
        ],
        "code": {
          "coding": [
            {
              "code": "2703-7",
              "system": "http://loinc.org",
              "display": "Oxygen [Partial pressure] in Arterial blood"
            }
          ],
          "text": "Oxygen [Partial pressure] in Arterial blood"
        },
        "valueQuantity": {
          "system": "http://unitsofmeasure.org",
          "value": 80.9,
          "unit": "mm[Hg]",
          "code": "mm[Hg]"
        },
        "referenceRange": [
          {
            "low": {
              "value": 75,
              "code": "mm[Hg]",
              "system": "http://unitsofmeasure.org"
            }
          },
          {
            "high": {
              "value": 100,
              "code": "mm[Hg]",
              "system": "http://unitsofmeasure.org"
            }
          }
        ],
        "text": {
          "status": "generated",
          "div": "<div xmlns=\"http://www.w3.org/1999/xhtml\"><table class=\"hl7__eu__lab__report\"><tr><th>Test</th><th>22-May-2017</th><th>Reference&#xA0;Range</th><th>Unit</th></tr><tr><td>Oxygen [Partial pressure] in Arterial blood</td><td>80.9</td><td>75 - 100</td><td></td><td>mm[Hg]</td></tr></table></div>"
        },
        "status": "final",
        "subject": {
          "reference": "urn:uuid:03525be1-5922-441d-83ef-9dee3f92bf4c",
          "display": "Aniela Prażmo"
        },
        "effectiveDateTime": "2017-05-22T18:02:04Z",
        "specimen": {
          "reference": "urn:uuid:f3fba8e3-816d-49b4-a5d1-bb56ccf26308"
        }
      }
    },
    {
      "fullUrl": "urn:uuid:0e2be23e-1d67-47b8-93d9-14cdf7145537",
      "resource": {
        "resourceType": "Observation",
        "id": "0e2be23e-1d67-47b8-93d9-14cdf7145537",
        "meta": {
          "profile": [
            "http://hl7.eu/fhir/laboratory/StructureDefinition/Observation-resultslab-eu-lab"
          ]
        },
        "performer": [
          {
            "display": "The Central European Lab"
          }
        ],
        "category": [
          {
            "coding": [
              {
                "system": "http://terminology.hl7.org/CodeSystem/observation-category",
                "code": "laboratory"
              }
            ]
          }
        ],
        "code": {
          "coding": [
            {
              "code": "1960-4",
              "system": "http://loinc.org",
              "display": "Bicarbonate [Moles/volume] in Arterial blood"
            }
          ],
          "text": "Bicarbonate [Moles/volume] in Arterial blood"
        },
        "valueQuantity": {
          "system": "http://unitsofmeasure.org",
          "value": 23.7,
          "unit": "mmol/L",
          "code": "mmol/L"
        },
        "referenceRange": [
          {
            "low": {
              "value": 22,
              "code": "mmol/L",
              "system": "http://unitsofmeasure.org"
            }
          },
          {
            "high": {
              "value": 31,
              "code": "mmol/L",
              "system": "http://unitsofmeasure.org"
            }
          }
        ],
        "text": {
          "status": "generated",
          "div": "<div xmlns=\"http://www.w3.org/1999/xhtml\"><table class=\"hl7__eu__lab__report\"><tr><th>Test</th><th>22-May-2017</th><th>Reference&#xA0;Range</th><th>Unit</th></tr><tr><td>Bicarbonate [Moles/volume] in Arterial blood</td><td>23.7</td><td>22 - 31</td><td></td><td>mmol/L</td></tr></table></div>"
        },
        "status": "final",
        "subject": {
          "reference": "urn:uuid:03525be1-5922-441d-83ef-9dee3f92bf4c",
          "display": "Aniela Prażmo"
        },
        "effectiveDateTime": "2017-05-22T18:02:04Z",
        "specimen": {
          "reference": "urn:uuid:f3fba8e3-816d-49b4-a5d1-bb56ccf26308"
        }
      }
    },
    {
      "fullUrl": "urn:uuid:a21a1e02-624b-4cc7-8ff9-4f65eea23bb9",
      "resource": {
        "resourceType": "Observation",
        "id": "a21a1e02-624b-4cc7-8ff9-4f65eea23bb9",
        "meta": {
          "profile": [
            "http://hl7.eu/fhir/laboratory/StructureDefinition/Observation-resultslab-eu-lab"
          ]
        },
        "performer": [
          {
            "display": "The Central European Lab"
          }
        ],
        "category": [
          {
            "coding": [
              {
                "system": "http://terminology.hl7.org/CodeSystem/observation-category",
                "code": "laboratory"
              }
            ]
          }
        ],
        "code": {
          "coding": [
            {
              "code": "2708-6",
              "system": "http://loinc.org",
              "display": "Oxygen saturation in Arterial blood"
            }
          ],
          "text": "Oxygen saturation in Arterial blood"
        },
        "valueQuantity": {
          "system": "http://unitsofmeasure.org",
          "value": 94,
          "unit": "%",
          "code": "%"
        },
        "referenceRange": [
          {
            "low": {
              "value": 95,
              "code": "%",
              "system": "http://unitsofmeasure.org"
            }
          },
          {
            "high": {
              "value": 100,
              "code": "%",
              "system": "http://unitsofmeasure.org"
            }
          }
        ],
        "interpretation": [
          {
            "coding": [
              {
                "code": "L",
                "system": "http://terminology.hl7.org/CodeSystem/v3-ObservationInterpretation",
                "display": "Low"
              }
            ]
          }
        ],
        "text": {
          "status": "generated",
          "div": "<div xmlns=\"http://www.w3.org/1999/xhtml\"><table class=\"hl7__eu__lab__report\"><tr><th>Test</th><th>22-May-2017</th><th>Reference&#xA0;Range</th><th>Unit</th></tr><tr><td>Oxygen saturation in Arterial blood</td><td>94.0</td><td>95 - 100</td><td>L</td><td>%</td></tr></table></div>"
        },
        "status": "final",
        "subject": {
          "reference": "urn:uuid:03525be1-5922-441d-83ef-9dee3f92bf4c",
          "display": "Aniela Prażmo"
        },
        "effectiveDateTime": "2017-05-22T18:02:04Z",
        "specimen": {
          "reference": "urn:uuid:f3fba8e3-816d-49b4-a5d1-bb56ccf26308"
        }
      }
    },
    {
      "fullUrl": "urn:uuid:ef4f27cd-305f-4392-95bf-5c5e5d5fbe6d",
      "resource": {
        "resourceType": "Observation",
        "id": "ef4f27cd-305f-4392-95bf-5c5e5d5fbe6d",
        "meta": {
          "profile": [
            "http://hl7.eu/fhir/laboratory/StructureDefinition/Observation-resultslab-eu-lab"
          ]
        },
        "performer": [
          {
            "display": "The Central European Lab"
          }
        ],
        "category": [
          {
            "coding": [
              {
                "system": "http://terminology.hl7.org/CodeSystem/observation-category",
                "code": "laboratory"
              }
            ]
          }
        ],
        "code": {
          "coding": [
            {
              "code": "2093-3",
              "system": "http://loinc.org",
              "display": "Cholesterol [Mass/volume] in Serum or Plasma"
            }
          ],
          "text": "Cholesterol [Mass/volume] in Serum or Plasma"
        },
        "valueQuantity": {
          "system": "http://unitsofmeasure.org",
          "value": 299.5,
          "unit": "mg/dL",
          "code": "mg/dL"
        },
        "referenceRange": [
          {
            "low": {
              "value": 130,
              "code": "mg/dL",
              "system": "http://unitsofmeasure.org"
            }
          },
          {
            "high": {
              "value": 200,
              "code": "mg/dL",
              "system": "http://unitsofmeasure.org"
            }
          }
        ],
        "interpretation": [
          {
            "coding": [
              {
                "code": "H",
                "system": "http://terminology.hl7.org/CodeSystem/v3-ObservationInterpretation",
                "display": "High"
              }
            ]
          }
        ],
        "text": {
          "status": "generated",
          "div": "<div xmlns=\"http://www.w3.org/1999/xhtml\"><table class=\"hl7__eu__lab__report\"><tr><th>Test</th><th>22-May-2017</th><th>Reference&#xA0;Range</th><th>Unit</th></tr><tr><td>Cholesterol [Mass/volume] in Serum or Plasma</td><td>299.5</td><td>130 - 200</td><td>H</td><td>mg/dL</td></tr></table></div>"
        },
        "status": "final",
        "subject": {
          "reference": "urn:uuid:03525be1-5922-441d-83ef-9dee3f92bf4c",
          "display": "Aniela Prażmo"
        },
        "effectiveDateTime": "2017-05-22T18:02:04Z",
        "specimen": {
          "reference": "urn:uuid:5a7aa436-0325-4417-8b1a-1a107c44ab28"
        }
      }
    },
    {
      "fullUrl": "urn:uuid:7c454ec0-5987-4882-8c30-6db751d01dce",
      "resource": {
        "resourceType": "Observation",
        "id": "7c454ec0-5987-4882-8c30-6db751d01dce",
        "meta": {
          "profile": [
            "http://hl7.eu/fhir/laboratory/StructureDefinition/Observation-resultslab-eu-lab"
          ]
        },
        "performer": [
          {
            "display": "The Central European Lab"
          }
        ],
        "category": [
          {
            "coding": [
              {
                "system": "http://terminology.hl7.org/CodeSystem/observation-category",
                "code": "laboratory"
              }
            ]
          }
        ],
        "code": {
          "coding": [
            {
              "code": "2571-8",
              "system": "http://loinc.org",
              "display": "Triglyceride [Mass/volume] in Serum or Plasma"
            }
          ],
          "text": "Triglyceride [Mass/volume] in Serum or Plasma"
        },
        "valueQuantity": {
          "system": "http://unitsofmeasure.org",
          "value": 140.8,
          "unit": "mg/dL",
          "code": "mg/dL"
        },
        "referenceRange": [
          {
            "low": {
              "value": 0,
              "code": "mg/dL",
              "system": "http://unitsofmeasure.org"
            }
          },
          {
            "high": {
              "value": 199,
              "code": "mg/dL",
              "system": "http://unitsofmeasure.org"
            }
          }
        ],
        "text": {
          "status": "generated",
          "div": "<div xmlns=\"http://www.w3.org/1999/xhtml\"><table class=\"hl7__eu__lab__report\"><tr><th>Test</th><th>22-May-2017</th><th>Reference&#xA0;Range</th><th>Unit</th></tr><tr><td>Triglyceride [Mass/volume] in Serum or Plasma</td><td>140.8</td><td>0 - 199</td><td></td><td>mg/dL</td></tr></table></div>"
        },
        "status": "final",
        "subject": {
          "reference": "urn:uuid:03525be1-5922-441d-83ef-9dee3f92bf4c",
          "display": "Aniela Prażmo"
        },
        "effectiveDateTime": "2017-05-22T18:02:04Z",
        "specimen": {
          "reference": "urn:uuid:5a7aa436-0325-4417-8b1a-1a107c44ab28"
        }
      }
    },
    {
      "fullUrl": "urn:uuid:87a83626-c5e9-4d09-ab04-f343b1db3214",
      "resource": {
        "resourceType": "Observation",
        "id": "87a83626-c5e9-4d09-ab04-f343b1db3214",
        "meta": {
          "profile": [
            "http://hl7.eu/fhir/laboratory/StructureDefinition/Observation-resultslab-eu-lab"
          ]
        },
        "performer": [
          {
            "display": "The Central European Lab"
          }
        ],
        "category": [
          {
            "coding": [
              {
                "system": "http://terminology.hl7.org/CodeSystem/observation-category",
                "code": "laboratory"
              }
            ]
          }
        ],
        "code": {
          "coding": [
            {
              "code": "18262-6",
              "system": "http://loinc.org",
              "display": "Cholesterol in LDL [Mass/volume] in Serum or Plasma by Direct assay"
            }
          ],
          "text": "Cholesterol in LDL [Mass/volume] in Serum or Plasma by Direct assay"
        },
        "valueQuantity": {
          "system": "http://unitsofmeasure.org",
          "value": 210.5,
          "unit": "mg/dL",
          "code": "mg/dL"
        },
        "referenceRange": [
          {
            "low": {
              "value": 0,
              "code": "mg/dL",
              "system": "http://unitsofmeasure.org"
            }
          },
          {
            "high": {
              "value": 130,
              "code": "mg/dL",
              "system": "http://unitsofmeasure.org"
            }
          }
        ],
        "interpretation": [
          {
            "coding": [
              {
                "code": "H",
                "system": "http://terminology.hl7.org/CodeSystem/v3-ObservationInterpretation",
                "display": "High"
              }
            ]
          }
        ],
        "text": {
          "status": "generated",
          "div": "<div xmlns=\"http://www.w3.org/1999/xhtml\"><table class=\"hl7__eu__lab__report\"><tr><th>Test</th><th>22-May-2017</th><th>Reference&#xA0;Range</th><th>Unit</th></tr><tr><td>Cholesterol in LDL [Mass/volume] in Serum or Plasma by Direct assay</td><td>210.5</td><td>0 - 130</td><td>H</td><td>mg/dL</td></tr></table></div>"
        },
        "status": "final",
        "subject": {
          "reference": "urn:uuid:03525be1-5922-441d-83ef-9dee3f92bf4c",
          "display": "Aniela Prażmo"
        },
        "effectiveDateTime": "2017-05-22T18:02:04Z",
        "specimen": {
          "reference": "urn:uuid:5a7aa436-0325-4417-8b1a-1a107c44ab28"
        }
      }
    },
    {
      "fullUrl": "urn:uuid:5ccef291-3245-4066-bf1c-a4d571709d19",
      "resource": {
        "resourceType": "Observation",
        "id": "5ccef291-3245-4066-bf1c-a4d571709d19",
        "meta": {
          "profile": [
            "http://hl7.eu/fhir/laboratory/StructureDefinition/Observation-resultslab-eu-lab"
          ]
        },
        "performer": [
          {
            "display": "The Central European Lab"
          }
        ],
        "category": [
          {
            "coding": [
              {
                "system": "http://terminology.hl7.org/CodeSystem/observation-category",
                "code": "laboratory"
              }
            ]
          }
        ],
        "code": {
          "coding": [
            {
              "code": "2085-9",
              "system": "http://loinc.org",
              "display": "Cholesterol in HDL [Mass/volume] in Serum or Plasma"
            }
          ],
          "text": "Cholesterol in HDL [Mass/volume] in Serum or Plasma"
        },
        "valueQuantity": {
          "system": "http://unitsofmeasure.org",
          "value": 60.9,
          "unit": "mg/dL",
          "code": "mg/dL"
        },
        "referenceRange": [
          {
            "low": {
              "value": 50,
              "code": "mg/dL",
              "system": "http://unitsofmeasure.org"
            }
          },
          {
            "high": {
              "value": 100,
              "code": "mg/dL",
              "system": "http://unitsofmeasure.org"
            }
          }
        ],
        "text": {
          "status": "generated",
          "div": "<div xmlns=\"http://www.w3.org/1999/xhtml\"><table class=\"hl7__eu__lab__report\"><tr><th>Test</th><th>22-May-2017</th><th>Reference&#xA0;Range</th><th>Unit</th></tr><tr><td>Cholesterol in HDL [Mass/volume] in Serum or Plasma</td><td>60.9</td><td>50 - 100</td><td></td><td>mg/dL</td></tr></table></div>"
        },
        "status": "final",
        "subject": {
          "reference": "urn:uuid:03525be1-5922-441d-83ef-9dee3f92bf4c",
          "display": "Aniela Prażmo"
        },
        "effectiveDateTime": "2017-05-22T18:02:04Z",
        "specimen": {
          "reference": "urn:uuid:5a7aa436-0325-4417-8b1a-1a107c44ab28"
        }
      }
    },
    {
      "fullUrl": "urn:uuid:edad64af-9cef-42da-bb0f-aa21e1e2f85c",
      "resource": {
        "resourceType": "Device",
        "id": "edad64af-9cef-42da-bb0f-aa21e1e2f85c",
        "deviceName": [
          {
            "name": "SYNDERAI Synthetic Generator",
            "type": "manufacturer-name"
          }
        ],
        "version": [
          {
            "value": "5.0"
          }
        ],
        "text": {
          "status": "generated",
          "div": "<div xmlns=\"http://www.w3.org/1999/xhtml\">SYNDERAI Synthetic Generator v5.0</div>"
        },
        "status": "active\"",
        "distinctIdentifier": "synderai-generator-50",
        "manufacturer": "SYNDERAI Project"
      }
    },
    {
      "fullUrl": "urn:uuid:87010bd4-b401-4ab1-ad77-3e701ff75426",
      "resource": {
        "resourceType": "Provenance",
        "id": "87010bd4-b401-4ab1-ad77-3e701ff75426",
        "target": [
          {
            "reference": "Patient/03525be1-5922-441d-83ef-9dee3f92bf4c"
          },
          {
            "reference": "Bundle/fc5bc976-8063-4b13-86e8-2380d5ed5a87"
          },
          {
            "reference": "Composition/cbc40d41-9298-4d38-8a28-7f291c367612"
          },
          {
            "reference": "PractitionerRole/789023d9-097d-46d5-b819-d380e90e29bc"
          },
          {
            "reference": "Practitioner/16dc1bbc-bad7-474a-88ae-ef4197c16c34"
          },
          {
            "reference": "PractitionerRole/dcfdefe5-12f2-4a4d-a220-0f31dd67541e"
          },
          {
            "reference": "Organization/9ba75a69-d981-4cbe-88d5-96711666cf10"
          }
        ],
        "activity": {
          "text": "Synthetic Example Data Generation"
        },
        "policy": [
          "https://synderai.net/synderai-synthetic-data-policy"
        ],
        "agent": [
          {
            "type": {
              "text": "author"
            },
            "who": {
              "reference": "Device/edad64af-9cef-42da-bb0f-aa21e1e2f85c"
            }
          }
        ],
        "reason": [
          {
            "text": "Interoperability Testing and Training (non-clinical use)"
          }
        ],
        "text": {
          "status": "generated",
          "div": "<div xmlns=\"http://www.w3.org/1999/xhtml\">Provenance for SYNDERAI Synthetic Example Data Resource</div>"
        },
        "recorded": "2017-05-22T20:02:04Z"
      }
    },
    {
      "fullUrl": "urn:uuid:789023d9-097d-46d5-b819-d380e90e29bc",
      "resource": {
        "resourceType": "PractitionerRole",
        "id": "789023d9-097d-46d5-b819-d380e90e29bc",
        "meta": {
          "profile": [
            "http://hl7.eu/fhir/base/StructureDefinition/practitionerRole-eu"
          ]
        },
        "text": {
          "status": "generated",
          "div": "<div xmlns=\"http://www.w3.org/1999/xhtml\">Laboratory Role Id: 789023d9-097d-46d5-b819-d380e90e29bc</div>"
        },
        "practitioner": {
          "reference": "urn:uuid:16dc1bbc-bad7-474a-88ae-ef4197c16c34"
        }
      }
    },
    {
      "fullUrl": "urn:uuid:16dc1bbc-bad7-474a-88ae-ef4197c16c34",
      "resource": {
        "resourceType": "Practitioner",
        "id": "16dc1bbc-bad7-474a-88ae-ef4197c16c34",
        "meta": {
          "profile": [
            "http://hl7.eu/fhir/base/StructureDefinition/practitioner-eu"
          ]
        },
        "identifier": [
          {
            "assigner": {
              "display": "HL7 Europe"
            },
            "system": "urn:oid:2.16.840.1.113883.2.51.999",
            "value": "a2d35158-9d17-452c-9299-b7cd7076b260"
          }
        ],
        "name": [
          {
            "prefix": [
              "dr"
            ],
            "given": [
              "Ex"
            ],
            "family": "Ample"
          }
        ],
        "address": [
          {
            "line": [
              "Laboratoire Central Européenne",
              "Boulevard du Jardin Botanique 32"
            ],
            "postalCode": "1000",
            "city": "Brussels",
            "country": "Belgium"
          }
        ],
        "text": {
          "status": "generated",
          "div": "<div xmlns=\"http://www.w3.org/1999/xhtml\">Laboratory: Laboratoire Central Européenne, 1000 Brussels, Belgium</div>"
        }
      }
    }
  ],
  "type": "document",
  "timestamp": "2017-05-22T20:02:04Z"
}
