{
  "resourceType": "Bundle",
  "id": "00e82a7a-7f0e-4570-8cae-11c4e50ead34",
  "meta": {
    "profile": [
      "http://hl7.eu/fhir/laboratory/StructureDefinition/Bundle-eu-lab"
    ]
  },
  "identifier": {
    "assigner": {
      "display": "HL7 Europe"
    },
    "system": "urn:oid:2.16.840.1.113883.2.51.999",
    "value": "b7f14c27-b1b6-4069-9149-7f84c3e967a9"
  },
  "entry": [
    {
      "fullUrl": "urn:uuid:731ab7bf-147f-43ce-99d9-dfd6c218989f",
      "resource": {
        "resourceType": "Composition",
        "id": "731ab7bf-147f-43ce-99d9-dfd6c218989f",
        "meta": {
          "profile": [
            "http://hl7.eu/fhir/laboratory/StructureDefinition/Composition-eu-lab"
          ]
        },
        "identifier": {
          "assigner": {
            "display": "HL7 Europe"
          },
          "system": "urn:oid:2.16.840.1.113883.2.51.999",
          "value": "92021c85-d3bd-4c84-a22c-c16967a355c6"
        },
        "author": [
          {
            "reference": "urn:uuid:d4191e2b-b4cb-422e-bda8-432786c2483f"
          }
        ],
        "category": [
          {
            "coding": [
              {
                "code": "26436-6",
                "system": "http://loinc.org",
                "display": "Laboratory studies (set)"
              }
            ]
          }
        ],
        "type": {
          "coding": [
            {
              "code": "11502-2",
              "system": "http://loinc.org",
              "display": "Laboratory report"
            }
          ],
          "text": "Laboratory Report"
        },
        "section": [
          {
            "code": {
              "coding": [
                {
                  "code": "26436-6",
                  "system": "http://loinc.org",
                  "display": "Laboratory studies (set)"
                }
              ],
              "text": "Laboratory studies"
            },
            "section": [
              {
                "code": {
                  "coding": [
                    {
                      "code": "$18719-5",
                      "system": "http://loinc.org",
                      "display": "Chemistry studies (set)"
                    }
                  ],
                  "text": "Chemistry"
                },
                "entry": [
                  {
                    "reference": "urn:uuid:e6ba3aed-ce26-4ecb-9e82-70e7d5fb0cd2"
                  },
                  {
                    "reference": "urn:uuid:a85e08c2-770e-4ac4-9cb2-ae05aa83ed5f"
                  },
                  {
                    "reference": "urn:uuid:7452a8c6-45e1-44f0-a18f-deb34bcb7679"
                  },
                  {
                    "reference": "urn:uuid:d4953ce5-8471-4a9f-957f-fa7da555f306"
                  }
                ],
                "text": {
                  "status": "generated",
                  "div": "<div xmlns=\"http://www.w3.org/1999/xhtml\"><h3>Chemistry</h3><table class=\"hl7__eu__lab__report\"><thead><tr><th>Test</th><th>28-FEB-2017</th><th>Reference&#xA0;Range</th><th>Unit</th></tr></thead><tbody><tr><td>Cholesterol [Mass/volume] in Serum or Plasma</td><td>174.2</td><td>125 - 200</td><td>mg/dL</td></tr><tr><td>Triglyceride [Mass/volume] in Serum or Plasma</td><td>113.3</td><td>35 - 150</td><td>mg/dL</td></tr><tr><td>Cholesterol in LDL [Mass/volume] in Serum or Plasma by Direct assay</td><td>91.4</td><td>0 - 130</td><td>mg/dL</td></tr><tr><td>Cholesterol in HDL [Mass/volume] in Serum or Plasma</td><td>60.2</td><td>46 - 82</td><td>mg/dL</td></tr></tbody></table></div>"
                },
                "title": "Chemistry"
              }
            ],
            "title": "Laboratory Report"
          },
          {
            "text": {
              "status": "generated",
              "div": "<div xmlns=\"http://www.w3.org/1999/xhtml\"><h3>Annotation</h3><table class=\"hl7__eu__lab__report\"><tr><th>Conclusion and Recommendations based on this report and previous findings known to us</th></tr><tr><td>All lipid parameters (total cholesterol, triglycerides, LDL, and HDL) are within normal limits. No laboratory evidence of dyslipidemia at this time. Recommend continued routine monitoring and maintenance of a healthy lifestyle.</td></tr></table></div>"
            },
            "code": {
              "coding": [
                {
                  "system": "http://loinc.org",
                  "code": "48767-8",
                  "display": "Annotation comment"
                }
              ]
            },
            "title": "Annotation comment"
          }
        ],
        "status": "final",
        "subject": {
          "reference": "urn:uuid:9d844530-2539-455a-b61a-96057a030c36",
          "display": "Hortense Gallet"
        },
        "date": "2017-02-28T21:16:45Z",
        "title": "Laboratory Report",
        "confidentiality": "N"
      }
    },
    {
      "fullUrl": "urn:uuid:e0be0d01-1317-4f50-867f-51033904f9aa",
      "resource": {
        "resourceType": "DiagnosticReport",
        "id": "e0be0d01-1317-4f50-867f-51033904f9aa",
        "meta": {
          "profile": [
            "http://hl7.eu/fhir/laboratory/StructureDefinition/DiagnosticReport-eu-lab"
          ]
        },
        "identifier": [
          {
            "assigner": {
              "display": "HL7 Europe"
            },
            "system": "urn:oid:2.16.840.1.113883.2.51.999",
            "value": "59370480-5eec-4905-a6ae-47d1a5b9c8bc"
          }
        ],
        "extension": [
          {
            "url": "http://hl7.org/fhir/5.0/StructureDefinition/extension-DiagnosticReport.composition",
            "valueReference": {
              "reference": "urn:uuid:92021c85-d3bd-4c84-a22c-c16967a355c6"
            }
          }
        ],
        "category": [
          {
            "coding": [
              {
                "code": "26436-6",
                "system": "http://loinc.org",
                "display": "Laboratory studies (set)"
              }
            ]
          }
        ],
        "specimen": [
          {
            "reference": "urn:uuid:ac8ca5b2-b508-4643-a3fb-6bc61ea58beb"
          }
        ],
        "result": [
          {
            "reference": "urn:uuid:e6ba3aed-ce26-4ecb-9e82-70e7d5fb0cd2"
          },
          {
            "reference": "urn:uuid:a85e08c2-770e-4ac4-9cb2-ae05aa83ed5f"
          },
          {
            "reference": "urn:uuid:7452a8c6-45e1-44f0-a18f-deb34bcb7679"
          },
          {
            "reference": "urn:uuid:d4953ce5-8471-4a9f-957f-fa7da555f306"
          }
        ],
        "status": "registered",
        "code": {
          "coding": [
            {
              "code": "11502-2",
              "system": "http://loinc.org",
              "display": "Laboratory report"
            }
          ]
        },
        "subject": {
          "reference": "urn:uuid:9d844530-2539-455a-b61a-96057a030c36",
          "display": "Hortense Gallet"
        }
      }
    },
    {
      "fullUrl": "urn:uuid:9d844530-2539-455a-b61a-96057a030c36",
      "resource": {
        "resourceType": "Patient",
        "id": "9d844530-2539-455a-b61a-96057a030c36",
        "meta": {
          "security": [
            {
              "system": "http://terminology.hl7.org/CodeSystem/v3-ActReason",
              "code": "HTEST"
            },
            {
              "system": "http://terminology.hl7.org/CodeSystem/v3-ActReason",
              "code": "TRAIN"
            }
          ],
          "tag": [
            {
              "system": "https://synderai.net/fhir/CodeSystem/tags",
              "code": "synthetic",
              "display": "SYNDERAI Synthetic data"
            }
          ],
          "profile": [
            "http://hl7.eu/fhir/base/StructureDefinition/patient-eu-core"
          ]
        },
        "identifier": [
          {
            "type": {
              "coding": [
                {
                  "code": "PT",
                  "system": "http://terminology.hl7.org/CodeSystem/v2-0203"
                }
              ]
            },
            "system": "http://ec.europa.eu/identifier/eci",
            "value": "7727-126450-7"
          },
          {
            "type": {
              "coding": [
                {
                  "code": "MR",
                  "system": "http://terminology.hl7.org/CodeSystem/v2-0203"
                }
              ]
            },
            "system": "http://local.setting.eu/identifier",
            "value": "7f40b956-404d-dd5b-92ca-442ee97c8277"
          }
        ],
        "name": [
          {
            "family": "Gallet"
          },
          {
            "given": [
              "Hortense"
            ]
          },
          {
            "text": "Hortense Gallet"
          }
        ],
        "address": [
          {
            "line": [
              "98, boulevard de Faure"
            ],
            "use": "home",
            "type": "physical",
            "postalCode": "03210",
            "city": "Besson",
            "country": "France"
          }
        ],
        "telecom": [
          {
            "system": "phone",
            "value": "03 26 87 89 04"
          }
        ],
        "extension": [
          {
            "url": "http://hl7.org/fhir/StructureDefinition/patient-nationality",
            "valueCodeableConcept": {
              "coding": [
                {
                  "code": "FR",
                  "system": "http://hl7.org/fhir/ValueSet/country"
                }
              ]
            }
          }
        ],
        "text": {
          "status": "generated",
          "div": "<div xmlns=\"http://www.w3.org/1999/xhtml\"><table class=\"hl7__ips\"><tr><td>Hortense Gallet</td><td>female</td><td>14-Feb-1967</td></tr></table></div>"
        },
        "gender": "female",
        "birthDate": "1967-02-14"
      }
    },
    {
      "fullUrl": "urn:uuid:9934d89d-1d46-4c01-89de-a5fbe5ccb01e",
      "resource": {
        "resourceType": "ServiceRequest",
        "id": "9934d89d-1d46-4c01-89de-a5fbe5ccb01e",
        "meta": {
          "profile": [
            "http://hl7.eu/fhir/laboratory/StructureDefinition/ServiceRequest-eu-lab"
          ]
        },
        "identifier": [
          {
            "system": "http://example.org",
            "value": "6024f54c-0c28-4254-954d-22492a2caf9a"
          }
        ],
        "specimen": [
          {
            "reference": "urn:uuid:ac8ca5b2-b508-4643-a3fb-6bc61ea58beb"
          }
        ],
        "reasonCode": [
          {
            "coding": [
              {
                "code": "431856006",
                "system": "http://snomed.info/sct",
                "display": "Chronic kidney disease stage 2"
              }
            ]
          },
          {
            "coding": [
              {
                "code": "90781000119102",
                "system": "http://snomed.info/sct",
                "display": "Microalbuminuria due to type 2 diabetes mellitus"
              }
            ]
          },
          {
            "coding": [
              {
                "code": "127013003",
                "system": "http://snomed.info/sct",
                "display": "Disorder of kidney due to diabetes mellitus"
              }
            ]
          },
          {
            "coding": [
              {
                "code": "431855005",
                "system": "http://snomed.info/sct",
                "display": "Chronic kidney disease stage 1"
              }
            ]
          },
          {
            "coding": [
              {
                "code": "59621000",
                "system": "http://snomed.info/sct",
                "display": "Essential hypertension"
              }
            ]
          }
        ],
        "status": "active",
        "intent": "order",
        "code": {
          "coding": [
            {
              "code": "108252007",
              "system": "http://snomed.info/sct",
              "display": "Laboratory procedure"
            }
          ]
        },
        "subject": {
          "reference": "urn:uuid:9d844530-2539-455a-b61a-96057a030c36",
          "display": "Hortense Gallet"
        },
        "requester": {
          "reference": "urn:uuid:31f65a4d-606a-4bcc-b7e1-6fd5428c470f"
        }
      }
    },
    {
      "fullUrl": "urn:uuid:31f65a4d-606a-4bcc-b7e1-6fd5428c470f",
      "resource": {
        "resourceType": "PractitionerRole",
        "id": "31f65a4d-606a-4bcc-b7e1-6fd5428c470f",
        "meta": {
          "profile": [
            "http://hl7.eu/fhir/base/StructureDefinition/practitionerRole-eu"
          ]
        },
        "text": {
          "status": "generated",
          "div": "<div xmlns=\"http://www.w3.org/1999/xhtml\">Provider Role Id: 31f65a4d-606a-4bcc-b7e1-6fd5428c470f</div>"
        },
        "organization": {
          "reference": "urn:uuid:34c030e7-367b-45a9-a298-973d3f1c2559"
        }
      }
    },
    {
      "fullUrl": "urn:uuid:34c030e7-367b-45a9-a298-973d3f1c2559",
      "resource": {
        "resourceType": "Organization",
        "id": "34c030e7-367b-45a9-a298-973d3f1c2559",
        "meta": {
          "profile": [
            "http://hl7.eu/fhir/base/StructureDefinition/organization-eu"
          ]
        },
        "identifier": [
          {
            "assigner": {
              "display": "HL7 Europe"
            },
            "system": "urn:oid:2.16.840.1.113883.2.51.999",
            "value": "690fd2e0-41a5-4d9c-b5e1-0f30b1c08744"
          }
        ],
        "address": [
          {
            "line": [
              "Rue Jean Jaurès 140"
            ],
            "city": "Vichy",
            "postalCode": "03200",
            "country": "France"
          }
        ],
        "text": {
          "status": "generated",
          "div": "<div xmlns=\"http://www.w3.org/1999/xhtml\">Provider Organization: Centre La Chrysalide</div>"
        },
        "name": "Centre La Chrysalide"
      }
    },
    {
      "fullUrl": "urn:uuid:ac8ca5b2-b508-4643-a3fb-6bc61ea58beb",
      "resource": {
        "resourceType": "Specimen",
        "id": "ac8ca5b2-b508-4643-a3fb-6bc61ea58beb",
        "meta": {
          "profile": [
            "http://hl7.eu/fhir/laboratory/StructureDefinition/Specimen-eu-lab"
          ]
        },
        "collection": {
          "collectedDateTime": "2017-02-28"
        },
        "text": {
          "status": "generated",
          "div": "<div xmlns=\"http://www.w3.org/1999/xhtml\"><table class=\"hl7__eu__lab__report\"><tr><th>Specimen</th><th>Collection Date</th></tr><tr><td>Acellular blood (serum or plasma) specimen</td><td><span class=\"nb\">28-Feb-2017</span></td></tr></table></div>"
        },
        "type": {
          "coding": [
            {
              "code": "122592007",
              "system": "http://snomed.info/sct",
              "display": "Acellular blood (serum or plasma) specimen"
            }
          ]
        }
      }
    },
    {
      "fullUrl": "urn:uuid:e6ba3aed-ce26-4ecb-9e82-70e7d5fb0cd2",
      "resource": {
        "resourceType": "Observation",
        "id": "e6ba3aed-ce26-4ecb-9e82-70e7d5fb0cd2",
        "meta": {
          "profile": [
            "http://hl7.eu/fhir/laboratory/StructureDefinition/Observation-resultslab-eu-lab"
          ]
        },
        "performer": [
          {
            "display": "The Central European Lab"
          }
        ],
        "category": [
          {
            "coding": [
              {
                "system": "http://terminology.hl7.org/CodeSystem/observation-category",
                "code": "laboratory"
              }
            ]
          }
        ],
        "code": {
          "coding": [
            {
              "code": "2093-3",
              "system": "http://loinc.org",
              "display": "Cholesterol [Mass/volume] in Serum or Plasma"
            }
          ],
          "text": "Cholesterol [Mass/volume] in Serum or Plasma"
        },
        "valueQuantity": {
          "system": "http://unitsofmeasure.org",
          "value": 174.2,
          "unit": "mg/dL",
          "code": "mg/dL"
        },
        "referenceRange": [
          {
            "low": {
              "value": 125,
              "code": "mg/dL",
              "system": "http://unitsofmeasure.org"
            }
          },
          {
            "high": {
              "value": 200,
              "code": "mg/dL",
              "system": "http://unitsofmeasure.org"
            }
          }
        ],
        "text": {
          "status": "generated",
          "div": "<div xmlns=\"http://www.w3.org/1999/xhtml\"><table class=\"hl7__eu__lab__report\"><tr><th>Test</th><th>28-Feb-2017</th><th>Reference&#xA0;Range</th><th>Unit</th></tr><tr><td>Cholesterol [Mass/volume] in Serum or Plasma</td><td>174.2</td><td>125 - 200</td><td></td><td>mg/dL</td></tr></table></div>"
        },
        "status": "final",
        "subject": {
          "reference": "urn:uuid:9d844530-2539-455a-b61a-96057a030c36",
          "display": "Hortense Gallet"
        },
        "effectiveDateTime": "2017-02-28T20:16:45Z",
        "specimen": {
          "reference": "urn:uuid:ac8ca5b2-b508-4643-a3fb-6bc61ea58beb"
        }
      }
    },
    {
      "fullUrl": "urn:uuid:a85e08c2-770e-4ac4-9cb2-ae05aa83ed5f",
      "resource": {
        "resourceType": "Observation",
        "id": "a85e08c2-770e-4ac4-9cb2-ae05aa83ed5f",
        "meta": {
          "profile": [
            "http://hl7.eu/fhir/laboratory/StructureDefinition/Observation-resultslab-eu-lab"
          ]
        },
        "performer": [
          {
            "display": "The Central European Lab"
          }
        ],
        "category": [
          {
            "coding": [
              {
                "system": "http://terminology.hl7.org/CodeSystem/observation-category",
                "code": "laboratory"
              }
            ]
          }
        ],
        "code": {
          "coding": [
            {
              "code": "2571-8",
              "system": "http://loinc.org",
              "display": "Triglyceride [Mass/volume] in Serum or Plasma"
            }
          ],
          "text": "Triglyceride [Mass/volume] in Serum or Plasma"
        },
        "valueQuantity": {
          "system": "http://unitsofmeasure.org",
          "value": 113.3,
          "unit": "mg/dL",
          "code": "mg/dL"
        },
        "referenceRange": [
          {
            "low": {
              "value": 35,
              "code": "mg/dL",
              "system": "http://unitsofmeasure.org"
            }
          },
          {
            "high": {
              "value": 150,
              "code": "mg/dL",
              "system": "http://unitsofmeasure.org"
            }
          }
        ],
        "text": {
          "status": "generated",
          "div": "<div xmlns=\"http://www.w3.org/1999/xhtml\"><table class=\"hl7__eu__lab__report\"><tr><th>Test</th><th>28-Feb-2017</th><th>Reference&#xA0;Range</th><th>Unit</th></tr><tr><td>Triglyceride [Mass/volume] in Serum or Plasma</td><td>113.3</td><td>35 - 150</td><td></td><td>mg/dL</td></tr></table></div>"
        },
        "status": "final",
        "subject": {
          "reference": "urn:uuid:9d844530-2539-455a-b61a-96057a030c36",
          "display": "Hortense Gallet"
        },
        "effectiveDateTime": "2017-02-28T20:16:45Z",
        "specimen": {
          "reference": "urn:uuid:ac8ca5b2-b508-4643-a3fb-6bc61ea58beb"
        }
      }
    },
    {
      "fullUrl": "urn:uuid:7452a8c6-45e1-44f0-a18f-deb34bcb7679",
      "resource": {
        "resourceType": "Observation",
        "id": "7452a8c6-45e1-44f0-a18f-deb34bcb7679",
        "meta": {
          "profile": [
            "http://hl7.eu/fhir/laboratory/StructureDefinition/Observation-resultslab-eu-lab"
          ]
        },
        "performer": [
          {
            "display": "The Central European Lab"
          }
        ],
        "category": [
          {
            "coding": [
              {
                "system": "http://terminology.hl7.org/CodeSystem/observation-category",
                "code": "laboratory"
              }
            ]
          }
        ],
        "code": {
          "coding": [
            {
              "code": "18262-6",
              "system": "http://loinc.org",
              "display": "Cholesterol in LDL [Mass/volume] in Serum or Plasma by Direct assay"
            }
          ],
          "text": "Cholesterol in LDL [Mass/volume] in Serum or Plasma by Direct assay"
        },
        "valueQuantity": {
          "system": "http://unitsofmeasure.org",
          "value": 91.4,
          "unit": "mg/dL",
          "code": "mg/dL"
        },
        "referenceRange": [
          {
            "low": {
              "value": 0,
              "code": "mg/dL",
              "system": "http://unitsofmeasure.org"
            }
          },
          {
            "high": {
              "value": 130,
              "code": "mg/dL",
              "system": "http://unitsofmeasure.org"
            }
          }
        ],
        "text": {
          "status": "generated",
          "div": "<div xmlns=\"http://www.w3.org/1999/xhtml\"><table class=\"hl7__eu__lab__report\"><tr><th>Test</th><th>28-Feb-2017</th><th>Reference&#xA0;Range</th><th>Unit</th></tr><tr><td>Cholesterol in LDL [Mass/volume] in Serum or Plasma by Direct assay</td><td>91.4</td><td>0 - 130</td><td></td><td>mg/dL</td></tr></table></div>"
        },
        "status": "final",
        "subject": {
          "reference": "urn:uuid:9d844530-2539-455a-b61a-96057a030c36",
          "display": "Hortense Gallet"
        },
        "effectiveDateTime": "2017-02-28T20:16:45Z",
        "specimen": {
          "reference": "urn:uuid:ac8ca5b2-b508-4643-a3fb-6bc61ea58beb"
        }
      }
    },
    {
      "fullUrl": "urn:uuid:d4953ce5-8471-4a9f-957f-fa7da555f306",
      "resource": {
        "resourceType": "Observation",
        "id": "d4953ce5-8471-4a9f-957f-fa7da555f306",
        "meta": {
          "profile": [
            "http://hl7.eu/fhir/laboratory/StructureDefinition/Observation-resultslab-eu-lab"
          ]
        },
        "performer": [
          {
            "display": "The Central European Lab"
          }
        ],
        "category": [
          {
            "coding": [
              {
                "system": "http://terminology.hl7.org/CodeSystem/observation-category",
                "code": "laboratory"
              }
            ]
          }
        ],
        "code": {
          "coding": [
            {
              "code": "2085-9",
              "system": "http://loinc.org",
              "display": "Cholesterol in HDL [Mass/volume] in Serum or Plasma"
            }
          ],
          "text": "Cholesterol in HDL [Mass/volume] in Serum or Plasma"
        },
        "valueQuantity": {
          "system": "http://unitsofmeasure.org",
          "value": 60.2,
          "unit": "mg/dL",
          "code": "mg/dL"
        },
        "referenceRange": [
          {
            "low": {
              "value": 46,
              "code": "mg/dL",
              "system": "http://unitsofmeasure.org"
            }
          },
          {
            "high": {
              "value": 82,
              "code": "mg/dL",
              "system": "http://unitsofmeasure.org"
            }
          }
        ],
        "text": {
          "status": "generated",
          "div": "<div xmlns=\"http://www.w3.org/1999/xhtml\"><table class=\"hl7__eu__lab__report\"><tr><th>Test</th><th>28-Feb-2017</th><th>Reference&#xA0;Range</th><th>Unit</th></tr><tr><td>Cholesterol in HDL [Mass/volume] in Serum or Plasma</td><td>60.2</td><td>46 - 82</td><td></td><td>mg/dL</td></tr></table></div>"
        },
        "status": "final",
        "subject": {
          "reference": "urn:uuid:9d844530-2539-455a-b61a-96057a030c36",
          "display": "Hortense Gallet"
        },
        "effectiveDateTime": "2017-02-28T20:16:45Z",
        "specimen": {
          "reference": "urn:uuid:ac8ca5b2-b508-4643-a3fb-6bc61ea58beb"
        }
      }
    },
    {
      "fullUrl": "urn:uuid:ece7a67a-3c22-45c3-ab13-35c352678ffc",
      "resource": {
        "resourceType": "Device",
        "id": "ece7a67a-3c22-45c3-ab13-35c352678ffc",
        "deviceName": [
          {
            "name": "SYNDERAI Synthetic Generator",
            "type": "manufacturer-name"
          }
        ],
        "version": [
          {
            "value": "5.0"
          }
        ],
        "text": {
          "status": "generated",
          "div": "<div xmlns=\"http://www.w3.org/1999/xhtml\">SYNDERAI Synthetic Generator v5.0</div>"
        },
        "status": "active\"",
        "distinctIdentifier": "synderai-generator-50",
        "manufacturer": "SYNDERAI Project"
      }
    },
    {
      "fullUrl": "urn:uuid:9d58444f-acea-440b-866a-c2a61b9c24a7",
      "resource": {
        "resourceType": "Provenance",
        "id": "9d58444f-acea-440b-866a-c2a61b9c24a7",
        "target": [
          {
            "reference": "Patient/9d844530-2539-455a-b61a-96057a030c36"
          },
          {
            "reference": "Bundle/00e82a7a-7f0e-4570-8cae-11c4e50ead34"
          },
          {
            "reference": "Composition/731ab7bf-147f-43ce-99d9-dfd6c218989f"
          },
          {
            "reference": "PractitionerRole/d4191e2b-b4cb-422e-bda8-432786c2483f"
          },
          {
            "reference": "Practitioner/cbe2e2dd-85fd-489c-b704-043d66e8c0e6"
          },
          {
            "reference": "PractitionerRole/31f65a4d-606a-4bcc-b7e1-6fd5428c470f"
          },
          {
            "reference": "Organization/34c030e7-367b-45a9-a298-973d3f1c2559"
          }
        ],
        "activity": {
          "text": "Synthetic Example Data Generation"
        },
        "policy": [
          "https://synderai.net/synderai-synthetic-data-policy"
        ],
        "agent": [
          {
            "type": {
              "text": "author"
            },
            "who": {
              "reference": "Device/ece7a67a-3c22-45c3-ab13-35c352678ffc"
            }
          }
        ],
        "reason": [
          {
            "text": "Interoperability Testing and Training (non-clinical use)"
          }
        ],
        "text": {
          "status": "generated",
          "div": "<div xmlns=\"http://www.w3.org/1999/xhtml\">Provenance for SYNDERAI Synthetic Example Data Resource</div>"
        },
        "recorded": "2017-02-28T21:16:45Z"
      }
    },
    {
      "fullUrl": "urn:uuid:d4191e2b-b4cb-422e-bda8-432786c2483f",
      "resource": {
        "resourceType": "PractitionerRole",
        "id": "d4191e2b-b4cb-422e-bda8-432786c2483f",
        "meta": {
          "profile": [
            "http://hl7.eu/fhir/base/StructureDefinition/practitionerRole-eu"
          ]
        },
        "text": {
          "status": "generated",
          "div": "<div xmlns=\"http://www.w3.org/1999/xhtml\">Laboratory Role Id: d4191e2b-b4cb-422e-bda8-432786c2483f</div>"
        },
        "practitioner": {
          "reference": "urn:uuid:cbe2e2dd-85fd-489c-b704-043d66e8c0e6"
        }
      }
    },
    {
      "fullUrl": "urn:uuid:cbe2e2dd-85fd-489c-b704-043d66e8c0e6",
      "resource": {
        "resourceType": "Practitioner",
        "id": "cbe2e2dd-85fd-489c-b704-043d66e8c0e6",
        "meta": {
          "profile": [
            "http://hl7.eu/fhir/base/StructureDefinition/practitioner-eu"
          ]
        },
        "identifier": [
          {
            "assigner": {
              "display": "HL7 Europe"
            },
            "system": "urn:oid:2.16.840.1.113883.2.51.999",
            "value": "86763ed7-d0a4-4064-a764-798f7c1395d5"
          }
        ],
        "name": [
          {
            "prefix": [
              "dr"
            ],
            "given": [
              "Ex"
            ],
            "family": "Ample"
          }
        ],
        "address": [
          {
            "line": [
              "Laboratoire Central Européenne",
              "Boulevard du Jardin Botanique 32"
            ],
            "postalCode": "1000",
            "city": "Brussels",
            "country": "Belgium"
          }
        ],
        "text": {
          "status": "generated",
          "div": "<div xmlns=\"http://www.w3.org/1999/xhtml\">Laboratory: Laboratoire Central Européenne, 1000 Brussels, Belgium</div>"
        }
      }
    }
  ],
  "type": "document",
  "timestamp": "2017-02-28T21:16:45Z"
}
