{
  "resourceType": "Bundle",
  "id": "0a71f7d0-01fc-457a-aabd-12f6fd6fc0c2",
  "meta": {
    "profile": [
      "http://hl7.eu/fhir/laboratory/StructureDefinition/Bundle-eu-lab"
    ]
  },
  "identifier": {
    "assigner": {
      "display": "HL7 Europe"
    },
    "system": "urn:oid:2.16.840.1.113883.2.51.999",
    "value": "e4d429a1-67f9-4919-8d47-8d68da947c61"
  },
  "entry": [
    {
      "fullUrl": "urn:uuid:ae6efa23-6d1f-4d53-8d95-373f226a22ba",
      "resource": {
        "resourceType": "Composition",
        "id": "ae6efa23-6d1f-4d53-8d95-373f226a22ba",
        "meta": {
          "profile": [
            "http://hl7.eu/fhir/laboratory/StructureDefinition/Composition-eu-lab"
          ]
        },
        "identifier": {
          "assigner": {
            "display": "HL7 Europe"
          },
          "system": "urn:oid:2.16.840.1.113883.2.51.999",
          "value": "8fbb8edb-766e-4f4e-bced-39126f6cc827"
        },
        "author": [
          {
            "reference": "urn:uuid:8bd00e96-a040-43a5-b0f9-c3642b43f3b4"
          }
        ],
        "category": [
          {
            "coding": [
              {
                "code": "26436-6",
                "system": "http://loinc.org",
                "display": "Laboratory studies (set)"
              }
            ]
          }
        ],
        "type": {
          "coding": [
            {
              "code": "11502-2",
              "system": "http://loinc.org",
              "display": "Laboratory report"
            }
          ],
          "text": "Laboratory Report"
        },
        "section": [
          {
            "code": {
              "coding": [
                {
                  "code": "26436-6",
                  "system": "http://loinc.org",
                  "display": "Laboratory studies (set)"
                }
              ],
              "text": "Laboratory studies"
            },
            "section": [
              {
                "code": {
                  "coding": [
                    {
                      "code": "$18719-5",
                      "system": "http://loinc.org",
                      "display": "Chemistry studies (set)"
                    }
                  ],
                  "text": "Chemistry"
                },
                "entry": [
                  {
                    "reference": "urn:uuid:c63085dc-3f01-4762-96d4-7cfb5cdfe1fa"
                  },
                  {
                    "reference": "urn:uuid:6b49f0f1-322b-4818-9365-d5e70df1f0c1"
                  },
                  {
                    "reference": "urn:uuid:31e5da4b-cb1a-4ba1-bd20-82744f70b783"
                  },
                  {
                    "reference": "urn:uuid:2ff9a55b-a8ff-48f7-b591-f810763d024d"
                  },
                  {
                    "reference": "urn:uuid:fd89e8ef-cd46-4fd8-9d8f-6265b05ff90a"
                  },
                  {
                    "reference": "urn:uuid:a27a4516-a61b-4f25-aab0-a76bb2060829"
                  },
                  {
                    "reference": "urn:uuid:d47566e7-2d0e-46ed-9236-61c5832d8dbb"
                  },
                  {
                    "reference": "urn:uuid:fab5ea79-db93-4889-8b71-4b504a28906e"
                  },
                  {
                    "reference": "urn:uuid:96baf255-1baf-42bf-bc5a-e79c13e4f758"
                  },
                  {
                    "reference": "urn:uuid:4541312b-f7a9-4cbe-9a2e-5f6b78e5b106"
                  },
                  {
                    "reference": "urn:uuid:fc6e5ced-3215-4aa0-af7f-22d63ea5d3e8"
                  },
                  {
                    "reference": "urn:uuid:508438af-d443-4c31-a7ed-bbc0b4a3ee6f"
                  },
                  {
                    "reference": "urn:uuid:773f9c57-76d9-4476-9abf-4358e6724ccc"
                  },
                  {
                    "reference": "urn:uuid:2ccdcad9-1012-4b42-9194-48e85cc90b89"
                  },
                  {
                    "reference": "urn:uuid:2adc80ab-279e-4540-8337-61f485ddc9b6"
                  },
                  {
                    "reference": "urn:uuid:fc06c47a-1043-4a1d-848c-98405d82502f"
                  },
                  {
                    "reference": "urn:uuid:be0a2839-f9e9-408b-ab7d-2e0322c8be0b"
                  },
                  {
                    "reference": "urn:uuid:1d539a16-750b-4675-97ee-fa12d227e8ca"
                  },
                  {
                    "reference": "urn:uuid:bb5c5cff-51f0-4a27-a43c-ba0c31c03431"
                  },
                  {
                    "reference": "urn:uuid:3325d772-27b5-416a-b952-94c1f2c4218d"
                  },
                  {
                    "reference": "urn:uuid:951be0ef-d0e8-4d14-9476-20da4c685ec5"
                  },
                  {
                    "reference": "urn:uuid:0a3ff7ba-e99a-4fec-9e7b-81ab2b472053"
                  }
                ],
                "text": {
                  "status": "generated",
                  "div": "<div xmlns=\"http://www.w3.org/1999/xhtml\"><h3>Chemistry</h3><table class=\"hl7__eu__lab__report\"><thead><tr><th>Test</th><th>14-DEC-2018</th><th>Reference&#xA0;Range</th><th>Unit</th></tr></thead><tbody><tr><td>Glucose [Mass/volume] in Serum or Plasma</td><td>93.0</td><td>70 - 140</td><td>mg/dL</td></tr><tr><td>Urea nitrogen [Mass/volume] in Serum or Plasma</td><td>19.4</td><td>7 - 20</td><td>mg/dL</td></tr><tr><td>Creatinine [Mass/volume] in Serum or Plasma</td><td><strong>2.1 H</strong></td><td>0.9 - 1.3</td><td>mg/dL</td></tr><tr><td>Calcium [Mass/volume] in Serum or Plasma</td><td>10.1</td><td>8.5 - 10.5</td><td>mg/dL</td></tr><tr><td>Sodium [Moles/volume] in Serum or Plasma</td><td>140.7</td><td>135 - 145</td><td>mmol/L</td></tr><tr><td>Potassium [Moles/volume] in Serum or Plasma</td><td>3.8</td><td>3.5 - 5.3</td><td>mmol/L</td></tr><tr><td>Chloride [Moles/volume] in Serum or Plasma</td><td><strong>110.6 H</strong></td><td>98 - 107</td><td>mmol/L</td></tr><tr><td>Carbon dioxide, total [Moles/volume] in Serum or Plasma</td><td><strong>20.2 L</strong></td><td>22 - 33</td><td>mmol/L</td></tr><tr><td>Ketones [Presence] in Urine by Test strip</td><td>Urine ketone test = ++</td><td></td><td></td></tr><tr><td>Hemoglobin A1c/Hemoglobin.total in Blood</td><td><strong>3.2 L</strong></td><td>4.3 - 6</td><td>%</td></tr><tr><td>Glucose [Mass/volume] in Blood</td><td>93.0</td><td>70 - 140</td><td>mg/dL</td></tr><tr><td>Urea nitrogen [Mass/volume] in Blood</td><td>19.4</td><td>7 - 20</td><td>mg/dL</td></tr><tr><td>Creatinine [Mass/volume] in Blood</td><td><strong>2.8 H</strong></td><td>0.9 - 1.3</td><td>mg/dL</td></tr><tr><td>Calcium [Mass/volume] in Blood</td><td>10.1</td><td>8.5 - 10.5</td><td>mg/dL</td></tr><tr><td>Sodium [Moles/volume] in Blood</td><td>140.7</td><td>135 - 145</td><td>mmol/L</td></tr><tr><td>Potassium [Moles/volume] in Blood</td><td>3.8</td><td>3.5 - 5.1</td><td>mmol/L</td></tr><tr><td>Chloride [Moles/volume] in Blood</td><td><strong>110.6 H</strong></td><td>98 - 108</td><td>mmol/L</td></tr><tr><td>Carbon dioxide, total [Moles/volume] in Blood</td><td><strong>20.2 L</strong></td><td>22 - 29</td><td>mmol/L</td></tr><tr><td>Cholesterol [Mass/volume] in Serum or Plasma</td><td>157.6</td><td>0 - 200</td><td>mg/dL</td></tr><tr><td>Triglyceride [Mass/volume] in Serum or Plasma</td><td>106.7</td><td>0 - 199</td><td>mg/dL</td></tr><tr><td>Cholesterol in LDL [Mass/volume] in Serum or Plasma by Direct assay</td><td>112.4</td><td>0 - 130</td><td>mg/dL</td></tr><tr><td>Cholesterol in HDL [Mass/volume] in Serum or Plasma</td><td><strong>23.8 L</strong></td><td>40 - 100</td><td>mg/dL</td></tr></tbody></table></div>"
                },
                "title": "Chemistry"
              },
              {
                "code": {
                  "coding": [
                    {
                      "code": "$18729-4",
                      "system": "http://loinc.org",
                      "display": "Urinalysis studies (set)"
                    }
                  ],
                  "text": "Urinalysis"
                },
                "entry": [
                  {
                    "reference": "urn:uuid:0cf48d89-c1ad-42ef-a403-e1fa0d68e2c3"
                  },
                  {
                    "reference": "urn:uuid:5a76c7b4-4eb8-4e04-8d4c-ec53f3553f82"
                  },
                  {
                    "reference": "urn:uuid:28f9e7dd-6f6a-443d-9c64-e4faad685ea6"
                  },
                  {
                    "reference": "urn:uuid:45385237-ba0f-4c26-87e9-16c1643898f6"
                  },
                  {
                    "reference": "urn:uuid:d8c899b8-82de-44a5-be7d-5e8746025323"
                  },
                  {
                    "reference": "urn:uuid:b327efa5-eccf-4663-82eb-7f086ef52129"
                  },
                  {
                    "reference": "urn:uuid:8035d49a-6e7a-4186-afb8-1da5531b355e"
                  },
                  {
                    "reference": "urn:uuid:c4d90ce4-48ad-4cce-a90b-0696d331b4fd"
                  },
                  {
                    "reference": "urn:uuid:bbc9398d-efb9-4338-8fdd-fcfcade37f44"
                  },
                  {
                    "reference": "urn:uuid:a7c9d0b0-c56e-4d98-8901-e14cd5a48ddd"
                  },
                  {
                    "reference": "urn:uuid:f3a0bf45-863a-4f68-9ad4-0bb2cc0bb1f3"
                  },
                  {
                    "reference": "urn:uuid:5fc5c81b-b893-4c51-932b-31d811999e89"
                  }
                ],
                "text": {
                  "status": "generated",
                  "div": "<div xmlns=\"http://www.w3.org/1999/xhtml\"><h3>Urinalysis</h3><table class=\"hl7__eu__lab__report\"><thead><tr><th>Test</th><th>14-DEC-2018</th><th>Reference&#xA0;Range</th><th>Unit</th></tr></thead><tbody><tr><td>Glucose [Mass/volume] in Urine by Test strip</td><td><strong>0.9 H</strong></td><td>0 - 0.8</td><td>mg/dL</td></tr><tr><td>Glucose [Presence] in Urine by Test strip</td><td>++</td><td></td><td></td></tr><tr><td>Bilirubin.total [Mass/volume] in Urine by Test strip</td><td>0.7</td><td>0 - 1.9</td><td>mg/dL</td></tr><tr><td>Bilirubin.total [Presence] in Urine by Test strip</td><td>Finding of bilirubin in urine</td><td></td><td></td></tr><tr><td>Ketones [Mass/volume] in Urine by Test strip</td><td><strong>17.2 H</strong></td><td>0 - 3</td><td>mg/dL</td></tr><tr><td>Specific gravity of Urine by Test strip</td><td><strong>1.0 L</strong></td><td>1.01 - 1.03</td><td>{nominal}</td></tr><tr><td>pH of Urine by Test strip</td><td>6.8</td><td>4.5 - 7.5</td><td>pH</td></tr><tr><td>Protein [Mass/volume] in Urine by Test strip</td><td><strong>240.6 H</strong></td><td>0 - 149</td><td>mg/dL</td></tr><tr><td>Protein [Presence] in Urine by Test strip</td><td>Urine protein test = ++</td><td></td><td></td></tr><tr><td>Nitrite [Presence] in Urine by Test strip</td><td>Urine nitrite negative</td><td></td><td></td></tr><tr><td>Hemoglobin [Presence] in Urine by Test strip</td><td>Urine blood test = negative</td><td></td><td></td></tr><tr><td>Leukocyte esterase [Presence] in Urine by Test strip</td><td>Urine leukocyte test negative</td><td></td><td></td></tr></tbody></table></div>"
                },
                "title": "Urinalysis"
              },
              {
                "code": {
                  "coding": [
                    {
                      "code": "$LP7846-1",
                      "system": "http://loinc.org",
                      "display": "Specimen information"
                    }
                  ],
                  "text": "Specimen information"
                },
                "entry": [
                  {
                    "reference": "urn:uuid:5cf123c3-eeb2-45a4-a657-760db5490392"
                  },
                  {
                    "reference": "urn:uuid:bbd55c3b-1d1b-4e8c-b618-c7336f400e64"
                  },
                  {
                    "reference": "urn:uuid:a40969a5-a7e1-41ac-b081-a7bb95a30b45"
                  },
                  {
                    "reference": "urn:uuid:e845053a-71c8-48ca-bd4e-ee05d044158d"
                  }
                ],
                "text": {
                  "status": "generated",
                  "div": "<div xmlns=\"http://www.w3.org/1999/xhtml\"><h3>Specimen information</h3><table class=\"hl7__eu__lab__report\"><thead><tr><th>Test</th><th>14-DEC-2018</th><th>Specimen</th><th></th></tr></thead><tbody><tr><td>Appearance of Urine</td><td>Cloudy urine</td><td>Urine</td><td></td></tr><tr><td>Odor of Urine</td><td>Urine smell ammoniacal</td><td>Urine</td><td></td></tr><tr><td>Clarity of Urine</td><td>Translucent</td><td>Urine</td><td></td></tr><tr><td>Color of Urine</td><td>Brown color</td><td>Urine</td><td></td></tr></tbody></table></div>"
                },
                "title": "Specimen information"
              }
            ],
            "title": "Laboratory Report"
          },
          {
            "text": {
              "status": "generated",
              "div": "<div xmlns=\"http://www.w3.org/1999/xhtml\"><h3>Annotation</h3><table class=\"hl7__eu__lab__report\"><tr><th>Conclusion and Recommendations based on this report and previous findings known to us</th></tr><tr><td>The patient shows impaired renal function (elevated creatinine), mild metabolic acidosis (low CO₂, high chloride), and significant proteinuria, glycosuria, and ketonuria, suggesting possible diabetic nephropathy or another renal pathology despite low HbA1c. Urine findings (cloudy, brown, low specific gravity) may indicate renal impairment or dehydration. HDL is low, increasing cardiovascular risk. Recommend further nephrological evaluation and assessment for underlying metabolic or renal disorders.</td></tr></table></div>"
            },
            "code": {
              "coding": [
                {
                  "system": "http://loinc.org",
                  "code": "48767-8",
                  "display": "Annotation comment"
                }
              ]
            },
            "title": "Annotation comment"
          }
        ],
        "status": "final",
        "subject": {
          "reference": "urn:uuid:a09b3ce2-140d-4403-8849-236a31822200",
          "display": "Victor Lagarde"
        },
        "date": "2018-12-14T05:48:18Z",
        "title": "Laboratory Report",
        "confidentiality": "N"
      }
    },
    {
      "fullUrl": "urn:uuid:3c5287a8-2cef-45c0-9817-118f565012bc",
      "resource": {
        "resourceType": "DiagnosticReport",
        "id": "3c5287a8-2cef-45c0-9817-118f565012bc",
        "meta": {
          "profile": [
            "http://hl7.eu/fhir/laboratory/StructureDefinition/DiagnosticReport-eu-lab"
          ]
        },
        "identifier": [
          {
            "assigner": {
              "display": "HL7 Europe"
            },
            "system": "urn:oid:2.16.840.1.113883.2.51.999",
            "value": "8a0d0cc3-3d2d-4346-9992-25714baa57de"
          }
        ],
        "extension": [
          {
            "url": "http://hl7.org/fhir/5.0/StructureDefinition/extension-DiagnosticReport.composition",
            "valueReference": {
              "reference": "urn:uuid:8fbb8edb-766e-4f4e-bced-39126f6cc827"
            }
          }
        ],
        "category": [
          {
            "coding": [
              {
                "code": "26436-6",
                "system": "http://loinc.org",
                "display": "Laboratory studies (set)"
              }
            ]
          }
        ],
        "specimen": [
          {
            "reference": "urn:uuid:808d6384-073a-4e84-b58f-73ad7b47b2a1"
          },
          {
            "reference": "urn:uuid:92c4b595-38bd-4b35-b18f-99c24a780a53"
          },
          {
            "reference": "urn:uuid:d236057c-2a8c-49e5-914f-3f4b48851689"
          }
        ],
        "result": [
          {
            "reference": "urn:uuid:c63085dc-3f01-4762-96d4-7cfb5cdfe1fa"
          },
          {
            "reference": "urn:uuid:6b49f0f1-322b-4818-9365-d5e70df1f0c1"
          },
          {
            "reference": "urn:uuid:31e5da4b-cb1a-4ba1-bd20-82744f70b783"
          },
          {
            "reference": "urn:uuid:2ff9a55b-a8ff-48f7-b591-f810763d024d"
          },
          {
            "reference": "urn:uuid:fd89e8ef-cd46-4fd8-9d8f-6265b05ff90a"
          },
          {
            "reference": "urn:uuid:a27a4516-a61b-4f25-aab0-a76bb2060829"
          },
          {
            "reference": "urn:uuid:d47566e7-2d0e-46ed-9236-61c5832d8dbb"
          },
          {
            "reference": "urn:uuid:fab5ea79-db93-4889-8b71-4b504a28906e"
          },
          {
            "reference": "urn:uuid:5cf123c3-eeb2-45a4-a657-760db5490392"
          },
          {
            "reference": "urn:uuid:bbd55c3b-1d1b-4e8c-b618-c7336f400e64"
          },
          {
            "reference": "urn:uuid:a40969a5-a7e1-41ac-b081-a7bb95a30b45"
          },
          {
            "reference": "urn:uuid:e845053a-71c8-48ca-bd4e-ee05d044158d"
          },
          {
            "reference": "urn:uuid:0cf48d89-c1ad-42ef-a403-e1fa0d68e2c3"
          },
          {
            "reference": "urn:uuid:5a76c7b4-4eb8-4e04-8d4c-ec53f3553f82"
          },
          {
            "reference": "urn:uuid:28f9e7dd-6f6a-443d-9c64-e4faad685ea6"
          },
          {
            "reference": "urn:uuid:45385237-ba0f-4c26-87e9-16c1643898f6"
          },
          {
            "reference": "urn:uuid:d8c899b8-82de-44a5-be7d-5e8746025323"
          },
          {
            "reference": "urn:uuid:96baf255-1baf-42bf-bc5a-e79c13e4f758"
          },
          {
            "reference": "urn:uuid:b327efa5-eccf-4663-82eb-7f086ef52129"
          },
          {
            "reference": "urn:uuid:8035d49a-6e7a-4186-afb8-1da5531b355e"
          },
          {
            "reference": "urn:uuid:c4d90ce4-48ad-4cce-a90b-0696d331b4fd"
          },
          {
            "reference": "urn:uuid:bbc9398d-efb9-4338-8fdd-fcfcade37f44"
          },
          {
            "reference": "urn:uuid:a7c9d0b0-c56e-4d98-8901-e14cd5a48ddd"
          },
          {
            "reference": "urn:uuid:f3a0bf45-863a-4f68-9ad4-0bb2cc0bb1f3"
          },
          {
            "reference": "urn:uuid:5fc5c81b-b893-4c51-932b-31d811999e89"
          },
          {
            "reference": "urn:uuid:4541312b-f7a9-4cbe-9a2e-5f6b78e5b106"
          },
          {
            "reference": "urn:uuid:fc6e5ced-3215-4aa0-af7f-22d63ea5d3e8"
          },
          {
            "reference": "urn:uuid:508438af-d443-4c31-a7ed-bbc0b4a3ee6f"
          },
          {
            "reference": "urn:uuid:773f9c57-76d9-4476-9abf-4358e6724ccc"
          },
          {
            "reference": "urn:uuid:2ccdcad9-1012-4b42-9194-48e85cc90b89"
          },
          {
            "reference": "urn:uuid:2adc80ab-279e-4540-8337-61f485ddc9b6"
          },
          {
            "reference": "urn:uuid:fc06c47a-1043-4a1d-848c-98405d82502f"
          },
          {
            "reference": "urn:uuid:be0a2839-f9e9-408b-ab7d-2e0322c8be0b"
          },
          {
            "reference": "urn:uuid:1d539a16-750b-4675-97ee-fa12d227e8ca"
          },
          {
            "reference": "urn:uuid:bb5c5cff-51f0-4a27-a43c-ba0c31c03431"
          },
          {
            "reference": "urn:uuid:3325d772-27b5-416a-b952-94c1f2c4218d"
          },
          {
            "reference": "urn:uuid:951be0ef-d0e8-4d14-9476-20da4c685ec5"
          },
          {
            "reference": "urn:uuid:0a3ff7ba-e99a-4fec-9e7b-81ab2b472053"
          }
        ],
        "status": "registered",
        "code": {
          "coding": [
            {
              "code": "11502-2",
              "system": "http://loinc.org",
              "display": "Laboratory report"
            }
          ]
        },
        "subject": {
          "reference": "urn:uuid:a09b3ce2-140d-4403-8849-236a31822200",
          "display": "Victor Lagarde"
        }
      }
    },
    {
      "fullUrl": "urn:uuid:a09b3ce2-140d-4403-8849-236a31822200",
      "resource": {
        "resourceType": "Patient",
        "id": "a09b3ce2-140d-4403-8849-236a31822200",
        "meta": {
          "security": [
            {
              "system": "http://terminology.hl7.org/CodeSystem/v3-ActReason",
              "code": "HTEST"
            },
            {
              "system": "http://terminology.hl7.org/CodeSystem/v3-ActReason",
              "code": "TRAIN"
            }
          ],
          "tag": [
            {
              "system": "https://synderai.net/fhir/CodeSystem/tags",
              "code": "synthetic",
              "display": "SYNDERAI Synthetic data"
            }
          ],
          "profile": [
            "http://hl7.eu/fhir/base/StructureDefinition/patient-eu-core"
          ]
        },
        "identifier": [
          {
            "type": {
              "coding": [
                {
                  "code": "PT",
                  "system": "http://terminology.hl7.org/CodeSystem/v2-0203"
                }
              ]
            },
            "system": "http://ec.europa.eu/identifier/eci",
            "value": "9925-001801-9"
          },
          {
            "type": {
              "coding": [
                {
                  "code": "MR",
                  "system": "http://terminology.hl7.org/CodeSystem/v2-0203"
                }
              ]
            },
            "system": "http://local.setting.eu/identifier",
            "value": "22c2dfd0-ac57-8833-2532-848f180896a4"
          }
        ],
        "name": [
          {
            "family": "Lagarde"
          },
          {
            "given": [
              "Victor"
            ]
          },
          {
            "text": "Victor Lagarde"
          }
        ],
        "address": [
          {
            "line": [
              "avenue Robert"
            ],
            "use": "home",
            "type": "physical",
            "postalCode": "80300",
            "city": "Albert",
            "country": "France"
          }
        ],
        "telecom": [
          {
            "system": "phone",
            "value": "0177941801"
          }
        ],
        "extension": [
          {
            "url": "http://hl7.org/fhir/StructureDefinition/patient-nationality",
            "valueCodeableConcept": {
              "coding": [
                {
                  "code": "FR",
                  "system": "http://hl7.org/fhir/ValueSet/country"
                }
              ]
            }
          }
        ],
        "text": {
          "status": "generated",
          "div": "<div xmlns=\"http://www.w3.org/1999/xhtml\"><table class=\"hl7__ips\"><tr><td>Victor Lagarde</td><td>male</td><td>31-Aug-1939</td></tr></table></div>"
        },
        "gender": "male",
        "birthDate": "1939-08-31"
      }
    },
    {
      "fullUrl": "urn:uuid:746aa2a9-8fc8-4f2e-80e0-5d02d6176593",
      "resource": {
        "resourceType": "ServiceRequest",
        "id": "746aa2a9-8fc8-4f2e-80e0-5d02d6176593",
        "meta": {
          "profile": [
            "http://hl7.eu/fhir/laboratory/StructureDefinition/ServiceRequest-eu-lab"
          ]
        },
        "identifier": [
          {
            "system": "http://example.org",
            "value": "13ffbb89-bd75-46ca-8c47-cd9beb33996f"
          }
        ],
        "specimen": [
          {
            "reference": "urn:uuid:808d6384-073a-4e84-b58f-73ad7b47b2a1"
          },
          {
            "reference": "urn:uuid:92c4b595-38bd-4b35-b18f-99c24a780a53"
          },
          {
            "reference": "urn:uuid:d236057c-2a8c-49e5-914f-3f4b48851689"
          }
        ],
        "reasonCode": [
          {
            "coding": [
              {
                "code": "433144002",
                "system": "http://snomed.info/sct",
                "display": "Chronic kidney disease stage 3"
              }
            ]
          },
          {
            "coding": [
              {
                "code": "157141000119108",
                "system": "http://snomed.info/sct",
                "display": "Proteinuria due to type 2 diabetes mellitus"
              }
            ]
          },
          {
            "coding": [
              {
                "code": "431856006",
                "system": "http://snomed.info/sct",
                "display": "Chronic kidney disease stage 2"
              }
            ]
          },
          {
            "coding": [
              {
                "code": "90781000119102",
                "system": "http://snomed.info/sct",
                "display": "Microalbuminuria due to type 2 diabetes mellitus"
              }
            ]
          },
          {
            "coding": [
              {
                "code": "127013003",
                "system": "http://snomed.info/sct",
                "display": "Disorder of kidney due to diabetes mellitus"
              }
            ]
          },
          {
            "coding": [
              {
                "code": "431855005",
                "system": "http://snomed.info/sct",
                "display": "Chronic kidney disease stage 1"
              }
            ]
          },
          {
            "coding": [
              {
                "code": "55822004",
                "system": "http://snomed.info/sct",
                "display": "Hyperlipidemia"
              }
            ]
          },
          {
            "coding": [
              {
                "code": "59621000",
                "system": "http://snomed.info/sct",
                "display": "Essential hypertension"
              }
            ]
          },
          {
            "coding": [
              {
                "code": "237602007",
                "system": "http://snomed.info/sct",
                "display": "Metabolic syndrome X"
              }
            ]
          },
          {
            "coding": [
              {
                "code": "414545008",
                "system": "http://snomed.info/sct",
                "display": "Ischemic heart disease"
              }
            ]
          },
          {
            "coding": [
              {
                "code": "40055000",
                "system": "http://snomed.info/sct",
                "display": "Chronic sinusitis"
              }
            ]
          },
          {
            "coding": [
              {
                "code": "15777000",
                "system": "http://snomed.info/sct",
                "display": "Prediabetes"
              }
            ]
          },
          {
            "coding": [
              {
                "code": "271737000",
                "system": "http://snomed.info/sct",
                "display": "Anemia"
              }
            ]
          }
        ],
        "status": "active",
        "intent": "order",
        "code": {
          "coding": [
            {
              "code": "108252007",
              "system": "http://snomed.info/sct",
              "display": "Laboratory procedure"
            }
          ]
        },
        "subject": {
          "reference": "urn:uuid:a09b3ce2-140d-4403-8849-236a31822200",
          "display": "Victor Lagarde"
        },
        "requester": {
          "reference": "urn:uuid:c97a84ac-fd39-4dd6-bb08-5258171e02ff"
        }
      }
    },
    {
      "fullUrl": "urn:uuid:c97a84ac-fd39-4dd6-bb08-5258171e02ff",
      "resource": {
        "resourceType": "PractitionerRole",
        "id": "c97a84ac-fd39-4dd6-bb08-5258171e02ff",
        "meta": {
          "profile": [
            "http://hl7.eu/fhir/base/StructureDefinition/practitionerRole-eu"
          ]
        },
        "text": {
          "status": "generated",
          "div": "<div xmlns=\"http://www.w3.org/1999/xhtml\">Provider Role Id: c97a84ac-fd39-4dd6-bb08-5258171e02ff</div>"
        },
        "organization": {
          "reference": "urn:uuid:de5178a4-5caa-4e5a-b1e2-91384b8375c4"
        }
      }
    },
    {
      "fullUrl": "urn:uuid:de5178a4-5caa-4e5a-b1e2-91384b8375c4",
      "resource": {
        "resourceType": "Organization",
        "id": "de5178a4-5caa-4e5a-b1e2-91384b8375c4",
        "meta": {
          "profile": [
            "http://hl7.eu/fhir/base/StructureDefinition/organization-eu"
          ]
        },
        "identifier": [
          {
            "assigner": {
              "display": "HL7 Europe"
            },
            "system": "urn:oid:2.16.840.1.113883.2.51.999",
            "value": "946448fa-045f-42cb-8fab-ce844da96732"
          }
        ],
        "address": [
          {
            "city": "Auxerre",
            "postalCode": "89000",
            "country": "France"
          }
        ],
        "text": {
          "status": "generated",
          "div": "<div xmlns=\"http://www.w3.org/1999/xhtml\">Provider Organization: Thiriot Didier (Cardiologie)</div>"
        },
        "name": "Thiriot Didier (Cardiologie)"
      }
    },
    {
      "fullUrl": "urn:uuid:808d6384-073a-4e84-b58f-73ad7b47b2a1",
      "resource": {
        "resourceType": "Specimen",
        "id": "808d6384-073a-4e84-b58f-73ad7b47b2a1",
        "meta": {
          "profile": [
            "http://hl7.eu/fhir/laboratory/StructureDefinition/Specimen-eu-lab"
          ]
        },
        "collection": {
          "collectedDateTime": "2018-12-14"
        },
        "text": {
          "status": "generated",
          "div": "<div xmlns=\"http://www.w3.org/1999/xhtml\"><table class=\"hl7__eu__lab__report\"><tr><th>Specimen</th><th>Collection Date</th></tr><tr><td>Acellular blood (serum or plasma) specimen</td><td><span class=\"nb\">14-Dec-2018</span></td></tr></table></div>"
        },
        "type": {
          "coding": [
            {
              "code": "122592007",
              "system": "http://snomed.info/sct",
              "display": "Acellular blood (serum or plasma) specimen"
            }
          ]
        }
      }
    },
    {
      "fullUrl": "urn:uuid:92c4b595-38bd-4b35-b18f-99c24a780a53",
      "resource": {
        "resourceType": "Specimen",
        "id": "92c4b595-38bd-4b35-b18f-99c24a780a53",
        "meta": {
          "profile": [
            "http://hl7.eu/fhir/laboratory/StructureDefinition/Specimen-eu-lab"
          ]
        },
        "collection": {
          "collectedDateTime": "2018-12-14"
        },
        "text": {
          "status": "generated",
          "div": "<div xmlns=\"http://www.w3.org/1999/xhtml\"><table class=\"hl7__eu__lab__report\"><tr><th>Specimen</th><th>Collection Date</th></tr><tr><td>Urine specimen</td><td><span class=\"nb\">14-Dec-2018</span></td></tr></table></div>"
        },
        "type": {
          "coding": [
            {
              "code": "122575003",
              "system": "http://snomed.info/sct",
              "display": "Urine specimen"
            }
          ]
        }
      }
    },
    {
      "fullUrl": "urn:uuid:d236057c-2a8c-49e5-914f-3f4b48851689",
      "resource": {
        "resourceType": "Specimen",
        "id": "d236057c-2a8c-49e5-914f-3f4b48851689",
        "meta": {
          "profile": [
            "http://hl7.eu/fhir/laboratory/StructureDefinition/Specimen-eu-lab"
          ]
        },
        "collection": {
          "collectedDateTime": "2018-12-14"
        },
        "text": {
          "status": "generated",
          "div": "<div xmlns=\"http://www.w3.org/1999/xhtml\"><table class=\"hl7__eu__lab__report\"><tr><th>Specimen</th><th>Collection Date</th></tr><tr><td>Whole blood specimen (specimen)</td><td><span class=\"nb\">14-Dec-2018</span></td></tr></table></div>"
        },
        "type": {
          "coding": [
            {
              "code": "258580003",
              "system": "http://snomed.info/sct",
              "display": "Whole blood specimen (specimen)"
            }
          ]
        }
      }
    },
    {
      "fullUrl": "urn:uuid:c63085dc-3f01-4762-96d4-7cfb5cdfe1fa",
      "resource": {
        "resourceType": "Observation",
        "id": "c63085dc-3f01-4762-96d4-7cfb5cdfe1fa",
        "meta": {
          "profile": [
            "http://hl7.eu/fhir/laboratory/StructureDefinition/Observation-resultslab-eu-lab"
          ]
        },
        "performer": [
          {
            "display": "The Central European Lab"
          }
        ],
        "category": [
          {
            "coding": [
              {
                "system": "http://terminology.hl7.org/CodeSystem/observation-category",
                "code": "laboratory"
              }
            ]
          }
        ],
        "code": {
          "coding": [
            {
              "code": "2345-7",
              "system": "http://loinc.org",
              "display": "Glucose [Mass/volume] in Serum or Plasma"
            }
          ],
          "text": "Glucose [Mass/volume] in Serum or Plasma"
        },
        "valueQuantity": {
          "system": "http://unitsofmeasure.org",
          "value": 93,
          "unit": "mg/dL",
          "code": "mg/dL"
        },
        "referenceRange": [
          {
            "low": {
              "value": 70,
              "code": "mg/dL",
              "system": "http://unitsofmeasure.org"
            }
          },
          {
            "high": {
              "value": 140,
              "code": "mg/dL",
              "system": "http://unitsofmeasure.org"
            }
          }
        ],
        "text": {
          "status": "generated",
          "div": "<div xmlns=\"http://www.w3.org/1999/xhtml\"><table class=\"hl7__eu__lab__report\"><tr><th>Test</th><th>14-Dec-2018</th><th>Reference&#xA0;Range</th><th>Unit</th></tr><tr><td>Glucose [Mass/volume] in Serum or Plasma</td><td>93.0</td><td>70 - 140</td><td></td><td>mg/dL</td></tr></table></div>"
        },
        "status": "final",
        "subject": {
          "reference": "urn:uuid:a09b3ce2-140d-4403-8849-236a31822200",
          "display": "Victor Lagarde"
        },
        "effectiveDateTime": "2018-12-14T04:48:18Z",
        "specimen": {
          "reference": "urn:uuid:808d6384-073a-4e84-b58f-73ad7b47b2a1"
        }
      }
    },
    {
      "fullUrl": "urn:uuid:6b49f0f1-322b-4818-9365-d5e70df1f0c1",
      "resource": {
        "resourceType": "Observation",
        "id": "6b49f0f1-322b-4818-9365-d5e70df1f0c1",
        "meta": {
          "profile": [
            "http://hl7.eu/fhir/laboratory/StructureDefinition/Observation-resultslab-eu-lab"
          ]
        },
        "performer": [
          {
            "display": "The Central European Lab"
          }
        ],
        "category": [
          {
            "coding": [
              {
                "system": "http://terminology.hl7.org/CodeSystem/observation-category",
                "code": "laboratory"
              }
            ]
          }
        ],
        "code": {
          "coding": [
            {
              "code": "3094-0",
              "system": "http://loinc.org",
              "display": "Urea nitrogen [Mass/volume] in Serum or Plasma"
            }
          ],
          "text": "Urea nitrogen [Mass/volume] in Serum or Plasma"
        },
        "valueQuantity": {
          "system": "http://unitsofmeasure.org",
          "value": 19.4,
          "unit": "mg/dL",
          "code": "mg/dL"
        },
        "referenceRange": [
          {
            "low": {
              "value": 7,
              "code": "mg/dL",
              "system": "http://unitsofmeasure.org"
            }
          },
          {
            "high": {
              "value": 20,
              "code": "mg/dL",
              "system": "http://unitsofmeasure.org"
            }
          }
        ],
        "text": {
          "status": "generated",
          "div": "<div xmlns=\"http://www.w3.org/1999/xhtml\"><table class=\"hl7__eu__lab__report\"><tr><th>Test</th><th>14-Dec-2018</th><th>Reference&#xA0;Range</th><th>Unit</th></tr><tr><td>Urea nitrogen [Mass/volume] in Serum or Plasma</td><td>19.4</td><td>7 - 20</td><td></td><td>mg/dL</td></tr></table></div>"
        },
        "status": "final",
        "subject": {
          "reference": "urn:uuid:a09b3ce2-140d-4403-8849-236a31822200",
          "display": "Victor Lagarde"
        },
        "effectiveDateTime": "2018-12-14T04:48:18Z",
        "specimen": {
          "reference": "urn:uuid:808d6384-073a-4e84-b58f-73ad7b47b2a1"
        }
      }
    },
    {
      "fullUrl": "urn:uuid:31e5da4b-cb1a-4ba1-bd20-82744f70b783",
      "resource": {
        "resourceType": "Observation",
        "id": "31e5da4b-cb1a-4ba1-bd20-82744f70b783",
        "meta": {
          "profile": [
            "http://hl7.eu/fhir/laboratory/StructureDefinition/Observation-resultslab-eu-lab"
          ]
        },
        "performer": [
          {
            "display": "The Central European Lab"
          }
        ],
        "category": [
          {
            "coding": [
              {
                "system": "http://terminology.hl7.org/CodeSystem/observation-category",
                "code": "laboratory"
              }
            ]
          }
        ],
        "code": {
          "coding": [
            {
              "code": "2160-0",
              "system": "http://loinc.org",
              "display": "Creatinine [Mass/volume] in Serum or Plasma"
            }
          ],
          "text": "Creatinine [Mass/volume] in Serum or Plasma"
        },
        "valueQuantity": {
          "system": "http://unitsofmeasure.org",
          "value": 2.1,
          "unit": "mg/dL",
          "code": "mg/dL"
        },
        "referenceRange": [
          {
            "low": {
              "value": 0.9,
              "code": "mg/dL",
              "system": "http://unitsofmeasure.org"
            }
          },
          {
            "high": {
              "value": 1.3,
              "code": "mg/dL",
              "system": "http://unitsofmeasure.org"
            }
          }
        ],
        "interpretation": [
          {
            "coding": [
              {
                "code": "H",
                "system": "http://terminology.hl7.org/CodeSystem/v3-ObservationInterpretation",
                "display": "High"
              }
            ]
          }
        ],
        "text": {
          "status": "generated",
          "div": "<div xmlns=\"http://www.w3.org/1999/xhtml\"><table class=\"hl7__eu__lab__report\"><tr><th>Test</th><th>14-Dec-2018</th><th>Reference&#xA0;Range</th><th>Unit</th></tr><tr><td>Creatinine [Mass/volume] in Serum or Plasma</td><td>2.1</td><td>0.9 - 1.3</td><td>H</td><td>mg/dL</td></tr></table></div>"
        },
        "status": "final",
        "subject": {
          "reference": "urn:uuid:a09b3ce2-140d-4403-8849-236a31822200",
          "display": "Victor Lagarde"
        },
        "effectiveDateTime": "2018-12-14T04:48:18Z",
        "specimen": {
          "reference": "urn:uuid:808d6384-073a-4e84-b58f-73ad7b47b2a1"
        }
      }
    },
    {
      "fullUrl": "urn:uuid:2ff9a55b-a8ff-48f7-b591-f810763d024d",
      "resource": {
        "resourceType": "Observation",
        "id": "2ff9a55b-a8ff-48f7-b591-f810763d024d",
        "meta": {
          "profile": [
            "http://hl7.eu/fhir/laboratory/StructureDefinition/Observation-resultslab-eu-lab"
          ]
        },
        "performer": [
          {
            "display": "The Central European Lab"
          }
        ],
        "category": [
          {
            "coding": [
              {
                "system": "http://terminology.hl7.org/CodeSystem/observation-category",
                "code": "laboratory"
              }
            ]
          }
        ],
        "code": {
          "coding": [
            {
              "code": "17861-6",
              "system": "http://loinc.org",
              "display": "Calcium [Mass/volume] in Serum or Plasma"
            }
          ],
          "text": "Calcium [Mass/volume] in Serum or Plasma"
        },
        "valueQuantity": {
          "system": "http://unitsofmeasure.org",
          "value": 10.1,
          "unit": "mg/dL",
          "code": "mg/dL"
        },
        "referenceRange": [
          {
            "low": {
              "value": 8.5,
              "code": "mg/dL",
              "system": "http://unitsofmeasure.org"
            }
          },
          {
            "high": {
              "value": 10.5,
              "code": "mg/dL",
              "system": "http://unitsofmeasure.org"
            }
          }
        ],
        "text": {
          "status": "generated",
          "div": "<div xmlns=\"http://www.w3.org/1999/xhtml\"><table class=\"hl7__eu__lab__report\"><tr><th>Test</th><th>14-Dec-2018</th><th>Reference&#xA0;Range</th><th>Unit</th></tr><tr><td>Calcium [Mass/volume] in Serum or Plasma</td><td>10.1</td><td>8.5 - 10.5</td><td></td><td>mg/dL</td></tr></table></div>"
        },
        "status": "final",
        "subject": {
          "reference": "urn:uuid:a09b3ce2-140d-4403-8849-236a31822200",
          "display": "Victor Lagarde"
        },
        "effectiveDateTime": "2018-12-14T04:48:18Z",
        "specimen": {
          "reference": "urn:uuid:808d6384-073a-4e84-b58f-73ad7b47b2a1"
        }
      }
    },
    {
      "fullUrl": "urn:uuid:fd89e8ef-cd46-4fd8-9d8f-6265b05ff90a",
      "resource": {
        "resourceType": "Observation",
        "id": "fd89e8ef-cd46-4fd8-9d8f-6265b05ff90a",
        "meta": {
          "profile": [
            "http://hl7.eu/fhir/laboratory/StructureDefinition/Observation-resultslab-eu-lab"
          ]
        },
        "performer": [
          {
            "display": "The Central European Lab"
          }
        ],
        "category": [
          {
            "coding": [
              {
                "system": "http://terminology.hl7.org/CodeSystem/observation-category",
                "code": "laboratory"
              }
            ]
          }
        ],
        "code": {
          "coding": [
            {
              "code": "2951-2",
              "system": "http://loinc.org",
              "display": "Sodium [Moles/volume] in Serum or Plasma"
            }
          ],
          "text": "Sodium [Moles/volume] in Serum or Plasma"
        },
        "valueQuantity": {
          "system": "http://unitsofmeasure.org",
          "value": 140.7,
          "unit": "mmol/L",
          "code": "mmol/L"
        },
        "referenceRange": [
          {
            "low": {
              "value": 135,
              "code": "mmol/L",
              "system": "http://unitsofmeasure.org"
            }
          },
          {
            "high": {
              "value": 145,
              "code": "mmol/L",
              "system": "http://unitsofmeasure.org"
            }
          }
        ],
        "text": {
          "status": "generated",
          "div": "<div xmlns=\"http://www.w3.org/1999/xhtml\"><table class=\"hl7__eu__lab__report\"><tr><th>Test</th><th>14-Dec-2018</th><th>Reference&#xA0;Range</th><th>Unit</th></tr><tr><td>Sodium [Moles/volume] in Serum or Plasma</td><td>140.7</td><td>135 - 145</td><td></td><td>mmol/L</td></tr></table></div>"
        },
        "status": "final",
        "subject": {
          "reference": "urn:uuid:a09b3ce2-140d-4403-8849-236a31822200",
          "display": "Victor Lagarde"
        },
        "effectiveDateTime": "2018-12-14T04:48:18Z",
        "specimen": {
          "reference": "urn:uuid:808d6384-073a-4e84-b58f-73ad7b47b2a1"
        }
      }
    },
    {
      "fullUrl": "urn:uuid:a27a4516-a61b-4f25-aab0-a76bb2060829",
      "resource": {
        "resourceType": "Observation",
        "id": "a27a4516-a61b-4f25-aab0-a76bb2060829",
        "meta": {
          "profile": [
            "http://hl7.eu/fhir/laboratory/StructureDefinition/Observation-resultslab-eu-lab"
          ]
        },
        "performer": [
          {
            "display": "The Central European Lab"
          }
        ],
        "category": [
          {
            "coding": [
              {
                "system": "http://terminology.hl7.org/CodeSystem/observation-category",
                "code": "laboratory"
              }
            ]
          }
        ],
        "code": {
          "coding": [
            {
              "code": "2823-3",
              "system": "http://loinc.org",
              "display": "Potassium [Moles/volume] in Serum or Plasma"
            }
          ],
          "text": "Potassium [Moles/volume] in Serum or Plasma"
        },
        "valueQuantity": {
          "system": "http://unitsofmeasure.org",
          "value": 3.8,
          "unit": "mmol/L",
          "code": "mmol/L"
        },
        "referenceRange": [
          {
            "low": {
              "value": 3.5,
              "code": "mmol/L",
              "system": "http://unitsofmeasure.org"
            }
          },
          {
            "high": {
              "value": 5.3,
              "code": "mmol/L",
              "system": "http://unitsofmeasure.org"
            }
          }
        ],
        "text": {
          "status": "generated",
          "div": "<div xmlns=\"http://www.w3.org/1999/xhtml\"><table class=\"hl7__eu__lab__report\"><tr><th>Test</th><th>14-Dec-2018</th><th>Reference&#xA0;Range</th><th>Unit</th></tr><tr><td>Potassium [Moles/volume] in Serum or Plasma</td><td>3.8</td><td>3.5 - 5.3</td><td></td><td>mmol/L</td></tr></table></div>"
        },
        "status": "final",
        "subject": {
          "reference": "urn:uuid:a09b3ce2-140d-4403-8849-236a31822200",
          "display": "Victor Lagarde"
        },
        "effectiveDateTime": "2018-12-14T04:48:18Z",
        "specimen": {
          "reference": "urn:uuid:808d6384-073a-4e84-b58f-73ad7b47b2a1"
        }
      }
    },
    {
      "fullUrl": "urn:uuid:d47566e7-2d0e-46ed-9236-61c5832d8dbb",
      "resource": {
        "resourceType": "Observation",
        "id": "d47566e7-2d0e-46ed-9236-61c5832d8dbb",
        "meta": {
          "profile": [
            "http://hl7.eu/fhir/laboratory/StructureDefinition/Observation-resultslab-eu-lab"
          ]
        },
        "performer": [
          {
            "display": "The Central European Lab"
          }
        ],
        "category": [
          {
            "coding": [
              {
                "system": "http://terminology.hl7.org/CodeSystem/observation-category",
                "code": "laboratory"
              }
            ]
          }
        ],
        "code": {
          "coding": [
            {
              "code": "2075-0",
              "system": "http://loinc.org",
              "display": "Chloride [Moles/volume] in Serum or Plasma"
            }
          ],
          "text": "Chloride [Moles/volume] in Serum or Plasma"
        },
        "valueQuantity": {
          "system": "http://unitsofmeasure.org",
          "value": 110.6,
          "unit": "mmol/L",
          "code": "mmol/L"
        },
        "referenceRange": [
          {
            "low": {
              "value": 98,
              "code": "mmol/L",
              "system": "http://unitsofmeasure.org"
            }
          },
          {
            "high": {
              "value": 107,
              "code": "mmol/L",
              "system": "http://unitsofmeasure.org"
            }
          }
        ],
        "interpretation": [
          {
            "coding": [
              {
                "code": "H",
                "system": "http://terminology.hl7.org/CodeSystem/v3-ObservationInterpretation",
                "display": "High"
              }
            ]
          }
        ],
        "text": {
          "status": "generated",
          "div": "<div xmlns=\"http://www.w3.org/1999/xhtml\"><table class=\"hl7__eu__lab__report\"><tr><th>Test</th><th>14-Dec-2018</th><th>Reference&#xA0;Range</th><th>Unit</th></tr><tr><td>Chloride [Moles/volume] in Serum or Plasma</td><td>110.6</td><td>98 - 107</td><td>H</td><td>mmol/L</td></tr></table></div>"
        },
        "status": "final",
        "subject": {
          "reference": "urn:uuid:a09b3ce2-140d-4403-8849-236a31822200",
          "display": "Victor Lagarde"
        },
        "effectiveDateTime": "2018-12-14T04:48:18Z",
        "specimen": {
          "reference": "urn:uuid:808d6384-073a-4e84-b58f-73ad7b47b2a1"
        }
      }
    },
    {
      "fullUrl": "urn:uuid:fab5ea79-db93-4889-8b71-4b504a28906e",
      "resource": {
        "resourceType": "Observation",
        "id": "fab5ea79-db93-4889-8b71-4b504a28906e",
        "meta": {
          "profile": [
            "http://hl7.eu/fhir/laboratory/StructureDefinition/Observation-resultslab-eu-lab"
          ]
        },
        "performer": [
          {
            "display": "The Central European Lab"
          }
        ],
        "category": [
          {
            "coding": [
              {
                "system": "http://terminology.hl7.org/CodeSystem/observation-category",
                "code": "laboratory"
              }
            ]
          }
        ],
        "code": {
          "coding": [
            {
              "code": "2028-9",
              "system": "http://loinc.org",
              "display": "Carbon dioxide, total [Moles/volume] in Serum or Plasma"
            }
          ],
          "text": "Carbon dioxide, total [Moles/volume] in Serum or Plasma"
        },
        "valueQuantity": {
          "system": "http://unitsofmeasure.org",
          "value": 20.2,
          "unit": "mmol/L",
          "code": "mmol/L"
        },
        "referenceRange": [
          {
            "low": {
              "value": 22,
              "code": "mmol/L",
              "system": "http://unitsofmeasure.org"
            }
          },
          {
            "high": {
              "value": 33,
              "code": "mmol/L",
              "system": "http://unitsofmeasure.org"
            }
          }
        ],
        "interpretation": [
          {
            "coding": [
              {
                "code": "L",
                "system": "http://terminology.hl7.org/CodeSystem/v3-ObservationInterpretation",
                "display": "Low"
              }
            ]
          }
        ],
        "text": {
          "status": "generated",
          "div": "<div xmlns=\"http://www.w3.org/1999/xhtml\"><table class=\"hl7__eu__lab__report\"><tr><th>Test</th><th>14-Dec-2018</th><th>Reference&#xA0;Range</th><th>Unit</th></tr><tr><td>Carbon dioxide, total [Moles/volume] in Serum or Plasma</td><td>20.2</td><td>22 - 33</td><td>L</td><td>mmol/L</td></tr></table></div>"
        },
        "status": "final",
        "subject": {
          "reference": "urn:uuid:a09b3ce2-140d-4403-8849-236a31822200",
          "display": "Victor Lagarde"
        },
        "effectiveDateTime": "2018-12-14T04:48:18Z",
        "specimen": {
          "reference": "urn:uuid:808d6384-073a-4e84-b58f-73ad7b47b2a1"
        }
      }
    },
    {
      "fullUrl": "urn:uuid:5cf123c3-eeb2-45a4-a657-760db5490392",
      "resource": {
        "resourceType": "Observation",
        "id": "5cf123c3-eeb2-45a4-a657-760db5490392",
        "meta": {
          "profile": [
            "http://hl7.eu/fhir/laboratory/StructureDefinition/Observation-resultslab-eu-lab"
          ]
        },
        "performer": [
          {
            "display": "The Central European Lab"
          }
        ],
        "category": [
          {
            "coding": [
              {
                "system": "http://terminology.hl7.org/CodeSystem/observation-category",
                "code": "laboratory"
              }
            ]
          }
        ],
        "code": {
          "coding": [
            {
              "code": "5767-9",
              "system": "http://loinc.org",
              "display": "Appearance of Urine"
            }
          ],
          "text": "Appearance of Urine"
        },
        "text": {
          "status": "generated",
          "div": "<div xmlns=\"http://www.w3.org/1999/xhtml\"><table class=\"hl7__eu__lab__report\"><tr><th>Test</th><th>14-Dec-2018</th><th>Reference&#xA0;Range</th><th>Unit</th></tr><tr><td>Appearance of Urine</td></tr></table></div>"
        },
        "status": "final",
        "subject": {
          "reference": "urn:uuid:a09b3ce2-140d-4403-8849-236a31822200",
          "display": "Victor Lagarde"
        },
        "effectiveDateTime": "2018-12-14T04:48:18Z",
        "specimen": {
          "reference": "urn:uuid:92c4b595-38bd-4b35-b18f-99c24a780a53"
        }
      }
    },
    {
      "fullUrl": "urn:uuid:bbd55c3b-1d1b-4e8c-b618-c7336f400e64",
      "resource": {
        "resourceType": "Observation",
        "id": "bbd55c3b-1d1b-4e8c-b618-c7336f400e64",
        "meta": {
          "profile": [
            "http://hl7.eu/fhir/laboratory/StructureDefinition/Observation-resultslab-eu-lab"
          ]
        },
        "performer": [
          {
            "display": "The Central European Lab"
          }
        ],
        "category": [
          {
            "coding": [
              {
                "system": "http://terminology.hl7.org/CodeSystem/observation-category",
                "code": "laboratory"
              }
            ]
          }
        ],
        "code": {
          "coding": [
            {
              "code": "34533-0",
              "system": "http://loinc.org",
              "display": "Odor of Urine"
            }
          ],
          "text": "Odor of Urine"
        },
        "text": {
          "status": "generated",
          "div": "<div xmlns=\"http://www.w3.org/1999/xhtml\"><table class=\"hl7__eu__lab__report\"><tr><th>Test</th><th>14-Dec-2018</th><th>Reference&#xA0;Range</th><th>Unit</th></tr><tr><td>Odor of Urine</td></tr></table></div>"
        },
        "status": "final",
        "subject": {
          "reference": "urn:uuid:a09b3ce2-140d-4403-8849-236a31822200",
          "display": "Victor Lagarde"
        },
        "effectiveDateTime": "2018-12-14T04:48:18Z",
        "specimen": {
          "reference": "urn:uuid:92c4b595-38bd-4b35-b18f-99c24a780a53"
        }
      }
    },
    {
      "fullUrl": "urn:uuid:a40969a5-a7e1-41ac-b081-a7bb95a30b45",
      "resource": {
        "resourceType": "Observation",
        "id": "a40969a5-a7e1-41ac-b081-a7bb95a30b45",
        "meta": {
          "profile": [
            "http://hl7.eu/fhir/laboratory/StructureDefinition/Observation-resultslab-eu-lab"
          ]
        },
        "performer": [
          {
            "display": "The Central European Lab"
          }
        ],
        "category": [
          {
            "coding": [
              {
                "system": "http://terminology.hl7.org/CodeSystem/observation-category",
                "code": "laboratory"
              }
            ]
          }
        ],
        "code": {
          "coding": [
            {
              "code": "32167-9",
              "system": "http://loinc.org",
              "display": "Clarity of Urine"
            }
          ],
          "text": "Clarity of Urine"
        },
        "text": {
          "status": "generated",
          "div": "<div xmlns=\"http://www.w3.org/1999/xhtml\"><table class=\"hl7__eu__lab__report\"><tr><th>Test</th><th>14-Dec-2018</th><th>Reference&#xA0;Range</th><th>Unit</th></tr><tr><td>Clarity of Urine</td></tr></table></div>"
        },
        "status": "final",
        "subject": {
          "reference": "urn:uuid:a09b3ce2-140d-4403-8849-236a31822200",
          "display": "Victor Lagarde"
        },
        "effectiveDateTime": "2018-12-14T04:48:18Z",
        "specimen": {
          "reference": "urn:uuid:92c4b595-38bd-4b35-b18f-99c24a780a53"
        }
      }
    },
    {
      "fullUrl": "urn:uuid:e845053a-71c8-48ca-bd4e-ee05d044158d",
      "resource": {
        "resourceType": "Observation",
        "id": "e845053a-71c8-48ca-bd4e-ee05d044158d",
        "meta": {
          "profile": [
            "http://hl7.eu/fhir/laboratory/StructureDefinition/Observation-resultslab-eu-lab"
          ]
        },
        "performer": [
          {
            "display": "The Central European Lab"
          }
        ],
        "category": [
          {
            "coding": [
              {
                "system": "http://terminology.hl7.org/CodeSystem/observation-category",
                "code": "laboratory"
              }
            ]
          }
        ],
        "code": {
          "coding": [
            {
              "code": "5778-6",
              "system": "http://loinc.org",
              "display": "Color of Urine"
            }
          ],
          "text": "Color of Urine"
        },
        "text": {
          "status": "generated",
          "div": "<div xmlns=\"http://www.w3.org/1999/xhtml\"><table class=\"hl7__eu__lab__report\"><tr><th>Test</th><th>14-Dec-2018</th><th>Reference&#xA0;Range</th><th>Unit</th></tr><tr><td>Color of Urine</td></tr></table></div>"
        },
        "status": "final",
        "subject": {
          "reference": "urn:uuid:a09b3ce2-140d-4403-8849-236a31822200",
          "display": "Victor Lagarde"
        },
        "effectiveDateTime": "2018-12-14T04:48:18Z",
        "specimen": {
          "reference": "urn:uuid:92c4b595-38bd-4b35-b18f-99c24a780a53"
        }
      }
    },
    {
      "fullUrl": "urn:uuid:0cf48d89-c1ad-42ef-a403-e1fa0d68e2c3",
      "resource": {
        "resourceType": "Observation",
        "id": "0cf48d89-c1ad-42ef-a403-e1fa0d68e2c3",
        "meta": {
          "profile": [
            "http://hl7.eu/fhir/laboratory/StructureDefinition/Observation-resultslab-eu-lab"
          ]
        },
        "performer": [
          {
            "display": "The Central European Lab"
          }
        ],
        "category": [
          {
            "coding": [
              {
                "system": "http://terminology.hl7.org/CodeSystem/observation-category",
                "code": "laboratory"
              }
            ]
          }
        ],
        "code": {
          "coding": [
            {
              "code": "5792-7",
              "system": "http://loinc.org",
              "display": "Glucose [Mass/volume] in Urine by Test strip"
            }
          ],
          "text": "Glucose [Mass/volume] in Urine by Test strip"
        },
        "valueQuantity": {
          "system": "http://unitsofmeasure.org",
          "value": 0.9,
          "unit": "mg/dL",
          "code": "mg/dL"
        },
        "referenceRange": [
          {
            "low": {
              "value": 0,
              "code": "mg/dL",
              "system": "http://unitsofmeasure.org"
            }
          },
          {
            "high": {
              "value": 0.8,
              "code": "mg/dL",
              "system": "http://unitsofmeasure.org"
            }
          }
        ],
        "interpretation": [
          {
            "coding": [
              {
                "code": "H",
                "system": "http://terminology.hl7.org/CodeSystem/v3-ObservationInterpretation",
                "display": "High"
              }
            ]
          }
        ],
        "text": {
          "status": "generated",
          "div": "<div xmlns=\"http://www.w3.org/1999/xhtml\"><table class=\"hl7__eu__lab__report\"><tr><th>Test</th><th>14-Dec-2018</th><th>Reference&#xA0;Range</th><th>Unit</th></tr><tr><td>Glucose [Mass/volume] in Urine by Test strip</td><td>0.9</td><td>0 - 0.8</td><td>H</td><td>mg/dL</td></tr></table></div>"
        },
        "status": "final",
        "subject": {
          "reference": "urn:uuid:a09b3ce2-140d-4403-8849-236a31822200",
          "display": "Victor Lagarde"
        },
        "effectiveDateTime": "2018-12-14T04:48:18Z",
        "specimen": {
          "reference": "urn:uuid:92c4b595-38bd-4b35-b18f-99c24a780a53"
        }
      }
    },
    {
      "fullUrl": "urn:uuid:5a76c7b4-4eb8-4e04-8d4c-ec53f3553f82",
      "resource": {
        "resourceType": "Observation",
        "id": "5a76c7b4-4eb8-4e04-8d4c-ec53f3553f82",
        "meta": {
          "profile": [
            "http://hl7.eu/fhir/laboratory/StructureDefinition/Observation-resultslab-eu-lab"
          ]
        },
        "performer": [
          {
            "display": "The Central European Lab"
          }
        ],
        "category": [
          {
            "coding": [
              {
                "system": "http://terminology.hl7.org/CodeSystem/observation-category",
                "code": "laboratory"
              }
            ]
          }
        ],
        "code": {
          "coding": [
            {
              "code": "25428-4",
              "system": "http://loinc.org",
              "display": "Glucose [Presence] in Urine by Test strip"
            }
          ],
          "text": "Glucose [Presence] in Urine by Test strip"
        },
        "text": {
          "status": "generated",
          "div": "<div xmlns=\"http://www.w3.org/1999/xhtml\"><table class=\"hl7__eu__lab__report\"><tr><th>Test</th><th>14-Dec-2018</th><th>Reference&#xA0;Range</th><th>Unit</th></tr><tr><td>Glucose [Presence] in Urine by Test strip</td></tr></table></div>"
        },
        "status": "final",
        "subject": {
          "reference": "urn:uuid:a09b3ce2-140d-4403-8849-236a31822200",
          "display": "Victor Lagarde"
        },
        "effectiveDateTime": "2018-12-14T04:48:18Z",
        "specimen": {
          "reference": "urn:uuid:92c4b595-38bd-4b35-b18f-99c24a780a53"
        }
      }
    },
    {
      "fullUrl": "urn:uuid:28f9e7dd-6f6a-443d-9c64-e4faad685ea6",
      "resource": {
        "resourceType": "Observation",
        "id": "28f9e7dd-6f6a-443d-9c64-e4faad685ea6",
        "meta": {
          "profile": [
            "http://hl7.eu/fhir/laboratory/StructureDefinition/Observation-resultslab-eu-lab"
          ]
        },
        "performer": [
          {
            "display": "The Central European Lab"
          }
        ],
        "category": [
          {
            "coding": [
              {
                "system": "http://terminology.hl7.org/CodeSystem/observation-category",
                "code": "laboratory"
              }
            ]
          }
        ],
        "code": {
          "coding": [
            {
              "code": "20505-4",
              "system": "http://loinc.org",
              "display": "Bilirubin.total [Mass/volume] in Urine by Test strip"
            }
          ],
          "text": "Bilirubin.total [Mass/volume] in Urine by Test strip"
        },
        "valueQuantity": {
          "system": "http://unitsofmeasure.org",
          "value": 0.7,
          "unit": "mg/dL",
          "code": "mg/dL"
        },
        "referenceRange": [
          {
            "low": {
              "value": 0,
              "code": "mg/dL",
              "system": "http://unitsofmeasure.org"
            }
          },
          {
            "high": {
              "value": 1.9,
              "code": "mg/dL",
              "system": "http://unitsofmeasure.org"
            }
          }
        ],
        "text": {
          "status": "generated",
          "div": "<div xmlns=\"http://www.w3.org/1999/xhtml\"><table class=\"hl7__eu__lab__report\"><tr><th>Test</th><th>14-Dec-2018</th><th>Reference&#xA0;Range</th><th>Unit</th></tr><tr><td>Bilirubin.total [Mass/volume] in Urine by Test strip</td><td>0.7</td><td>0 - 1.9</td><td></td><td>mg/dL</td></tr></table></div>"
        },
        "status": "final",
        "subject": {
          "reference": "urn:uuid:a09b3ce2-140d-4403-8849-236a31822200",
          "display": "Victor Lagarde"
        },
        "effectiveDateTime": "2018-12-14T04:48:18Z",
        "specimen": {
          "reference": "urn:uuid:92c4b595-38bd-4b35-b18f-99c24a780a53"
        }
      }
    },
    {
      "fullUrl": "urn:uuid:45385237-ba0f-4c26-87e9-16c1643898f6",
      "resource": {
        "resourceType": "Observation",
        "id": "45385237-ba0f-4c26-87e9-16c1643898f6",
        "meta": {
          "profile": [
            "http://hl7.eu/fhir/laboratory/StructureDefinition/Observation-resultslab-eu-lab"
          ]
        },
        "performer": [
          {
            "display": "The Central European Lab"
          }
        ],
        "category": [
          {
            "coding": [
              {
                "system": "http://terminology.hl7.org/CodeSystem/observation-category",
                "code": "laboratory"
              }
            ]
          }
        ],
        "code": {
          "coding": [
            {
              "code": "5770-3",
              "system": "http://loinc.org",
              "display": "Bilirubin.total [Presence] in Urine by Test strip"
            }
          ],
          "text": "Bilirubin.total [Presence] in Urine by Test strip"
        },
        "text": {
          "status": "generated",
          "div": "<div xmlns=\"http://www.w3.org/1999/xhtml\"><table class=\"hl7__eu__lab__report\"><tr><th>Test</th><th>14-Dec-2018</th><th>Reference&#xA0;Range</th><th>Unit</th></tr><tr><td>Bilirubin.total [Presence] in Urine by Test strip</td></tr></table></div>"
        },
        "status": "final",
        "subject": {
          "reference": "urn:uuid:a09b3ce2-140d-4403-8849-236a31822200",
          "display": "Victor Lagarde"
        },
        "effectiveDateTime": "2018-12-14T04:48:18Z",
        "specimen": {
          "reference": "urn:uuid:92c4b595-38bd-4b35-b18f-99c24a780a53"
        }
      }
    },
    {
      "fullUrl": "urn:uuid:d8c899b8-82de-44a5-be7d-5e8746025323",
      "resource": {
        "resourceType": "Observation",
        "id": "d8c899b8-82de-44a5-be7d-5e8746025323",
        "meta": {
          "profile": [
            "http://hl7.eu/fhir/laboratory/StructureDefinition/Observation-resultslab-eu-lab"
          ]
        },
        "performer": [
          {
            "display": "The Central European Lab"
          }
        ],
        "category": [
          {
            "coding": [
              {
                "system": "http://terminology.hl7.org/CodeSystem/observation-category",
                "code": "laboratory"
              }
            ]
          }
        ],
        "code": {
          "coding": [
            {
              "code": "5797-6",
              "system": "http://loinc.org",
              "display": "Ketones [Mass/volume] in Urine by Test strip"
            }
          ],
          "text": "Ketones [Mass/volume] in Urine by Test strip"
        },
        "valueQuantity": {
          "system": "http://unitsofmeasure.org",
          "value": 17.2,
          "unit": "mg/dL",
          "code": "mg/dL"
        },
        "referenceRange": [
          {
            "low": {
              "value": 0,
              "code": "mg/dL",
              "system": "http://unitsofmeasure.org"
            }
          },
          {
            "high": {
              "value": 3,
              "code": "mg/dL",
              "system": "http://unitsofmeasure.org"
            }
          }
        ],
        "interpretation": [
          {
            "coding": [
              {
                "code": "H",
                "system": "http://terminology.hl7.org/CodeSystem/v3-ObservationInterpretation",
                "display": "High"
              }
            ]
          }
        ],
        "text": {
          "status": "generated",
          "div": "<div xmlns=\"http://www.w3.org/1999/xhtml\"><table class=\"hl7__eu__lab__report\"><tr><th>Test</th><th>14-Dec-2018</th><th>Reference&#xA0;Range</th><th>Unit</th></tr><tr><td>Ketones [Mass/volume] in Urine by Test strip</td><td>17.2</td><td>0 - 3</td><td>H</td><td>mg/dL</td></tr></table></div>"
        },
        "status": "final",
        "subject": {
          "reference": "urn:uuid:a09b3ce2-140d-4403-8849-236a31822200",
          "display": "Victor Lagarde"
        },
        "effectiveDateTime": "2018-12-14T04:48:18Z",
        "specimen": {
          "reference": "urn:uuid:92c4b595-38bd-4b35-b18f-99c24a780a53"
        }
      }
    },
    {
      "fullUrl": "urn:uuid:96baf255-1baf-42bf-bc5a-e79c13e4f758",
      "resource": {
        "resourceType": "Observation",
        "id": "96baf255-1baf-42bf-bc5a-e79c13e4f758",
        "meta": {
          "profile": [
            "http://hl7.eu/fhir/laboratory/StructureDefinition/Observation-resultslab-eu-lab"
          ]
        },
        "performer": [
          {
            "display": "The Central European Lab"
          }
        ],
        "category": [
          {
            "coding": [
              {
                "system": "http://terminology.hl7.org/CodeSystem/observation-category",
                "code": "laboratory"
              }
            ]
          }
        ],
        "code": {
          "coding": [
            {
              "code": "2514-8",
              "system": "http://loinc.org",
              "display": "Ketones [Presence] in Urine by Test strip"
            }
          ],
          "text": "Ketones [Presence] in Urine by Test strip"
        },
        "text": {
          "status": "generated",
          "div": "<div xmlns=\"http://www.w3.org/1999/xhtml\"><table class=\"hl7__eu__lab__report\"><tr><th>Test</th><th>14-Dec-2018</th><th>Reference&#xA0;Range</th><th>Unit</th></tr><tr><td>Ketones [Presence] in Urine by Test strip</td></tr></table></div>"
        },
        "status": "final",
        "subject": {
          "reference": "urn:uuid:a09b3ce2-140d-4403-8849-236a31822200",
          "display": "Victor Lagarde"
        },
        "effectiveDateTime": "2018-12-14T04:48:18Z",
        "specimen": {
          "reference": "urn:uuid:92c4b595-38bd-4b35-b18f-99c24a780a53"
        }
      }
    },
    {
      "fullUrl": "urn:uuid:b327efa5-eccf-4663-82eb-7f086ef52129",
      "resource": {
        "resourceType": "Observation",
        "id": "b327efa5-eccf-4663-82eb-7f086ef52129",
        "meta": {
          "profile": [
            "http://hl7.eu/fhir/laboratory/StructureDefinition/Observation-resultslab-eu-lab"
          ]
        },
        "performer": [
          {
            "display": "The Central European Lab"
          }
        ],
        "category": [
          {
            "coding": [
              {
                "system": "http://terminology.hl7.org/CodeSystem/observation-category",
                "code": "laboratory"
              }
            ]
          }
        ],
        "code": {
          "coding": [
            {
              "code": "5811-5",
              "system": "http://loinc.org",
              "display": "Specific gravity of Urine by Test strip"
            }
          ],
          "text": "Specific gravity of Urine by Test strip"
        },
        "valueQuantity": {
          "system": "http://unitsofmeasure.org",
          "value": 1,
          "unit": "{nominal}",
          "code": "{nominal}"
        },
        "referenceRange": [
          {
            "low": {
              "value": 1.01,
              "code": "g/mL",
              "system": "http://unitsofmeasure.org"
            }
          },
          {
            "high": {
              "value": 1.03,
              "code": "g/mL",
              "system": "http://unitsofmeasure.org"
            }
          }
        ],
        "interpretation": [
          {
            "coding": [
              {
                "code": "L",
                "system": "http://terminology.hl7.org/CodeSystem/v3-ObservationInterpretation",
                "display": "Low"
              }
            ]
          }
        ],
        "text": {
          "status": "generated",
          "div": "<div xmlns=\"http://www.w3.org/1999/xhtml\"><table class=\"hl7__eu__lab__report\"><tr><th>Test</th><th>14-Dec-2018</th><th>Reference&#xA0;Range</th><th>Unit</th></tr><tr><td>Specific gravity of Urine by Test strip</td><td>1.0</td><td>1.01 - 1.03</td><td>L</td><td>{nominal}</td></tr></table></div>"
        },
        "status": "final",
        "subject": {
          "reference": "urn:uuid:a09b3ce2-140d-4403-8849-236a31822200",
          "display": "Victor Lagarde"
        },
        "effectiveDateTime": "2018-12-14T04:48:18Z",
        "specimen": {
          "reference": "urn:uuid:92c4b595-38bd-4b35-b18f-99c24a780a53"
        }
      }
    },
    {
      "fullUrl": "urn:uuid:8035d49a-6e7a-4186-afb8-1da5531b355e",
      "resource": {
        "resourceType": "Observation",
        "id": "8035d49a-6e7a-4186-afb8-1da5531b355e",
        "meta": {
          "profile": [
            "http://hl7.eu/fhir/laboratory/StructureDefinition/Observation-resultslab-eu-lab"
          ]
        },
        "performer": [
          {
            "display": "The Central European Lab"
          }
        ],
        "category": [
          {
            "coding": [
              {
                "system": "http://terminology.hl7.org/CodeSystem/observation-category",
                "code": "laboratory"
              }
            ]
          }
        ],
        "code": {
          "coding": [
            {
              "code": "5803-2",
              "system": "http://loinc.org",
              "display": "pH of Urine by Test strip"
            }
          ],
          "text": "pH of Urine by Test strip"
        },
        "valueQuantity": {
          "system": "http://unitsofmeasure.org",
          "value": 6.8,
          "unit": "pH",
          "code": "pH"
        },
        "referenceRange": [
          {
            "low": {
              "value": 4.5,
              "code": "pH",
              "system": "http://unitsofmeasure.org"
            }
          },
          {
            "high": {
              "value": 7.5,
              "code": "pH",
              "system": "http://unitsofmeasure.org"
            }
          }
        ],
        "text": {
          "status": "generated",
          "div": "<div xmlns=\"http://www.w3.org/1999/xhtml\"><table class=\"hl7__eu__lab__report\"><tr><th>Test</th><th>14-Dec-2018</th><th>Reference&#xA0;Range</th><th>Unit</th></tr><tr><td>pH of Urine by Test strip</td><td>6.8</td><td>4.5 - 7.5</td><td></td><td>pH</td></tr></table></div>"
        },
        "status": "final",
        "subject": {
          "reference": "urn:uuid:a09b3ce2-140d-4403-8849-236a31822200",
          "display": "Victor Lagarde"
        },
        "effectiveDateTime": "2018-12-14T04:48:18Z",
        "specimen": {
          "reference": "urn:uuid:92c4b595-38bd-4b35-b18f-99c24a780a53"
        }
      }
    },
    {
      "fullUrl": "urn:uuid:c4d90ce4-48ad-4cce-a90b-0696d331b4fd",
      "resource": {
        "resourceType": "Observation",
        "id": "c4d90ce4-48ad-4cce-a90b-0696d331b4fd",
        "meta": {
          "profile": [
            "http://hl7.eu/fhir/laboratory/StructureDefinition/Observation-resultslab-eu-lab"
          ]
        },
        "performer": [
          {
            "display": "The Central European Lab"
          }
        ],
        "category": [
          {
            "coding": [
              {
                "system": "http://terminology.hl7.org/CodeSystem/observation-category",
                "code": "laboratory"
              }
            ]
          }
        ],
        "code": {
          "coding": [
            {
              "code": "5804-0",
              "system": "http://loinc.org",
              "display": "Protein [Mass/volume] in Urine by Test strip"
            }
          ],
          "text": "Protein [Mass/volume] in Urine by Test strip"
        },
        "valueQuantity": {
          "system": "http://unitsofmeasure.org",
          "value": 240.6,
          "unit": "mg/dL",
          "code": "mg/dL"
        },
        "referenceRange": [
          {
            "low": {
              "value": 0,
              "code": "mg/dL",
              "system": "http://unitsofmeasure.org"
            }
          },
          {
            "high": {
              "value": 149,
              "code": "mg/dL",
              "system": "http://unitsofmeasure.org"
            }
          }
        ],
        "interpretation": [
          {
            "coding": [
              {
                "code": "H",
                "system": "http://terminology.hl7.org/CodeSystem/v3-ObservationInterpretation",
                "display": "High"
              }
            ]
          }
        ],
        "text": {
          "status": "generated",
          "div": "<div xmlns=\"http://www.w3.org/1999/xhtml\"><table class=\"hl7__eu__lab__report\"><tr><th>Test</th><th>14-Dec-2018</th><th>Reference&#xA0;Range</th><th>Unit</th></tr><tr><td>Protein [Mass/volume] in Urine by Test strip</td><td>240.6</td><td>0 - 149</td><td>H</td><td>mg/dL</td></tr></table></div>"
        },
        "status": "final",
        "subject": {
          "reference": "urn:uuid:a09b3ce2-140d-4403-8849-236a31822200",
          "display": "Victor Lagarde"
        },
        "effectiveDateTime": "2018-12-14T04:48:18Z",
        "specimen": {
          "reference": "urn:uuid:92c4b595-38bd-4b35-b18f-99c24a780a53"
        }
      }
    },
    {
      "fullUrl": "urn:uuid:bbc9398d-efb9-4338-8fdd-fcfcade37f44",
      "resource": {
        "resourceType": "Observation",
        "id": "bbc9398d-efb9-4338-8fdd-fcfcade37f44",
        "meta": {
          "profile": [
            "http://hl7.eu/fhir/laboratory/StructureDefinition/Observation-resultslab-eu-lab"
          ]
        },
        "performer": [
          {
            "display": "The Central European Lab"
          }
        ],
        "category": [
          {
            "coding": [
              {
                "system": "http://terminology.hl7.org/CodeSystem/observation-category",
                "code": "laboratory"
              }
            ]
          }
        ],
        "code": {
          "coding": [
            {
              "code": "20454-5",
              "system": "http://loinc.org",
              "display": "Protein [Presence] in Urine by Test strip"
            }
          ],
          "text": "Protein [Presence] in Urine by Test strip"
        },
        "text": {
          "status": "generated",
          "div": "<div xmlns=\"http://www.w3.org/1999/xhtml\"><table class=\"hl7__eu__lab__report\"><tr><th>Test</th><th>14-Dec-2018</th><th>Reference&#xA0;Range</th><th>Unit</th></tr><tr><td>Protein [Presence] in Urine by Test strip</td></tr></table></div>"
        },
        "status": "final",
        "subject": {
          "reference": "urn:uuid:a09b3ce2-140d-4403-8849-236a31822200",
          "display": "Victor Lagarde"
        },
        "effectiveDateTime": "2018-12-14T04:48:18Z",
        "specimen": {
          "reference": "urn:uuid:92c4b595-38bd-4b35-b18f-99c24a780a53"
        }
      }
    },
    {
      "fullUrl": "urn:uuid:a7c9d0b0-c56e-4d98-8901-e14cd5a48ddd",
      "resource": {
        "resourceType": "Observation",
        "id": "a7c9d0b0-c56e-4d98-8901-e14cd5a48ddd",
        "meta": {
          "profile": [
            "http://hl7.eu/fhir/laboratory/StructureDefinition/Observation-resultslab-eu-lab"
          ]
        },
        "performer": [
          {
            "display": "The Central European Lab"
          }
        ],
        "category": [
          {
            "coding": [
              {
                "system": "http://terminology.hl7.org/CodeSystem/observation-category",
                "code": "laboratory"
              }
            ]
          }
        ],
        "code": {
          "coding": [
            {
              "code": "5802-4",
              "system": "http://loinc.org",
              "display": "Nitrite [Presence] in Urine by Test strip"
            }
          ],
          "text": "Nitrite [Presence] in Urine by Test strip"
        },
        "text": {
          "status": "generated",
          "div": "<div xmlns=\"http://www.w3.org/1999/xhtml\"><table class=\"hl7__eu__lab__report\"><tr><th>Test</th><th>14-Dec-2018</th><th>Reference&#xA0;Range</th><th>Unit</th></tr><tr><td>Nitrite [Presence] in Urine by Test strip</td></tr></table></div>"
        },
        "status": "final",
        "subject": {
          "reference": "urn:uuid:a09b3ce2-140d-4403-8849-236a31822200",
          "display": "Victor Lagarde"
        },
        "effectiveDateTime": "2018-12-14T04:48:18Z",
        "specimen": {
          "reference": "urn:uuid:92c4b595-38bd-4b35-b18f-99c24a780a53"
        }
      }
    },
    {
      "fullUrl": "urn:uuid:f3a0bf45-863a-4f68-9ad4-0bb2cc0bb1f3",
      "resource": {
        "resourceType": "Observation",
        "id": "f3a0bf45-863a-4f68-9ad4-0bb2cc0bb1f3",
        "meta": {
          "profile": [
            "http://hl7.eu/fhir/laboratory/StructureDefinition/Observation-resultslab-eu-lab"
          ]
        },
        "performer": [
          {
            "display": "The Central European Lab"
          }
        ],
        "category": [
          {
            "coding": [
              {
                "system": "http://terminology.hl7.org/CodeSystem/observation-category",
                "code": "laboratory"
              }
            ]
          }
        ],
        "code": {
          "coding": [
            {
              "code": "5794-3",
              "system": "http://loinc.org",
              "display": "Hemoglobin [Presence] in Urine by Test strip"
            }
          ],
          "text": "Hemoglobin [Presence] in Urine by Test strip"
        },
        "text": {
          "status": "generated",
          "div": "<div xmlns=\"http://www.w3.org/1999/xhtml\"><table class=\"hl7__eu__lab__report\"><tr><th>Test</th><th>14-Dec-2018</th><th>Reference&#xA0;Range</th><th>Unit</th></tr><tr><td>Hemoglobin [Presence] in Urine by Test strip</td></tr></table></div>"
        },
        "status": "final",
        "subject": {
          "reference": "urn:uuid:a09b3ce2-140d-4403-8849-236a31822200",
          "display": "Victor Lagarde"
        },
        "effectiveDateTime": "2018-12-14T04:48:18Z",
        "specimen": {
          "reference": "urn:uuid:92c4b595-38bd-4b35-b18f-99c24a780a53"
        }
      }
    },
    {
      "fullUrl": "urn:uuid:5fc5c81b-b893-4c51-932b-31d811999e89",
      "resource": {
        "resourceType": "Observation",
        "id": "5fc5c81b-b893-4c51-932b-31d811999e89",
        "meta": {
          "profile": [
            "http://hl7.eu/fhir/laboratory/StructureDefinition/Observation-resultslab-eu-lab"
          ]
        },
        "performer": [
          {
            "display": "The Central European Lab"
          }
        ],
        "category": [
          {
            "coding": [
              {
                "system": "http://terminology.hl7.org/CodeSystem/observation-category",
                "code": "laboratory"
              }
            ]
          }
        ],
        "code": {
          "coding": [
            {
              "code": "5799-2",
              "system": "http://loinc.org",
              "display": "Leukocyte esterase [Presence] in Urine by Test strip"
            }
          ],
          "text": "Leukocyte esterase [Presence] in Urine by Test strip"
        },
        "text": {
          "status": "generated",
          "div": "<div xmlns=\"http://www.w3.org/1999/xhtml\"><table class=\"hl7__eu__lab__report\"><tr><th>Test</th><th>14-Dec-2018</th><th>Reference&#xA0;Range</th><th>Unit</th></tr><tr><td>Leukocyte esterase [Presence] in Urine by Test strip</td></tr></table></div>"
        },
        "status": "final",
        "subject": {
          "reference": "urn:uuid:a09b3ce2-140d-4403-8849-236a31822200",
          "display": "Victor Lagarde"
        },
        "effectiveDateTime": "2018-12-14T04:48:18Z",
        "specimen": {
          "reference": "urn:uuid:92c4b595-38bd-4b35-b18f-99c24a780a53"
        }
      }
    },
    {
      "fullUrl": "urn:uuid:4541312b-f7a9-4cbe-9a2e-5f6b78e5b106",
      "resource": {
        "resourceType": "Observation",
        "id": "4541312b-f7a9-4cbe-9a2e-5f6b78e5b106",
        "meta": {
          "profile": [
            "http://hl7.eu/fhir/laboratory/StructureDefinition/Observation-resultslab-eu-lab"
          ]
        },
        "performer": [
          {
            "display": "The Central European Lab"
          }
        ],
        "category": [
          {
            "coding": [
              {
                "system": "http://terminology.hl7.org/CodeSystem/observation-category",
                "code": "laboratory"
              }
            ]
          }
        ],
        "code": {
          "coding": [
            {
              "code": "4548-4",
              "system": "http://loinc.org",
              "display": "Hemoglobin A1c/Hemoglobin.total in Blood"
            }
          ],
          "text": "Hemoglobin A1c/Hemoglobin.total in Blood"
        },
        "valueQuantity": {
          "system": "http://unitsofmeasure.org",
          "value": 3.2,
          "unit": "%",
          "code": "%"
        },
        "referenceRange": [
          {
            "low": {
              "value": 4.3,
              "code": "%",
              "system": "http://unitsofmeasure.org"
            }
          },
          {
            "high": {
              "value": 6,
              "code": "%",
              "system": "http://unitsofmeasure.org"
            }
          }
        ],
        "interpretation": [
          {
            "coding": [
              {
                "code": "L",
                "system": "http://terminology.hl7.org/CodeSystem/v3-ObservationInterpretation",
                "display": "Low"
              }
            ]
          }
        ],
        "text": {
          "status": "generated",
          "div": "<div xmlns=\"http://www.w3.org/1999/xhtml\"><table class=\"hl7__eu__lab__report\"><tr><th>Test</th><th>14-Dec-2018</th><th>Reference&#xA0;Range</th><th>Unit</th></tr><tr><td>Hemoglobin A1c/Hemoglobin.total in Blood</td><td>3.2</td><td>4.3 - 6</td><td>L</td><td>%</td></tr></table></div>"
        },
        "status": "final",
        "subject": {
          "reference": "urn:uuid:a09b3ce2-140d-4403-8849-236a31822200",
          "display": "Victor Lagarde"
        },
        "effectiveDateTime": "2018-12-14T04:48:18Z",
        "specimen": {
          "reference": "urn:uuid:d236057c-2a8c-49e5-914f-3f4b48851689"
        }
      }
    },
    {
      "fullUrl": "urn:uuid:fc6e5ced-3215-4aa0-af7f-22d63ea5d3e8",
      "resource": {
        "resourceType": "Observation",
        "id": "fc6e5ced-3215-4aa0-af7f-22d63ea5d3e8",
        "meta": {
          "profile": [
            "http://hl7.eu/fhir/laboratory/StructureDefinition/Observation-resultslab-eu-lab"
          ]
        },
        "performer": [
          {
            "display": "The Central European Lab"
          }
        ],
        "category": [
          {
            "coding": [
              {
                "system": "http://terminology.hl7.org/CodeSystem/observation-category",
                "code": "laboratory"
              }
            ]
          }
        ],
        "code": {
          "coding": [
            {
              "code": "2339-0",
              "system": "http://loinc.org",
              "display": "Glucose [Mass/volume] in Blood"
            }
          ],
          "text": "Glucose [Mass/volume] in Blood"
        },
        "valueQuantity": {
          "system": "http://unitsofmeasure.org",
          "value": 93,
          "unit": "mg/dL",
          "code": "mg/dL"
        },
        "referenceRange": [
          {
            "low": {
              "value": 70,
              "code": "mg/dL",
              "system": "http://unitsofmeasure.org"
            }
          },
          {
            "high": {
              "value": 140,
              "code": "mg/dL",
              "system": "http://unitsofmeasure.org"
            }
          }
        ],
        "text": {
          "status": "generated",
          "div": "<div xmlns=\"http://www.w3.org/1999/xhtml\"><table class=\"hl7__eu__lab__report\"><tr><th>Test</th><th>14-Dec-2018</th><th>Reference&#xA0;Range</th><th>Unit</th></tr><tr><td>Glucose [Mass/volume] in Blood</td><td>93.0</td><td>70 - 140</td><td></td><td>mg/dL</td></tr></table></div>"
        },
        "status": "final",
        "subject": {
          "reference": "urn:uuid:a09b3ce2-140d-4403-8849-236a31822200",
          "display": "Victor Lagarde"
        },
        "effectiveDateTime": "2018-12-14T04:48:18Z",
        "specimen": {
          "reference": "urn:uuid:d236057c-2a8c-49e5-914f-3f4b48851689"
        }
      }
    },
    {
      "fullUrl": "urn:uuid:508438af-d443-4c31-a7ed-bbc0b4a3ee6f",
      "resource": {
        "resourceType": "Observation",
        "id": "508438af-d443-4c31-a7ed-bbc0b4a3ee6f",
        "meta": {
          "profile": [
            "http://hl7.eu/fhir/laboratory/StructureDefinition/Observation-resultslab-eu-lab"
          ]
        },
        "performer": [
          {
            "display": "The Central European Lab"
          }
        ],
        "category": [
          {
            "coding": [
              {
                "system": "http://terminology.hl7.org/CodeSystem/observation-category",
                "code": "laboratory"
              }
            ]
          }
        ],
        "code": {
          "coding": [
            {
              "code": "6299-2",
              "system": "http://loinc.org",
              "display": "Urea nitrogen [Mass/volume] in Blood"
            }
          ],
          "text": "Urea nitrogen [Mass/volume] in Blood"
        },
        "valueQuantity": {
          "system": "http://unitsofmeasure.org",
          "value": 19.4,
          "unit": "mg/dL",
          "code": "mg/dL"
        },
        "referenceRange": [
          {
            "low": {
              "value": 7,
              "code": "mg/dL",
              "system": "http://unitsofmeasure.org"
            }
          },
          {
            "high": {
              "value": 20,
              "code": "mg/dL",
              "system": "http://unitsofmeasure.org"
            }
          }
        ],
        "text": {
          "status": "generated",
          "div": "<div xmlns=\"http://www.w3.org/1999/xhtml\"><table class=\"hl7__eu__lab__report\"><tr><th>Test</th><th>14-Dec-2018</th><th>Reference&#xA0;Range</th><th>Unit</th></tr><tr><td>Urea nitrogen [Mass/volume] in Blood</td><td>19.4</td><td>7 - 20</td><td></td><td>mg/dL</td></tr></table></div>"
        },
        "status": "final",
        "subject": {
          "reference": "urn:uuid:a09b3ce2-140d-4403-8849-236a31822200",
          "display": "Victor Lagarde"
        },
        "effectiveDateTime": "2018-12-14T04:48:18Z",
        "specimen": {
          "reference": "urn:uuid:d236057c-2a8c-49e5-914f-3f4b48851689"
        }
      }
    },
    {
      "fullUrl": "urn:uuid:773f9c57-76d9-4476-9abf-4358e6724ccc",
      "resource": {
        "resourceType": "Observation",
        "id": "773f9c57-76d9-4476-9abf-4358e6724ccc",
        "meta": {
          "profile": [
            "http://hl7.eu/fhir/laboratory/StructureDefinition/Observation-resultslab-eu-lab"
          ]
        },
        "performer": [
          {
            "display": "The Central European Lab"
          }
        ],
        "category": [
          {
            "coding": [
              {
                "system": "http://terminology.hl7.org/CodeSystem/observation-category",
                "code": "laboratory"
              }
            ]
          }
        ],
        "code": {
          "coding": [
            {
              "code": "38483-4",
              "system": "http://loinc.org",
              "display": "Creatinine [Mass/volume] in Blood"
            }
          ],
          "text": "Creatinine [Mass/volume] in Blood"
        },
        "valueQuantity": {
          "system": "http://unitsofmeasure.org",
          "value": 2.8,
          "unit": "mg/dL",
          "code": "mg/dL"
        },
        "referenceRange": [
          {
            "low": {
              "value": 0.9,
              "code": "mg/dL",
              "system": "http://unitsofmeasure.org"
            }
          },
          {
            "high": {
              "value": 1.3,
              "code": "mg/dL",
              "system": "http://unitsofmeasure.org"
            }
          }
        ],
        "interpretation": [
          {
            "coding": [
              {
                "code": "H",
                "system": "http://terminology.hl7.org/CodeSystem/v3-ObservationInterpretation",
                "display": "High"
              }
            ]
          }
        ],
        "text": {
          "status": "generated",
          "div": "<div xmlns=\"http://www.w3.org/1999/xhtml\"><table class=\"hl7__eu__lab__report\"><tr><th>Test</th><th>14-Dec-2018</th><th>Reference&#xA0;Range</th><th>Unit</th></tr><tr><td>Creatinine [Mass/volume] in Blood</td><td>2.8</td><td>0.9 - 1.3</td><td>H</td><td>mg/dL</td></tr></table></div>"
        },
        "status": "final",
        "subject": {
          "reference": "urn:uuid:a09b3ce2-140d-4403-8849-236a31822200",
          "display": "Victor Lagarde"
        },
        "effectiveDateTime": "2018-12-14T04:48:18Z",
        "specimen": {
          "reference": "urn:uuid:d236057c-2a8c-49e5-914f-3f4b48851689"
        }
      }
    },
    {
      "fullUrl": "urn:uuid:2ccdcad9-1012-4b42-9194-48e85cc90b89",
      "resource": {
        "resourceType": "Observation",
        "id": "2ccdcad9-1012-4b42-9194-48e85cc90b89",
        "meta": {
          "profile": [
            "http://hl7.eu/fhir/laboratory/StructureDefinition/Observation-resultslab-eu-lab"
          ]
        },
        "performer": [
          {
            "display": "The Central European Lab"
          }
        ],
        "category": [
          {
            "coding": [
              {
                "system": "http://terminology.hl7.org/CodeSystem/observation-category",
                "code": "laboratory"
              }
            ]
          }
        ],
        "code": {
          "coding": [
            {
              "code": "49765-1",
              "system": "http://loinc.org",
              "display": "Calcium [Mass/volume] in Blood"
            }
          ],
          "text": "Calcium [Mass/volume] in Blood"
        },
        "valueQuantity": {
          "system": "http://unitsofmeasure.org",
          "value": 10.1,
          "unit": "mg/dL",
          "code": "mg/dL"
        },
        "referenceRange": [
          {
            "low": {
              "value": 8.5,
              "code": "mg/dL",
              "system": "http://unitsofmeasure.org"
            }
          },
          {
            "high": {
              "value": 10.5,
              "code": "mg/dL",
              "system": "http://unitsofmeasure.org"
            }
          }
        ],
        "text": {
          "status": "generated",
          "div": "<div xmlns=\"http://www.w3.org/1999/xhtml\"><table class=\"hl7__eu__lab__report\"><tr><th>Test</th><th>14-Dec-2018</th><th>Reference&#xA0;Range</th><th>Unit</th></tr><tr><td>Calcium [Mass/volume] in Blood</td><td>10.1</td><td>8.5 - 10.5</td><td></td><td>mg/dL</td></tr></table></div>"
        },
        "status": "final",
        "subject": {
          "reference": "urn:uuid:a09b3ce2-140d-4403-8849-236a31822200",
          "display": "Victor Lagarde"
        },
        "effectiveDateTime": "2018-12-14T04:48:18Z",
        "specimen": {
          "reference": "urn:uuid:d236057c-2a8c-49e5-914f-3f4b48851689"
        }
      }
    },
    {
      "fullUrl": "urn:uuid:2adc80ab-279e-4540-8337-61f485ddc9b6",
      "resource": {
        "resourceType": "Observation",
        "id": "2adc80ab-279e-4540-8337-61f485ddc9b6",
        "meta": {
          "profile": [
            "http://hl7.eu/fhir/laboratory/StructureDefinition/Observation-resultslab-eu-lab"
          ]
        },
        "performer": [
          {
            "display": "The Central European Lab"
          }
        ],
        "category": [
          {
            "coding": [
              {
                "system": "http://terminology.hl7.org/CodeSystem/observation-category",
                "code": "laboratory"
              }
            ]
          }
        ],
        "code": {
          "coding": [
            {
              "code": "2947-0",
              "system": "http://loinc.org",
              "display": "Sodium [Moles/volume] in Blood"
            }
          ],
          "text": "Sodium [Moles/volume] in Blood"
        },
        "valueQuantity": {
          "system": "http://unitsofmeasure.org",
          "value": 140.7,
          "unit": "mmol/L",
          "code": "mmol/L"
        },
        "referenceRange": [
          {
            "low": {
              "value": 135,
              "code": "mmol/L",
              "system": "http://unitsofmeasure.org"
            }
          },
          {
            "high": {
              "value": 145,
              "code": "mmol/L",
              "system": "http://unitsofmeasure.org"
            }
          }
        ],
        "text": {
          "status": "generated",
          "div": "<div xmlns=\"http://www.w3.org/1999/xhtml\"><table class=\"hl7__eu__lab__report\"><tr><th>Test</th><th>14-Dec-2018</th><th>Reference&#xA0;Range</th><th>Unit</th></tr><tr><td>Sodium [Moles/volume] in Blood</td><td>140.7</td><td>135 - 145</td><td></td><td>mmol/L</td></tr></table></div>"
        },
        "status": "final",
        "subject": {
          "reference": "urn:uuid:a09b3ce2-140d-4403-8849-236a31822200",
          "display": "Victor Lagarde"
        },
        "effectiveDateTime": "2018-12-14T04:48:18Z",
        "specimen": {
          "reference": "urn:uuid:d236057c-2a8c-49e5-914f-3f4b48851689"
        }
      }
    },
    {
      "fullUrl": "urn:uuid:fc06c47a-1043-4a1d-848c-98405d82502f",
      "resource": {
        "resourceType": "Observation",
        "id": "fc06c47a-1043-4a1d-848c-98405d82502f",
        "meta": {
          "profile": [
            "http://hl7.eu/fhir/laboratory/StructureDefinition/Observation-resultslab-eu-lab"
          ]
        },
        "performer": [
          {
            "display": "The Central European Lab"
          }
        ],
        "category": [
          {
            "coding": [
              {
                "system": "http://terminology.hl7.org/CodeSystem/observation-category",
                "code": "laboratory"
              }
            ]
          }
        ],
        "code": {
          "coding": [
            {
              "code": "6298-4",
              "system": "http://loinc.org",
              "display": "Potassium [Moles/volume] in Blood"
            }
          ],
          "text": "Potassium [Moles/volume] in Blood"
        },
        "valueQuantity": {
          "system": "http://unitsofmeasure.org",
          "value": 3.8,
          "unit": "mmol/L",
          "code": "mmol/L"
        },
        "referenceRange": [
          {
            "low": {
              "value": 3.5,
              "code": "mmol/L",
              "system": "http://unitsofmeasure.org"
            }
          },
          {
            "high": {
              "value": 5.1,
              "code": "mmol/L",
              "system": "http://unitsofmeasure.org"
            }
          }
        ],
        "text": {
          "status": "generated",
          "div": "<div xmlns=\"http://www.w3.org/1999/xhtml\"><table class=\"hl7__eu__lab__report\"><tr><th>Test</th><th>14-Dec-2018</th><th>Reference&#xA0;Range</th><th>Unit</th></tr><tr><td>Potassium [Moles/volume] in Blood</td><td>3.8</td><td>3.5 - 5.1</td><td></td><td>mmol/L</td></tr></table></div>"
        },
        "status": "final",
        "subject": {
          "reference": "urn:uuid:a09b3ce2-140d-4403-8849-236a31822200",
          "display": "Victor Lagarde"
        },
        "effectiveDateTime": "2018-12-14T04:48:18Z",
        "specimen": {
          "reference": "urn:uuid:d236057c-2a8c-49e5-914f-3f4b48851689"
        }
      }
    },
    {
      "fullUrl": "urn:uuid:be0a2839-f9e9-408b-ab7d-2e0322c8be0b",
      "resource": {
        "resourceType": "Observation",
        "id": "be0a2839-f9e9-408b-ab7d-2e0322c8be0b",
        "meta": {
          "profile": [
            "http://hl7.eu/fhir/laboratory/StructureDefinition/Observation-resultslab-eu-lab"
          ]
        },
        "performer": [
          {
            "display": "The Central European Lab"
          }
        ],
        "category": [
          {
            "coding": [
              {
                "system": "http://terminology.hl7.org/CodeSystem/observation-category",
                "code": "laboratory"
              }
            ]
          }
        ],
        "code": {
          "coding": [
            {
              "code": "2069-3",
              "system": "http://loinc.org",
              "display": "Chloride [Moles/volume] in Blood"
            }
          ],
          "text": "Chloride [Moles/volume] in Blood"
        },
        "valueQuantity": {
          "system": "http://unitsofmeasure.org",
          "value": 110.6,
          "unit": "mmol/L",
          "code": "mmol/L"
        },
        "referenceRange": [
          {
            "low": {
              "value": 98,
              "code": "mmol/L",
              "system": "http://unitsofmeasure.org"
            }
          },
          {
            "high": {
              "value": 108,
              "code": "mmol/L",
              "system": "http://unitsofmeasure.org"
            }
          }
        ],
        "interpretation": [
          {
            "coding": [
              {
                "code": "H",
                "system": "http://terminology.hl7.org/CodeSystem/v3-ObservationInterpretation",
                "display": "High"
              }
            ]
          }
        ],
        "text": {
          "status": "generated",
          "div": "<div xmlns=\"http://www.w3.org/1999/xhtml\"><table class=\"hl7__eu__lab__report\"><tr><th>Test</th><th>14-Dec-2018</th><th>Reference&#xA0;Range</th><th>Unit</th></tr><tr><td>Chloride [Moles/volume] in Blood</td><td>110.6</td><td>98 - 108</td><td>H</td><td>mmol/L</td></tr></table></div>"
        },
        "status": "final",
        "subject": {
          "reference": "urn:uuid:a09b3ce2-140d-4403-8849-236a31822200",
          "display": "Victor Lagarde"
        },
        "effectiveDateTime": "2018-12-14T04:48:18Z",
        "specimen": {
          "reference": "urn:uuid:d236057c-2a8c-49e5-914f-3f4b48851689"
        }
      }
    },
    {
      "fullUrl": "urn:uuid:1d539a16-750b-4675-97ee-fa12d227e8ca",
      "resource": {
        "resourceType": "Observation",
        "id": "1d539a16-750b-4675-97ee-fa12d227e8ca",
        "meta": {
          "profile": [
            "http://hl7.eu/fhir/laboratory/StructureDefinition/Observation-resultslab-eu-lab"
          ]
        },
        "performer": [
          {
            "display": "The Central European Lab"
          }
        ],
        "category": [
          {
            "coding": [
              {
                "system": "http://terminology.hl7.org/CodeSystem/observation-category",
                "code": "laboratory"
              }
            ]
          }
        ],
        "code": {
          "coding": [
            {
              "code": "20565-8",
              "system": "http://loinc.org",
              "display": "Carbon dioxide, total [Moles/volume] in Blood"
            }
          ],
          "text": "Carbon dioxide, total [Moles/volume] in Blood"
        },
        "valueQuantity": {
          "system": "http://unitsofmeasure.org",
          "value": 20.2,
          "unit": "mmol/L",
          "code": "mmol/L"
        },
        "referenceRange": [
          {
            "low": {
              "value": 22,
              "code": "mmol/L",
              "system": "http://unitsofmeasure.org"
            }
          },
          {
            "high": {
              "value": 29,
              "code": "mmol/L",
              "system": "http://unitsofmeasure.org"
            }
          }
        ],
        "interpretation": [
          {
            "coding": [
              {
                "code": "L",
                "system": "http://terminology.hl7.org/CodeSystem/v3-ObservationInterpretation",
                "display": "Low"
              }
            ]
          }
        ],
        "text": {
          "status": "generated",
          "div": "<div xmlns=\"http://www.w3.org/1999/xhtml\"><table class=\"hl7__eu__lab__report\"><tr><th>Test</th><th>14-Dec-2018</th><th>Reference&#xA0;Range</th><th>Unit</th></tr><tr><td>Carbon dioxide, total [Moles/volume] in Blood</td><td>20.2</td><td>22 - 29</td><td>L</td><td>mmol/L</td></tr></table></div>"
        },
        "status": "final",
        "subject": {
          "reference": "urn:uuid:a09b3ce2-140d-4403-8849-236a31822200",
          "display": "Victor Lagarde"
        },
        "effectiveDateTime": "2018-12-14T04:48:18Z",
        "specimen": {
          "reference": "urn:uuid:d236057c-2a8c-49e5-914f-3f4b48851689"
        }
      }
    },
    {
      "fullUrl": "urn:uuid:bb5c5cff-51f0-4a27-a43c-ba0c31c03431",
      "resource": {
        "resourceType": "Observation",
        "id": "bb5c5cff-51f0-4a27-a43c-ba0c31c03431",
        "meta": {
          "profile": [
            "http://hl7.eu/fhir/laboratory/StructureDefinition/Observation-resultslab-eu-lab"
          ]
        },
        "performer": [
          {
            "display": "The Central European Lab"
          }
        ],
        "category": [
          {
            "coding": [
              {
                "system": "http://terminology.hl7.org/CodeSystem/observation-category",
                "code": "laboratory"
              }
            ]
          }
        ],
        "code": {
          "coding": [
            {
              "code": "2093-3",
              "system": "http://loinc.org",
              "display": "Cholesterol [Mass/volume] in Serum or Plasma"
            }
          ],
          "text": "Cholesterol [Mass/volume] in Serum or Plasma"
        },
        "valueQuantity": {
          "system": "http://unitsofmeasure.org",
          "value": 157.6,
          "unit": "mg/dL",
          "code": "mg/dL"
        },
        "referenceRange": [
          {
            "low": {
              "value": 0,
              "code": "mg/dL",
              "system": "http://unitsofmeasure.org"
            }
          },
          {
            "high": {
              "value": 200,
              "code": "mg/dL",
              "system": "http://unitsofmeasure.org"
            }
          }
        ],
        "text": {
          "status": "generated",
          "div": "<div xmlns=\"http://www.w3.org/1999/xhtml\"><table class=\"hl7__eu__lab__report\"><tr><th>Test</th><th>14-Dec-2018</th><th>Reference&#xA0;Range</th><th>Unit</th></tr><tr><td>Cholesterol [Mass/volume] in Serum or Plasma</td><td>157.6</td><td>0 - 200</td><td></td><td>mg/dL</td></tr></table></div>"
        },
        "status": "final",
        "subject": {
          "reference": "urn:uuid:a09b3ce2-140d-4403-8849-236a31822200",
          "display": "Victor Lagarde"
        },
        "effectiveDateTime": "2018-12-14T04:48:18Z",
        "specimen": {
          "reference": "urn:uuid:808d6384-073a-4e84-b58f-73ad7b47b2a1"
        }
      }
    },
    {
      "fullUrl": "urn:uuid:3325d772-27b5-416a-b952-94c1f2c4218d",
      "resource": {
        "resourceType": "Observation",
        "id": "3325d772-27b5-416a-b952-94c1f2c4218d",
        "meta": {
          "profile": [
            "http://hl7.eu/fhir/laboratory/StructureDefinition/Observation-resultslab-eu-lab"
          ]
        },
        "performer": [
          {
            "display": "The Central European Lab"
          }
        ],
        "category": [
          {
            "coding": [
              {
                "system": "http://terminology.hl7.org/CodeSystem/observation-category",
                "code": "laboratory"
              }
            ]
          }
        ],
        "code": {
          "coding": [
            {
              "code": "2571-8",
              "system": "http://loinc.org",
              "display": "Triglyceride [Mass/volume] in Serum or Plasma"
            }
          ],
          "text": "Triglyceride [Mass/volume] in Serum or Plasma"
        },
        "valueQuantity": {
          "system": "http://unitsofmeasure.org",
          "value": 106.7,
          "unit": "mg/dL",
          "code": "mg/dL"
        },
        "referenceRange": [
          {
            "low": {
              "value": 0,
              "code": "mg/dL",
              "system": "http://unitsofmeasure.org"
            }
          },
          {
            "high": {
              "value": 199,
              "code": "mg/dL",
              "system": "http://unitsofmeasure.org"
            }
          }
        ],
        "text": {
          "status": "generated",
          "div": "<div xmlns=\"http://www.w3.org/1999/xhtml\"><table class=\"hl7__eu__lab__report\"><tr><th>Test</th><th>14-Dec-2018</th><th>Reference&#xA0;Range</th><th>Unit</th></tr><tr><td>Triglyceride [Mass/volume] in Serum or Plasma</td><td>106.7</td><td>0 - 199</td><td></td><td>mg/dL</td></tr></table></div>"
        },
        "status": "final",
        "subject": {
          "reference": "urn:uuid:a09b3ce2-140d-4403-8849-236a31822200",
          "display": "Victor Lagarde"
        },
        "effectiveDateTime": "2018-12-14T04:48:18Z",
        "specimen": {
          "reference": "urn:uuid:808d6384-073a-4e84-b58f-73ad7b47b2a1"
        }
      }
    },
    {
      "fullUrl": "urn:uuid:951be0ef-d0e8-4d14-9476-20da4c685ec5",
      "resource": {
        "resourceType": "Observation",
        "id": "951be0ef-d0e8-4d14-9476-20da4c685ec5",
        "meta": {
          "profile": [
            "http://hl7.eu/fhir/laboratory/StructureDefinition/Observation-resultslab-eu-lab"
          ]
        },
        "performer": [
          {
            "display": "The Central European Lab"
          }
        ],
        "category": [
          {
            "coding": [
              {
                "system": "http://terminology.hl7.org/CodeSystem/observation-category",
                "code": "laboratory"
              }
            ]
          }
        ],
        "code": {
          "coding": [
            {
              "code": "18262-6",
              "system": "http://loinc.org",
              "display": "Cholesterol in LDL [Mass/volume] in Serum or Plasma by Direct assay"
            }
          ],
          "text": "Cholesterol in LDL [Mass/volume] in Serum or Plasma by Direct assay"
        },
        "valueQuantity": {
          "system": "http://unitsofmeasure.org",
          "value": 112.4,
          "unit": "mg/dL",
          "code": "mg/dL"
        },
        "referenceRange": [
          {
            "low": {
              "value": 0,
              "code": "mg/dL",
              "system": "http://unitsofmeasure.org"
            }
          },
          {
            "high": {
              "value": 130,
              "code": "mg/dL",
              "system": "http://unitsofmeasure.org"
            }
          }
        ],
        "text": {
          "status": "generated",
          "div": "<div xmlns=\"http://www.w3.org/1999/xhtml\"><table class=\"hl7__eu__lab__report\"><tr><th>Test</th><th>14-Dec-2018</th><th>Reference&#xA0;Range</th><th>Unit</th></tr><tr><td>Cholesterol in LDL [Mass/volume] in Serum or Plasma by Direct assay</td><td>112.4</td><td>0 - 130</td><td></td><td>mg/dL</td></tr></table></div>"
        },
        "status": "final",
        "subject": {
          "reference": "urn:uuid:a09b3ce2-140d-4403-8849-236a31822200",
          "display": "Victor Lagarde"
        },
        "effectiveDateTime": "2018-12-14T04:48:18Z",
        "specimen": {
          "reference": "urn:uuid:808d6384-073a-4e84-b58f-73ad7b47b2a1"
        }
      }
    },
    {
      "fullUrl": "urn:uuid:0a3ff7ba-e99a-4fec-9e7b-81ab2b472053",
      "resource": {
        "resourceType": "Observation",
        "id": "0a3ff7ba-e99a-4fec-9e7b-81ab2b472053",
        "meta": {
          "profile": [
            "http://hl7.eu/fhir/laboratory/StructureDefinition/Observation-resultslab-eu-lab"
          ]
        },
        "performer": [
          {
            "display": "The Central European Lab"
          }
        ],
        "category": [
          {
            "coding": [
              {
                "system": "http://terminology.hl7.org/CodeSystem/observation-category",
                "code": "laboratory"
              }
            ]
          }
        ],
        "code": {
          "coding": [
            {
              "code": "2085-9",
              "system": "http://loinc.org",
              "display": "Cholesterol in HDL [Mass/volume] in Serum or Plasma"
            }
          ],
          "text": "Cholesterol in HDL [Mass/volume] in Serum or Plasma"
        },
        "valueQuantity": {
          "system": "http://unitsofmeasure.org",
          "value": 23.8,
          "unit": "mg/dL",
          "code": "mg/dL"
        },
        "referenceRange": [
          {
            "low": {
              "value": 40,
              "code": "mg/dL",
              "system": "http://unitsofmeasure.org"
            }
          },
          {
            "high": {
              "value": 100,
              "code": "mg/dL",
              "system": "http://unitsofmeasure.org"
            }
          }
        ],
        "interpretation": [
          {
            "coding": [
              {
                "code": "L",
                "system": "http://terminology.hl7.org/CodeSystem/v3-ObservationInterpretation",
                "display": "Low"
              }
            ]
          }
        ],
        "text": {
          "status": "generated",
          "div": "<div xmlns=\"http://www.w3.org/1999/xhtml\"><table class=\"hl7__eu__lab__report\"><tr><th>Test</th><th>14-Dec-2018</th><th>Reference&#xA0;Range</th><th>Unit</th></tr><tr><td>Cholesterol in HDL [Mass/volume] in Serum or Plasma</td><td>23.8</td><td>40 - 100</td><td>L</td><td>mg/dL</td></tr></table></div>"
        },
        "status": "final",
        "subject": {
          "reference": "urn:uuid:a09b3ce2-140d-4403-8849-236a31822200",
          "display": "Victor Lagarde"
        },
        "effectiveDateTime": "2018-12-14T04:48:18Z",
        "specimen": {
          "reference": "urn:uuid:808d6384-073a-4e84-b58f-73ad7b47b2a1"
        }
      }
    },
    {
      "fullUrl": "urn:uuid:2d1cd872-96de-4613-a530-b2c90095bc14",
      "resource": {
        "resourceType": "Device",
        "id": "2d1cd872-96de-4613-a530-b2c90095bc14",
        "deviceName": [
          {
            "name": "SYNDERAI Synthetic Generator",
            "type": "manufacturer-name"
          }
        ],
        "version": [
          {
            "value": "5.0"
          }
        ],
        "text": {
          "status": "generated",
          "div": "<div xmlns=\"http://www.w3.org/1999/xhtml\">SYNDERAI Synthetic Generator v5.0</div>"
        },
        "status": "active\"",
        "distinctIdentifier": "synderai-generator-50",
        "manufacturer": "SYNDERAI Project"
      }
    },
    {
      "fullUrl": "urn:uuid:c334ff55-d158-44ae-bb5e-132a05acd5f0",
      "resource": {
        "resourceType": "Provenance",
        "id": "c334ff55-d158-44ae-bb5e-132a05acd5f0",
        "target": [
          {
            "reference": "Patient/a09b3ce2-140d-4403-8849-236a31822200"
          },
          {
            "reference": "Bundle/0a71f7d0-01fc-457a-aabd-12f6fd6fc0c2"
          },
          {
            "reference": "Composition/ae6efa23-6d1f-4d53-8d95-373f226a22ba"
          },
          {
            "reference": "PractitionerRole/8bd00e96-a040-43a5-b0f9-c3642b43f3b4"
          },
          {
            "reference": "Practitioner/f99e4792-46b1-4ec9-beed-d06c9cd3945c"
          },
          {
            "reference": "PractitionerRole/c97a84ac-fd39-4dd6-bb08-5258171e02ff"
          },
          {
            "reference": "Organization/de5178a4-5caa-4e5a-b1e2-91384b8375c4"
          }
        ],
        "activity": {
          "text": "Synthetic Example Data Generation"
        },
        "policy": [
          "https://synderai.net/synderai-synthetic-data-policy"
        ],
        "agent": [
          {
            "type": {
              "text": "author"
            },
            "who": {
              "reference": "Device/2d1cd872-96de-4613-a530-b2c90095bc14"
            }
          }
        ],
        "reason": [
          {
            "text": "Interoperability Testing and Training (non-clinical use)"
          }
        ],
        "text": {
          "status": "generated",
          "div": "<div xmlns=\"http://www.w3.org/1999/xhtml\">Provenance for SYNDERAI Synthetic Example Data Resource</div>"
        },
        "recorded": "2018-12-14T05:48:18Z"
      }
    },
    {
      "fullUrl": "urn:uuid:8bd00e96-a040-43a5-b0f9-c3642b43f3b4",
      "resource": {
        "resourceType": "PractitionerRole",
        "id": "8bd00e96-a040-43a5-b0f9-c3642b43f3b4",
        "meta": {
          "profile": [
            "http://hl7.eu/fhir/base/StructureDefinition/practitionerRole-eu"
          ]
        },
        "text": {
          "status": "generated",
          "div": "<div xmlns=\"http://www.w3.org/1999/xhtml\">Laboratory Role Id: 8bd00e96-a040-43a5-b0f9-c3642b43f3b4</div>"
        },
        "practitioner": {
          "reference": "urn:uuid:f99e4792-46b1-4ec9-beed-d06c9cd3945c"
        }
      }
    },
    {
      "fullUrl": "urn:uuid:f99e4792-46b1-4ec9-beed-d06c9cd3945c",
      "resource": {
        "resourceType": "Practitioner",
        "id": "f99e4792-46b1-4ec9-beed-d06c9cd3945c",
        "meta": {
          "profile": [
            "http://hl7.eu/fhir/base/StructureDefinition/practitioner-eu"
          ]
        },
        "identifier": [
          {
            "assigner": {
              "display": "HL7 Europe"
            },
            "system": "urn:oid:2.16.840.1.113883.2.51.999",
            "value": "46b5529b-15e3-4710-9edd-f5b65524086f"
          }
        ],
        "name": [
          {
            "prefix": [
              "dr"
            ],
            "given": [
              "Ex"
            ],
            "family": "Ample"
          }
        ],
        "address": [
          {
            "line": [
              "Laboratoire Central Européenne",
              "Boulevard du Jardin Botanique 32"
            ],
            "postalCode": "1000",
            "city": "Brussels",
            "country": "Belgium"
          }
        ],
        "text": {
          "status": "generated",
          "div": "<div xmlns=\"http://www.w3.org/1999/xhtml\">Laboratory: Laboratoire Central Européenne, 1000 Brussels, Belgium</div>"
        }
      }
    }
  ],
  "type": "document",
  "timestamp": "2018-12-14T05:48:18Z"
}
