{
  "resourceType": "Bundle",
  "id": "123a748e-39bf-479a-a1c0-5c6f758241b4",
  "meta": {
    "profile": [
      "http://hl7.eu/fhir/laboratory/StructureDefinition/Bundle-eu-lab"
    ]
  },
  "identifier": {
    "assigner": {
      "display": "HL7 Europe"
    },
    "system": "urn:oid:2.16.840.1.113883.2.51.999",
    "value": "fabfcb63-c60e-46cc-8de5-8fe6502782c8"
  },
  "entry": [
    {
      "fullUrl": "urn:uuid:647ddd67-3a00-49d7-ba6f-bd7d41e3bf75",
      "resource": {
        "resourceType": "Composition",
        "id": "647ddd67-3a00-49d7-ba6f-bd7d41e3bf75",
        "meta": {
          "profile": [
            "http://hl7.eu/fhir/laboratory/StructureDefinition/Composition-eu-lab"
          ]
        },
        "identifier": {
          "assigner": {
            "display": "HL7 Europe"
          },
          "system": "urn:oid:2.16.840.1.113883.2.51.999",
          "value": "60573566-0553-4e0b-907a-6fc5b5b769c4"
        },
        "author": [
          {
            "reference": "urn:uuid:0cba7ddb-5a75-4fb1-9912-a1b544c1671b"
          }
        ],
        "category": [
          {
            "coding": [
              {
                "code": "26436-6",
                "system": "http://loinc.org",
                "display": "Laboratory studies (set)"
              }
            ]
          }
        ],
        "type": {
          "coding": [
            {
              "code": "11502-2",
              "system": "http://loinc.org",
              "display": "Laboratory report"
            }
          ],
          "text": "Laboratory Report"
        },
        "section": [
          {
            "code": {
              "coding": [
                {
                  "code": "26436-6",
                  "system": "http://loinc.org",
                  "display": "Laboratory studies (set)"
                }
              ],
              "text": "Laboratory studies"
            },
            "section": [
              {
                "code": {
                  "coding": [
                    {
                      "code": "$18719-5",
                      "system": "http://loinc.org",
                      "display": "Chemistry studies (set)"
                    }
                  ],
                  "text": "Chemistry"
                },
                "entry": [
                  {
                    "reference": "urn:uuid:0e5ebd24-80f1-4beb-b2da-8295c24c4c46"
                  },
                  {
                    "reference": "urn:uuid:2f429ea7-c19c-455b-abc0-df1b282a581a"
                  },
                  {
                    "reference": "urn:uuid:2c6a200d-29e5-40b4-8043-8c54e30d16b4"
                  },
                  {
                    "reference": "urn:uuid:9f9dce28-8a46-4c24-a8cf-c425fa3824b0"
                  },
                  {
                    "reference": "urn:uuid:00966f12-f699-4c99-8d5d-5b5e3e7ecca8"
                  },
                  {
                    "reference": "urn:uuid:a566a65d-44c1-4b21-8875-5e81687f5050"
                  },
                  {
                    "reference": "urn:uuid:70db137e-07fe-427e-a234-d873516813d7"
                  },
                  {
                    "reference": "urn:uuid:ffd98678-df09-4b7d-9dfa-3f88a3d51624"
                  },
                  {
                    "reference": "urn:uuid:0bbe171d-83a5-410a-9279-073c27b2e3a5"
                  },
                  {
                    "reference": "urn:uuid:0dc66b2a-e95d-453a-9917-f65046a383e3"
                  },
                  {
                    "reference": "urn:uuid:e9714545-b099-4d5d-8b88-fb147dbe4ccb"
                  },
                  {
                    "reference": "urn:uuid:273d66b1-da58-4b01-a587-1576c7c3ba5f"
                  },
                  {
                    "reference": "urn:uuid:cf01674d-ac1a-4186-be5c-30cb1383f0e6"
                  },
                  {
                    "reference": "urn:uuid:a45eb004-6e72-457b-9318-0aca4770d69e"
                  },
                  {
                    "reference": "urn:uuid:baf87bbb-dbf5-4b30-80e9-ae1d2744f411"
                  },
                  {
                    "reference": "urn:uuid:6a0415a2-f496-4a21-8417-128dff5c9712"
                  },
                  {
                    "reference": "urn:uuid:ee73b465-7fd8-4b0c-801f-23bfa015ee30"
                  },
                  {
                    "reference": "urn:uuid:759022ae-8e56-42ee-8014-cec85223fc1f"
                  },
                  {
                    "reference": "urn:uuid:61b1462c-ce50-4487-ac65-c442c082dee9"
                  }
                ],
                "text": {
                  "status": "generated",
                  "div": "<div xmlns=\"http://www.w3.org/1999/xhtml\"><h3>Chemistry</h3><table class=\"hl7__eu__lab__report\"><thead><tr><th>Test</th><th>11-JUN-2020</th><th>Reference&#xA0;Range</th><th>Unit</th></tr></thead><tbody><tr><td>Glucose [Mass/volume] in Blood</td><td>82.0</td><td>70 - 99</td><td>mg/dL</td></tr><tr><td>Urea nitrogen [Mass/volume] in Blood</td><td>19.2</td><td>7 - 20</td><td>mg/dL</td></tr><tr><td>Creatinine [Mass/volume] in Blood</td><td><strong>3.1 H</strong></td><td>0.7 - 1.3</td><td>mg/dL</td></tr><tr><td>Calcium [Mass/volume] in Blood</td><td>9.2</td><td>8.5 - 10.5</td><td>mg/dL</td></tr><tr><td>Sodium [Moles/volume] in Blood</td><td>141.9</td><td>135 - 145</td><td>mmol/L</td></tr><tr><td>Potassium [Moles/volume] in Blood</td><td>5.0</td><td>3.5 - 5</td><td>mmol/L</td></tr><tr><td>Chloride [Moles/volume] in Blood</td><td>104.0</td><td>98 - 107</td><td>mmol/L</td></tr><tr><td>Carbon dioxide, total [Moles/volume] in Blood</td><td>27.6</td><td>24 - 29</td><td>mmol/L</td></tr><tr><td>Protein [Mass/volume] in Serum or Plasma</td><td>7.5</td><td>6.6 - 8.3</td><td>g/dL</td></tr><tr><td>Albumin [Mass/volume] in Serum or Plasma</td><td>3.8</td><td>3.5 - 5.5</td><td>g/dL</td></tr><tr><td>Globulin [Mass/volume] in Serum by calculation</td><td>2.8</td><td>2 - 3.5</td><td>g/L</td></tr><tr><td>Bilirubin.total [Mass/volume] in Serum or Plasma</td><td>0.4</td><td>0.3 - 1.2</td><td>mg/dL</td></tr><tr><td>Alkaline phosphatase [Enzymatic activity/volume] in Serum or Plasma</td><td>62.7</td><td>39 - 136</td><td>U/L</td></tr><tr><td>Alanine aminotransferase [Enzymatic activity/volume] in Serum or Plasma</td><td><strong>58.7 H</strong></td><td>7 - 52</td><td>U/L</td></tr><tr><td>Aspartate aminotransferase [Enzymatic activity/volume] in Serum or Plasma</td><td>38.5</td><td>10 - 40</td><td>U/L</td></tr><tr><td>Cholesterol [Mass/volume] in Serum or Plasma</td><td>175.1</td><td>125 - 200</td><td>mg/dL</td></tr><tr><td>Triglyceride [Mass/volume] in Serum or Plasma</td><td>116.0</td><td>0 - 150</td><td>mg/dL</td></tr><tr><td>Cholesterol in LDL [Mass/volume] in Serum or Plasma by Direct assay</td><td>80.2</td><td>0 - 130</td><td>mg/dL</td></tr><tr><td>Cholesterol in HDL [Mass/volume] in Serum or Plasma</td><td>44.3</td><td>40 - 100</td><td>mg/dL</td></tr></tbody></table></div>"
                },
                "title": "Chemistry"
              }
            ],
            "title": "Laboratory Report"
          },
          {
            "text": {
              "status": "generated",
              "div": "<div xmlns=\"http://www.w3.org/1999/xhtml\"><h3>Annotation</h3><table class=\"hl7__eu__lab__report\"><tr><th>Conclusion and Recommendations based on this report and previous findings known to us</th></tr><tr><td>The patient shows elevated creatinine, indicating impaired renal function, and mildly elevated ALT, suggesting possible mild liver involvement or injury. All other parameters, including glucose, electrolytes, proteins, and lipid profile, are within normal limits. Recommend clinical correlation and further evaluation of renal and liver function.</td></tr></table></div>"
            },
            "code": {
              "coding": [
                {
                  "system": "http://loinc.org",
                  "code": "48767-8",
                  "display": "Annotation comment"
                }
              ]
            },
            "title": "Annotation comment"
          }
        ],
        "status": "final",
        "subject": {
          "reference": "urn:uuid:74833f04-fb3c-482e-b570-6e67e30d904b",
          "display": "Gioele Fabbri"
        },
        "date": "2020-06-11T17:46:20Z",
        "title": "Laboratory Report",
        "confidentiality": "N"
      }
    },
    {
      "fullUrl": "urn:uuid:0e70137d-e184-49d4-be76-d670eba29e2d",
      "resource": {
        "resourceType": "DiagnosticReport",
        "id": "0e70137d-e184-49d4-be76-d670eba29e2d",
        "meta": {
          "profile": [
            "http://hl7.eu/fhir/laboratory/StructureDefinition/DiagnosticReport-eu-lab"
          ]
        },
        "identifier": [
          {
            "assigner": {
              "display": "HL7 Europe"
            },
            "system": "urn:oid:2.16.840.1.113883.2.51.999",
            "value": "e3734e9a-d667-4e18-b95d-b4cbbf7e8de2"
          }
        ],
        "extension": [
          {
            "url": "http://hl7.org/fhir/5.0/StructureDefinition/extension-DiagnosticReport.composition",
            "valueReference": {
              "reference": "urn:uuid:60573566-0553-4e0b-907a-6fc5b5b769c4"
            }
          }
        ],
        "category": [
          {
            "coding": [
              {
                "code": "26436-6",
                "system": "http://loinc.org",
                "display": "Laboratory studies (set)"
              }
            ]
          }
        ],
        "specimen": [
          {
            "reference": "urn:uuid:d0015101-4247-465b-a0ff-307f70c1c973"
          },
          {
            "reference": "urn:uuid:a3ac051d-6541-4823-bf87-871192775e82"
          },
          {
            "reference": "urn:uuid:2d096277-bdec-4730-aeae-b1451c73c8fc"
          }
        ],
        "result": [
          {
            "reference": "urn:uuid:0e5ebd24-80f1-4beb-b2da-8295c24c4c46"
          },
          {
            "reference": "urn:uuid:2f429ea7-c19c-455b-abc0-df1b282a581a"
          },
          {
            "reference": "urn:uuid:2c6a200d-29e5-40b4-8043-8c54e30d16b4"
          },
          {
            "reference": "urn:uuid:9f9dce28-8a46-4c24-a8cf-c425fa3824b0"
          },
          {
            "reference": "urn:uuid:00966f12-f699-4c99-8d5d-5b5e3e7ecca8"
          },
          {
            "reference": "urn:uuid:a566a65d-44c1-4b21-8875-5e81687f5050"
          },
          {
            "reference": "urn:uuid:70db137e-07fe-427e-a234-d873516813d7"
          },
          {
            "reference": "urn:uuid:ffd98678-df09-4b7d-9dfa-3f88a3d51624"
          },
          {
            "reference": "urn:uuid:0bbe171d-83a5-410a-9279-073c27b2e3a5"
          },
          {
            "reference": "urn:uuid:0dc66b2a-e95d-453a-9917-f65046a383e3"
          },
          {
            "reference": "urn:uuid:e9714545-b099-4d5d-8b88-fb147dbe4ccb"
          },
          {
            "reference": "urn:uuid:273d66b1-da58-4b01-a587-1576c7c3ba5f"
          },
          {
            "reference": "urn:uuid:cf01674d-ac1a-4186-be5c-30cb1383f0e6"
          },
          {
            "reference": "urn:uuid:a45eb004-6e72-457b-9318-0aca4770d69e"
          },
          {
            "reference": "urn:uuid:baf87bbb-dbf5-4b30-80e9-ae1d2744f411"
          },
          {
            "reference": "urn:uuid:6a0415a2-f496-4a21-8417-128dff5c9712"
          },
          {
            "reference": "urn:uuid:ee73b465-7fd8-4b0c-801f-23bfa015ee30"
          },
          {
            "reference": "urn:uuid:759022ae-8e56-42ee-8014-cec85223fc1f"
          },
          {
            "reference": "urn:uuid:61b1462c-ce50-4487-ac65-c442c082dee9"
          }
        ],
        "status": "registered",
        "code": {
          "coding": [
            {
              "code": "11502-2",
              "system": "http://loinc.org",
              "display": "Laboratory report"
            }
          ]
        },
        "subject": {
          "reference": "urn:uuid:74833f04-fb3c-482e-b570-6e67e30d904b",
          "display": "Gioele Fabbri"
        }
      }
    },
    {
      "fullUrl": "urn:uuid:74833f04-fb3c-482e-b570-6e67e30d904b",
      "resource": {
        "resourceType": "Patient",
        "id": "74833f04-fb3c-482e-b570-6e67e30d904b",
        "meta": {
          "security": [
            {
              "system": "http://terminology.hl7.org/CodeSystem/v3-ActReason",
              "code": "HTEST"
            },
            {
              "system": "http://terminology.hl7.org/CodeSystem/v3-ActReason",
              "code": "TRAIN"
            }
          ],
          "tag": [
            {
              "system": "https://synderai.net/fhir/CodeSystem/tags",
              "code": "synthetic",
              "display": "SYNDERAI Synthetic data"
            }
          ],
          "profile": [
            "http://hl7.eu/fhir/base/StructureDefinition/patient-eu-core"
          ]
        },
        "identifier": [
          {
            "type": {
              "coding": [
                {
                  "code": "PT",
                  "system": "http://terminology.hl7.org/CodeSystem/v2-0203"
                }
              ]
            },
            "system": "http://ec.europa.eu/identifier/eci",
            "value": "3631-767680-1"
          },
          {
            "type": {
              "coding": [
                {
                  "code": "MR",
                  "system": "http://terminology.hl7.org/CodeSystem/v2-0203"
                }
              ]
            },
            "system": "http://local.setting.eu/identifier",
            "value": "0a14935e-e0f7-2e1e-46fa-42b10e75d1f9"
          }
        ],
        "name": [
          {
            "family": "Fabbri"
          },
          {
            "given": [
              "Gioele"
            ]
          },
          {
            "text": "Gioele Fabbri"
          }
        ],
        "address": [
          {
            "line": [
              "Canale Armani, 25"
            ],
            "use": "home",
            "type": "physical",
            "postalCode": "23887",
            "city": "Revislate",
            "country": "Italy"
          }
        ],
        "telecom": [
          {
            "system": "phone",
            "value": "+39 0423197768"
          }
        ],
        "extension": [
          {
            "url": "http://hl7.org/fhir/StructureDefinition/patient-nationality",
            "valueCodeableConcept": {
              "coding": [
                {
                  "code": "IT",
                  "system": "http://hl7.org/fhir/ValueSet/country"
                }
              ]
            }
          }
        ],
        "text": {
          "status": "generated",
          "div": "<div xmlns=\"http://www.w3.org/1999/xhtml\"><table class=\"hl7__ips\"><tr><td>Gioele Fabbri</td><td>male</td><td>12-Sep-1972</td></tr></table></div>"
        },
        "gender": "male",
        "birthDate": "1972-09-12"
      }
    },
    {
      "fullUrl": "urn:uuid:233fd347-b4cb-4c70-a2c5-9fc3ba506e2d",
      "resource": {
        "resourceType": "ServiceRequest",
        "id": "233fd347-b4cb-4c70-a2c5-9fc3ba506e2d",
        "meta": {
          "profile": [
            "http://hl7.eu/fhir/laboratory/StructureDefinition/ServiceRequest-eu-lab"
          ]
        },
        "identifier": [
          {
            "system": "http://example.org",
            "value": "2e81ff47-b36b-4c09-b77c-e2438f1e1547"
          }
        ],
        "specimen": [
          {
            "reference": "urn:uuid:d0015101-4247-465b-a0ff-307f70c1c973"
          },
          {
            "reference": "urn:uuid:a3ac051d-6541-4823-bf87-871192775e82"
          },
          {
            "reference": "urn:uuid:2d096277-bdec-4730-aeae-b1451c73c8fc"
          }
        ],
        "reasonCode": [
          {
            "coding": [
              {
                "code": "271737000",
                "system": "http://snomed.info/sct",
                "display": "Anemia"
              }
            ]
          },
          {
            "coding": [
              {
                "code": "15777000",
                "system": "http://snomed.info/sct",
                "display": "Prediabetes"
              }
            ]
          },
          {
            "coding": [
              {
                "code": "713197008",
                "system": "http://snomed.info/sct",
                "display": "Recurrent rectal polyp"
              }
            ]
          },
          {
            "coding": [
              {
                "code": "68496003",
                "system": "http://snomed.info/sct",
                "display": "Polyp of colon"
              }
            ]
          },
          {
            "coding": [
              {
                "code": "55822004",
                "system": "http://snomed.info/sct",
                "display": "Hyperlipidemia"
              }
            ]
          },
          {
            "coding": [
              {
                "code": "124171000119105",
                "system": "http://snomed.info/sct",
                "display": "Chronic intractable migraine without aura"
              }
            ]
          }
        ],
        "status": "active",
        "intent": "order",
        "code": {
          "coding": [
            {
              "code": "108252007",
              "system": "http://snomed.info/sct",
              "display": "Laboratory procedure"
            }
          ]
        },
        "subject": {
          "reference": "urn:uuid:74833f04-fb3c-482e-b570-6e67e30d904b",
          "display": "Gioele Fabbri"
        },
        "requester": {
          "reference": "urn:uuid:d260167f-dcd4-47e1-a12a-63dc190fb0ac"
        }
      }
    },
    {
      "fullUrl": "urn:uuid:d260167f-dcd4-47e1-a12a-63dc190fb0ac",
      "resource": {
        "resourceType": "PractitionerRole",
        "id": "d260167f-dcd4-47e1-a12a-63dc190fb0ac",
        "meta": {
          "profile": [
            "http://hl7.eu/fhir/base/StructureDefinition/practitionerRole-eu"
          ]
        },
        "text": {
          "status": "generated",
          "div": "<div xmlns=\"http://www.w3.org/1999/xhtml\">Provider Role Id: d260167f-dcd4-47e1-a12a-63dc190fb0ac</div>"
        },
        "organization": {
          "reference": "urn:uuid:94d49ea5-44b5-4193-b84c-39d414cc9b54"
        }
      }
    },
    {
      "fullUrl": "urn:uuid:94d49ea5-44b5-4193-b84c-39d414cc9b54",
      "resource": {
        "resourceType": "Organization",
        "id": "94d49ea5-44b5-4193-b84c-39d414cc9b54",
        "meta": {
          "profile": [
            "http://hl7.eu/fhir/base/StructureDefinition/organization-eu"
          ]
        },
        "identifier": [
          {
            "assigner": {
              "display": "HL7 Europe"
            },
            "system": "urn:oid:2.16.840.1.113883.2.51.999",
            "value": "543b5229-5921-46ac-b2ee-4bca2fae067a"
          }
        ],
        "address": [
          {
            "line": [
              "Piazza Ospedale 3"
            ],
            "city": "Calcinate",
            "postalCode": "24050",
            "country": "Italy"
          }
        ],
        "text": {
          "status": "generated",
          "div": "<div xmlns=\"http://www.w3.org/1999/xhtml\">Provider Organization: Ospedale di Calcinate &quot;F.M. Passi&quot;</div>"
        },
        "name": "Ospedale di Calcinate &quot;F.M. Passi&quot;"
      }
    },
    {
      "fullUrl": "urn:uuid:d0015101-4247-465b-a0ff-307f70c1c973",
      "resource": {
        "resourceType": "Specimen",
        "id": "d0015101-4247-465b-a0ff-307f70c1c973",
        "meta": {
          "profile": [
            "http://hl7.eu/fhir/laboratory/StructureDefinition/Specimen-eu-lab"
          ]
        },
        "collection": {
          "collectedDateTime": "2020-06-11"
        },
        "text": {
          "status": "generated",
          "div": "<div xmlns=\"http://www.w3.org/1999/xhtml\"><table class=\"hl7__eu__lab__report\"><tr><th>Specimen</th><th>Collection Date</th></tr><tr><td>Whole blood specimen (specimen)</td><td><span class=\"nb\">11-Jun-2020</span></td></tr></table></div>"
        },
        "type": {
          "coding": [
            {
              "code": "258580003",
              "system": "http://snomed.info/sct",
              "display": "Whole blood specimen (specimen)"
            }
          ]
        }
      }
    },
    {
      "fullUrl": "urn:uuid:a3ac051d-6541-4823-bf87-871192775e82",
      "resource": {
        "resourceType": "Specimen",
        "id": "a3ac051d-6541-4823-bf87-871192775e82",
        "meta": {
          "profile": [
            "http://hl7.eu/fhir/laboratory/StructureDefinition/Specimen-eu-lab"
          ]
        },
        "collection": {
          "collectedDateTime": "2020-06-11"
        },
        "text": {
          "status": "generated",
          "div": "<div xmlns=\"http://www.w3.org/1999/xhtml\"><table class=\"hl7__eu__lab__report\"><tr><th>Specimen</th><th>Collection Date</th></tr><tr><td>Acellular blood (serum or plasma) specimen</td><td><span class=\"nb\">11-Jun-2020</span></td></tr></table></div>"
        },
        "type": {
          "coding": [
            {
              "code": "122592007",
              "system": "http://snomed.info/sct",
              "display": "Acellular blood (serum or plasma) specimen"
            }
          ]
        }
      }
    },
    {
      "fullUrl": "urn:uuid:2d096277-bdec-4730-aeae-b1451c73c8fc",
      "resource": {
        "resourceType": "Specimen",
        "id": "2d096277-bdec-4730-aeae-b1451c73c8fc",
        "meta": {
          "profile": [
            "http://hl7.eu/fhir/laboratory/StructureDefinition/Specimen-eu-lab"
          ]
        },
        "collection": {
          "collectedDateTime": "2020-06-11"
        },
        "text": {
          "status": "generated",
          "div": "<div xmlns=\"http://www.w3.org/1999/xhtml\"><table class=\"hl7__eu__lab__report\"><tr><th>Specimen</th><th>Collection Date</th></tr><tr><td>Serum specimen</td><td><span class=\"nb\">11-Jun-2020</span></td></tr></table></div>"
        },
        "type": {
          "coding": [
            {
              "code": "119364003",
              "system": "http://snomed.info/sct",
              "display": "Serum specimen"
            }
          ]
        }
      }
    },
    {
      "fullUrl": "urn:uuid:0e5ebd24-80f1-4beb-b2da-8295c24c4c46",
      "resource": {
        "resourceType": "Observation",
        "id": "0e5ebd24-80f1-4beb-b2da-8295c24c4c46",
        "meta": {
          "profile": [
            "http://hl7.eu/fhir/laboratory/StructureDefinition/Observation-resultslab-eu-lab"
          ]
        },
        "performer": [
          {
            "display": "The Central European Lab"
          }
        ],
        "category": [
          {
            "coding": [
              {
                "system": "http://terminology.hl7.org/CodeSystem/observation-category",
                "code": "laboratory"
              }
            ]
          }
        ],
        "code": {
          "coding": [
            {
              "code": "2339-0",
              "system": "http://loinc.org",
              "display": "Glucose [Mass/volume] in Blood"
            }
          ],
          "text": "Glucose [Mass/volume] in Blood"
        },
        "valueQuantity": {
          "system": "http://unitsofmeasure.org",
          "value": 82,
          "unit": "mg/dL",
          "code": "mg/dL"
        },
        "referenceRange": [
          {
            "low": {
              "value": 70,
              "code": "mg/dL",
              "system": "http://unitsofmeasure.org"
            }
          },
          {
            "high": {
              "value": 99,
              "code": "mg/dL",
              "system": "http://unitsofmeasure.org"
            }
          }
        ],
        "text": {
          "status": "generated",
          "div": "<div xmlns=\"http://www.w3.org/1999/xhtml\"><table class=\"hl7__eu__lab__report\"><tr><th>Test</th><th>11-Jun-2020</th><th>Reference&#xA0;Range</th><th>Unit</th></tr><tr><td>Glucose [Mass/volume] in Blood</td><td>82.0</td><td>70 - 99</td><td></td><td>mg/dL</td></tr></table></div>"
        },
        "status": "final",
        "subject": {
          "reference": "urn:uuid:74833f04-fb3c-482e-b570-6e67e30d904b",
          "display": "Gioele Fabbri"
        },
        "effectiveDateTime": "2020-06-11T15:46:20Z",
        "specimen": {
          "reference": "urn:uuid:d0015101-4247-465b-a0ff-307f70c1c973"
        }
      }
    },
    {
      "fullUrl": "urn:uuid:2f429ea7-c19c-455b-abc0-df1b282a581a",
      "resource": {
        "resourceType": "Observation",
        "id": "2f429ea7-c19c-455b-abc0-df1b282a581a",
        "meta": {
          "profile": [
            "http://hl7.eu/fhir/laboratory/StructureDefinition/Observation-resultslab-eu-lab"
          ]
        },
        "performer": [
          {
            "display": "The Central European Lab"
          }
        ],
        "category": [
          {
            "coding": [
              {
                "system": "http://terminology.hl7.org/CodeSystem/observation-category",
                "code": "laboratory"
              }
            ]
          }
        ],
        "code": {
          "coding": [
            {
              "code": "6299-2",
              "system": "http://loinc.org",
              "display": "Urea nitrogen [Mass/volume] in Blood"
            }
          ],
          "text": "Urea nitrogen [Mass/volume] in Blood"
        },
        "valueQuantity": {
          "system": "http://unitsofmeasure.org",
          "value": 19.2,
          "unit": "mg/dL",
          "code": "mg/dL"
        },
        "referenceRange": [
          {
            "low": {
              "value": 7,
              "code": "mg/dL",
              "system": "http://unitsofmeasure.org"
            }
          },
          {
            "high": {
              "value": 20,
              "code": "mg/dL",
              "system": "http://unitsofmeasure.org"
            }
          }
        ],
        "text": {
          "status": "generated",
          "div": "<div xmlns=\"http://www.w3.org/1999/xhtml\"><table class=\"hl7__eu__lab__report\"><tr><th>Test</th><th>11-Jun-2020</th><th>Reference&#xA0;Range</th><th>Unit</th></tr><tr><td>Urea nitrogen [Mass/volume] in Blood</td><td>19.2</td><td>7 - 20</td><td></td><td>mg/dL</td></tr></table></div>"
        },
        "status": "final",
        "subject": {
          "reference": "urn:uuid:74833f04-fb3c-482e-b570-6e67e30d904b",
          "display": "Gioele Fabbri"
        },
        "effectiveDateTime": "2020-06-11T15:46:20Z",
        "specimen": {
          "reference": "urn:uuid:d0015101-4247-465b-a0ff-307f70c1c973"
        }
      }
    },
    {
      "fullUrl": "urn:uuid:2c6a200d-29e5-40b4-8043-8c54e30d16b4",
      "resource": {
        "resourceType": "Observation",
        "id": "2c6a200d-29e5-40b4-8043-8c54e30d16b4",
        "meta": {
          "profile": [
            "http://hl7.eu/fhir/laboratory/StructureDefinition/Observation-resultslab-eu-lab"
          ]
        },
        "performer": [
          {
            "display": "The Central European Lab"
          }
        ],
        "category": [
          {
            "coding": [
              {
                "system": "http://terminology.hl7.org/CodeSystem/observation-category",
                "code": "laboratory"
              }
            ]
          }
        ],
        "code": {
          "coding": [
            {
              "code": "38483-4",
              "system": "http://loinc.org",
              "display": "Creatinine [Mass/volume] in Blood"
            }
          ],
          "text": "Creatinine [Mass/volume] in Blood"
        },
        "valueQuantity": {
          "system": "http://unitsofmeasure.org",
          "value": 3.1,
          "unit": "mg/dL",
          "code": "mg/dL"
        },
        "referenceRange": [
          {
            "low": {
              "value": 0.7,
              "code": "mg/dL",
              "system": "http://unitsofmeasure.org"
            }
          },
          {
            "high": {
              "value": 1.3,
              "code": "mg/dL",
              "system": "http://unitsofmeasure.org"
            }
          }
        ],
        "interpretation": [
          {
            "coding": [
              {
                "code": "H",
                "system": "http://terminology.hl7.org/CodeSystem/v3-ObservationInterpretation",
                "display": "High"
              }
            ]
          }
        ],
        "text": {
          "status": "generated",
          "div": "<div xmlns=\"http://www.w3.org/1999/xhtml\"><table class=\"hl7__eu__lab__report\"><tr><th>Test</th><th>11-Jun-2020</th><th>Reference&#xA0;Range</th><th>Unit</th></tr><tr><td>Creatinine [Mass/volume] in Blood</td><td>3.1</td><td>0.7 - 1.3</td><td>H</td><td>mg/dL</td></tr></table></div>"
        },
        "status": "final",
        "subject": {
          "reference": "urn:uuid:74833f04-fb3c-482e-b570-6e67e30d904b",
          "display": "Gioele Fabbri"
        },
        "effectiveDateTime": "2020-06-11T15:46:20Z",
        "specimen": {
          "reference": "urn:uuid:d0015101-4247-465b-a0ff-307f70c1c973"
        }
      }
    },
    {
      "fullUrl": "urn:uuid:9f9dce28-8a46-4c24-a8cf-c425fa3824b0",
      "resource": {
        "resourceType": "Observation",
        "id": "9f9dce28-8a46-4c24-a8cf-c425fa3824b0",
        "meta": {
          "profile": [
            "http://hl7.eu/fhir/laboratory/StructureDefinition/Observation-resultslab-eu-lab"
          ]
        },
        "performer": [
          {
            "display": "The Central European Lab"
          }
        ],
        "category": [
          {
            "coding": [
              {
                "system": "http://terminology.hl7.org/CodeSystem/observation-category",
                "code": "laboratory"
              }
            ]
          }
        ],
        "code": {
          "coding": [
            {
              "code": "49765-1",
              "system": "http://loinc.org",
              "display": "Calcium [Mass/volume] in Blood"
            }
          ],
          "text": "Calcium [Mass/volume] in Blood"
        },
        "valueQuantity": {
          "system": "http://unitsofmeasure.org",
          "value": 9.2,
          "unit": "mg/dL",
          "code": "mg/dL"
        },
        "referenceRange": [
          {
            "low": {
              "value": 8.5,
              "code": "mg/dL",
              "system": "http://unitsofmeasure.org"
            }
          },
          {
            "high": {
              "value": 10.5,
              "code": "mg/dL",
              "system": "http://unitsofmeasure.org"
            }
          }
        ],
        "text": {
          "status": "generated",
          "div": "<div xmlns=\"http://www.w3.org/1999/xhtml\"><table class=\"hl7__eu__lab__report\"><tr><th>Test</th><th>11-Jun-2020</th><th>Reference&#xA0;Range</th><th>Unit</th></tr><tr><td>Calcium [Mass/volume] in Blood</td><td>9.2</td><td>8.5 - 10.5</td><td></td><td>mg/dL</td></tr></table></div>"
        },
        "status": "final",
        "subject": {
          "reference": "urn:uuid:74833f04-fb3c-482e-b570-6e67e30d904b",
          "display": "Gioele Fabbri"
        },
        "effectiveDateTime": "2020-06-11T15:46:20Z",
        "specimen": {
          "reference": "urn:uuid:d0015101-4247-465b-a0ff-307f70c1c973"
        }
      }
    },
    {
      "fullUrl": "urn:uuid:00966f12-f699-4c99-8d5d-5b5e3e7ecca8",
      "resource": {
        "resourceType": "Observation",
        "id": "00966f12-f699-4c99-8d5d-5b5e3e7ecca8",
        "meta": {
          "profile": [
            "http://hl7.eu/fhir/laboratory/StructureDefinition/Observation-resultslab-eu-lab"
          ]
        },
        "performer": [
          {
            "display": "The Central European Lab"
          }
        ],
        "category": [
          {
            "coding": [
              {
                "system": "http://terminology.hl7.org/CodeSystem/observation-category",
                "code": "laboratory"
              }
            ]
          }
        ],
        "code": {
          "coding": [
            {
              "code": "2947-0",
              "system": "http://loinc.org",
              "display": "Sodium [Moles/volume] in Blood"
            }
          ],
          "text": "Sodium [Moles/volume] in Blood"
        },
        "valueQuantity": {
          "system": "http://unitsofmeasure.org",
          "value": 141.9,
          "unit": "mmol/L",
          "code": "mmol/L"
        },
        "referenceRange": [
          {
            "low": {
              "value": 135,
              "code": "mmol/L",
              "system": "http://unitsofmeasure.org"
            }
          },
          {
            "high": {
              "value": 145,
              "code": "mmol/L",
              "system": "http://unitsofmeasure.org"
            }
          }
        ],
        "text": {
          "status": "generated",
          "div": "<div xmlns=\"http://www.w3.org/1999/xhtml\"><table class=\"hl7__eu__lab__report\"><tr><th>Test</th><th>11-Jun-2020</th><th>Reference&#xA0;Range</th><th>Unit</th></tr><tr><td>Sodium [Moles/volume] in Blood</td><td>141.9</td><td>135 - 145</td><td></td><td>mmol/L</td></tr></table></div>"
        },
        "status": "final",
        "subject": {
          "reference": "urn:uuid:74833f04-fb3c-482e-b570-6e67e30d904b",
          "display": "Gioele Fabbri"
        },
        "effectiveDateTime": "2020-06-11T15:46:20Z",
        "specimen": {
          "reference": "urn:uuid:d0015101-4247-465b-a0ff-307f70c1c973"
        }
      }
    },
    {
      "fullUrl": "urn:uuid:a566a65d-44c1-4b21-8875-5e81687f5050",
      "resource": {
        "resourceType": "Observation",
        "id": "a566a65d-44c1-4b21-8875-5e81687f5050",
        "meta": {
          "profile": [
            "http://hl7.eu/fhir/laboratory/StructureDefinition/Observation-resultslab-eu-lab"
          ]
        },
        "performer": [
          {
            "display": "The Central European Lab"
          }
        ],
        "category": [
          {
            "coding": [
              {
                "system": "http://terminology.hl7.org/CodeSystem/observation-category",
                "code": "laboratory"
              }
            ]
          }
        ],
        "code": {
          "coding": [
            {
              "code": "6298-4",
              "system": "http://loinc.org",
              "display": "Potassium [Moles/volume] in Blood"
            }
          ],
          "text": "Potassium [Moles/volume] in Blood"
        },
        "valueQuantity": {
          "system": "http://unitsofmeasure.org",
          "value": 5,
          "unit": "mmol/L",
          "code": "mmol/L"
        },
        "referenceRange": [
          {
            "low": {
              "value": 3.5,
              "code": "mmol/L",
              "system": "http://unitsofmeasure.org"
            }
          },
          {
            "high": {
              "value": 5,
              "code": "mmol/L",
              "system": "http://unitsofmeasure.org"
            }
          }
        ],
        "text": {
          "status": "generated",
          "div": "<div xmlns=\"http://www.w3.org/1999/xhtml\"><table class=\"hl7__eu__lab__report\"><tr><th>Test</th><th>11-Jun-2020</th><th>Reference&#xA0;Range</th><th>Unit</th></tr><tr><td>Potassium [Moles/volume] in Blood</td><td>5.0</td><td>3.5 - 5</td><td></td><td>mmol/L</td></tr></table></div>"
        },
        "status": "final",
        "subject": {
          "reference": "urn:uuid:74833f04-fb3c-482e-b570-6e67e30d904b",
          "display": "Gioele Fabbri"
        },
        "effectiveDateTime": "2020-06-11T15:46:20Z",
        "specimen": {
          "reference": "urn:uuid:d0015101-4247-465b-a0ff-307f70c1c973"
        }
      }
    },
    {
      "fullUrl": "urn:uuid:70db137e-07fe-427e-a234-d873516813d7",
      "resource": {
        "resourceType": "Observation",
        "id": "70db137e-07fe-427e-a234-d873516813d7",
        "meta": {
          "profile": [
            "http://hl7.eu/fhir/laboratory/StructureDefinition/Observation-resultslab-eu-lab"
          ]
        },
        "performer": [
          {
            "display": "The Central European Lab"
          }
        ],
        "category": [
          {
            "coding": [
              {
                "system": "http://terminology.hl7.org/CodeSystem/observation-category",
                "code": "laboratory"
              }
            ]
          }
        ],
        "code": {
          "coding": [
            {
              "code": "2069-3",
              "system": "http://loinc.org",
              "display": "Chloride [Moles/volume] in Blood"
            }
          ],
          "text": "Chloride [Moles/volume] in Blood"
        },
        "valueQuantity": {
          "system": "http://unitsofmeasure.org",
          "value": 104,
          "unit": "mmol/L",
          "code": "mmol/L"
        },
        "referenceRange": [
          {
            "low": {
              "value": 98,
              "code": "mmol/L",
              "system": "http://unitsofmeasure.org"
            }
          },
          {
            "high": {
              "value": 107,
              "code": "mmol/L",
              "system": "http://unitsofmeasure.org"
            }
          }
        ],
        "text": {
          "status": "generated",
          "div": "<div xmlns=\"http://www.w3.org/1999/xhtml\"><table class=\"hl7__eu__lab__report\"><tr><th>Test</th><th>11-Jun-2020</th><th>Reference&#xA0;Range</th><th>Unit</th></tr><tr><td>Chloride [Moles/volume] in Blood</td><td>104.0</td><td>98 - 107</td><td></td><td>mmol/L</td></tr></table></div>"
        },
        "status": "final",
        "subject": {
          "reference": "urn:uuid:74833f04-fb3c-482e-b570-6e67e30d904b",
          "display": "Gioele Fabbri"
        },
        "effectiveDateTime": "2020-06-11T15:46:20Z",
        "specimen": {
          "reference": "urn:uuid:d0015101-4247-465b-a0ff-307f70c1c973"
        }
      }
    },
    {
      "fullUrl": "urn:uuid:ffd98678-df09-4b7d-9dfa-3f88a3d51624",
      "resource": {
        "resourceType": "Observation",
        "id": "ffd98678-df09-4b7d-9dfa-3f88a3d51624",
        "meta": {
          "profile": [
            "http://hl7.eu/fhir/laboratory/StructureDefinition/Observation-resultslab-eu-lab"
          ]
        },
        "performer": [
          {
            "display": "The Central European Lab"
          }
        ],
        "category": [
          {
            "coding": [
              {
                "system": "http://terminology.hl7.org/CodeSystem/observation-category",
                "code": "laboratory"
              }
            ]
          }
        ],
        "code": {
          "coding": [
            {
              "code": "20565-8",
              "system": "http://loinc.org",
              "display": "Carbon dioxide, total [Moles/volume] in Blood"
            }
          ],
          "text": "Carbon dioxide, total [Moles/volume] in Blood"
        },
        "valueQuantity": {
          "system": "http://unitsofmeasure.org",
          "value": 27.6,
          "unit": "mmol/L",
          "code": "mmol/L"
        },
        "referenceRange": [
          {
            "low": {
              "value": 24,
              "code": "mmol/L",
              "system": "http://unitsofmeasure.org"
            }
          },
          {
            "high": {
              "value": 29,
              "code": "mmol/L",
              "system": "http://unitsofmeasure.org"
            }
          }
        ],
        "text": {
          "status": "generated",
          "div": "<div xmlns=\"http://www.w3.org/1999/xhtml\"><table class=\"hl7__eu__lab__report\"><tr><th>Test</th><th>11-Jun-2020</th><th>Reference&#xA0;Range</th><th>Unit</th></tr><tr><td>Carbon dioxide, total [Moles/volume] in Blood</td><td>27.6</td><td>24 - 29</td><td></td><td>mmol/L</td></tr></table></div>"
        },
        "status": "final",
        "subject": {
          "reference": "urn:uuid:74833f04-fb3c-482e-b570-6e67e30d904b",
          "display": "Gioele Fabbri"
        },
        "effectiveDateTime": "2020-06-11T15:46:20Z",
        "specimen": {
          "reference": "urn:uuid:d0015101-4247-465b-a0ff-307f70c1c973"
        }
      }
    },
    {
      "fullUrl": "urn:uuid:0bbe171d-83a5-410a-9279-073c27b2e3a5",
      "resource": {
        "resourceType": "Observation",
        "id": "0bbe171d-83a5-410a-9279-073c27b2e3a5",
        "meta": {
          "profile": [
            "http://hl7.eu/fhir/laboratory/StructureDefinition/Observation-resultslab-eu-lab"
          ]
        },
        "performer": [
          {
            "display": "The Central European Lab"
          }
        ],
        "category": [
          {
            "coding": [
              {
                "system": "http://terminology.hl7.org/CodeSystem/observation-category",
                "code": "laboratory"
              }
            ]
          }
        ],
        "code": {
          "coding": [
            {
              "code": "2885-2",
              "system": "http://loinc.org",
              "display": "Protein [Mass/volume] in Serum or Plasma"
            }
          ],
          "text": "Protein [Mass/volume] in Serum or Plasma"
        },
        "valueQuantity": {
          "system": "http://unitsofmeasure.org",
          "value": 7.5,
          "unit": "g/dL",
          "code": "g/dL"
        },
        "referenceRange": [
          {
            "low": {
              "value": 6.6,
              "code": "g/dL",
              "system": "http://unitsofmeasure.org"
            }
          },
          {
            "high": {
              "value": 8.3,
              "code": "g/dL",
              "system": "http://unitsofmeasure.org"
            }
          }
        ],
        "text": {
          "status": "generated",
          "div": "<div xmlns=\"http://www.w3.org/1999/xhtml\"><table class=\"hl7__eu__lab__report\"><tr><th>Test</th><th>11-Jun-2020</th><th>Reference&#xA0;Range</th><th>Unit</th></tr><tr><td>Protein [Mass/volume] in Serum or Plasma</td><td>7.5</td><td>6.6 - 8.3</td><td></td><td>g/dL</td></tr></table></div>"
        },
        "status": "final",
        "subject": {
          "reference": "urn:uuid:74833f04-fb3c-482e-b570-6e67e30d904b",
          "display": "Gioele Fabbri"
        },
        "effectiveDateTime": "2020-06-11T15:46:20Z",
        "specimen": {
          "reference": "urn:uuid:a3ac051d-6541-4823-bf87-871192775e82"
        }
      }
    },
    {
      "fullUrl": "urn:uuid:0dc66b2a-e95d-453a-9917-f65046a383e3",
      "resource": {
        "resourceType": "Observation",
        "id": "0dc66b2a-e95d-453a-9917-f65046a383e3",
        "meta": {
          "profile": [
            "http://hl7.eu/fhir/laboratory/StructureDefinition/Observation-resultslab-eu-lab"
          ]
        },
        "performer": [
          {
            "display": "The Central European Lab"
          }
        ],
        "category": [
          {
            "coding": [
              {
                "system": "http://terminology.hl7.org/CodeSystem/observation-category",
                "code": "laboratory"
              }
            ]
          }
        ],
        "code": {
          "coding": [
            {
              "code": "1751-7",
              "system": "http://loinc.org",
              "display": "Albumin [Mass/volume] in Serum or Plasma"
            }
          ],
          "text": "Albumin [Mass/volume] in Serum or Plasma"
        },
        "valueQuantity": {
          "system": "http://unitsofmeasure.org",
          "value": 3.8,
          "unit": "g/dL",
          "code": "g/dL"
        },
        "referenceRange": [
          {
            "low": {
              "value": 3.5,
              "code": "g/dL",
              "system": "http://unitsofmeasure.org"
            }
          },
          {
            "high": {
              "value": 5.5,
              "code": "g/dL",
              "system": "http://unitsofmeasure.org"
            }
          }
        ],
        "text": {
          "status": "generated",
          "div": "<div xmlns=\"http://www.w3.org/1999/xhtml\"><table class=\"hl7__eu__lab__report\"><tr><th>Test</th><th>11-Jun-2020</th><th>Reference&#xA0;Range</th><th>Unit</th></tr><tr><td>Albumin [Mass/volume] in Serum or Plasma</td><td>3.8</td><td>3.5 - 5.5</td><td></td><td>g/dL</td></tr></table></div>"
        },
        "status": "final",
        "subject": {
          "reference": "urn:uuid:74833f04-fb3c-482e-b570-6e67e30d904b",
          "display": "Gioele Fabbri"
        },
        "effectiveDateTime": "2020-06-11T15:46:20Z",
        "specimen": {
          "reference": "urn:uuid:a3ac051d-6541-4823-bf87-871192775e82"
        }
      }
    },
    {
      "fullUrl": "urn:uuid:e9714545-b099-4d5d-8b88-fb147dbe4ccb",
      "resource": {
        "resourceType": "Observation",
        "id": "e9714545-b099-4d5d-8b88-fb147dbe4ccb",
        "meta": {
          "profile": [
            "http://hl7.eu/fhir/laboratory/StructureDefinition/Observation-resultslab-eu-lab"
          ]
        },
        "performer": [
          {
            "display": "The Central European Lab"
          }
        ],
        "category": [
          {
            "coding": [
              {
                "system": "http://terminology.hl7.org/CodeSystem/observation-category",
                "code": "laboratory"
              }
            ]
          }
        ],
        "code": {
          "coding": [
            {
              "code": "10834-0",
              "system": "http://loinc.org",
              "display": "Globulin [Mass/volume] in Serum by calculation"
            }
          ],
          "text": "Globulin [Mass/volume] in Serum by calculation"
        },
        "valueQuantity": {
          "system": "http://unitsofmeasure.org",
          "value": 2.8,
          "unit": "g/L",
          "code": "g/L"
        },
        "referenceRange": [
          {
            "low": {
              "value": 2,
              "code": "g/L",
              "system": "http://unitsofmeasure.org"
            }
          },
          {
            "high": {
              "value": 3.5,
              "code": "g/L",
              "system": "http://unitsofmeasure.org"
            }
          }
        ],
        "text": {
          "status": "generated",
          "div": "<div xmlns=\"http://www.w3.org/1999/xhtml\"><table class=\"hl7__eu__lab__report\"><tr><th>Test</th><th>11-Jun-2020</th><th>Reference&#xA0;Range</th><th>Unit</th></tr><tr><td>Globulin [Mass/volume] in Serum by calculation</td><td>2.8</td><td>2 - 3.5</td><td></td><td>g/L</td></tr></table></div>"
        },
        "status": "final",
        "subject": {
          "reference": "urn:uuid:74833f04-fb3c-482e-b570-6e67e30d904b",
          "display": "Gioele Fabbri"
        },
        "effectiveDateTime": "2020-06-11T15:46:20Z",
        "specimen": {
          "reference": "urn:uuid:2d096277-bdec-4730-aeae-b1451c73c8fc"
        }
      }
    },
    {
      "fullUrl": "urn:uuid:273d66b1-da58-4b01-a587-1576c7c3ba5f",
      "resource": {
        "resourceType": "Observation",
        "id": "273d66b1-da58-4b01-a587-1576c7c3ba5f",
        "meta": {
          "profile": [
            "http://hl7.eu/fhir/laboratory/StructureDefinition/Observation-resultslab-eu-lab"
          ]
        },
        "performer": [
          {
            "display": "The Central European Lab"
          }
        ],
        "category": [
          {
            "coding": [
              {
                "system": "http://terminology.hl7.org/CodeSystem/observation-category",
                "code": "laboratory"
              }
            ]
          }
        ],
        "code": {
          "coding": [
            {
              "code": "1975-2",
              "system": "http://loinc.org",
              "display": "Bilirubin.total [Mass/volume] in Serum or Plasma"
            }
          ],
          "text": "Bilirubin.total [Mass/volume] in Serum or Plasma"
        },
        "valueQuantity": {
          "system": "http://unitsofmeasure.org",
          "value": 0.4,
          "unit": "mg/dL",
          "code": "mg/dL"
        },
        "referenceRange": [
          {
            "low": {
              "value": 0.3,
              "code": "mg/dL",
              "system": "http://unitsofmeasure.org"
            }
          },
          {
            "high": {
              "value": 1.2,
              "code": "mg/dL",
              "system": "http://unitsofmeasure.org"
            }
          }
        ],
        "text": {
          "status": "generated",
          "div": "<div xmlns=\"http://www.w3.org/1999/xhtml\"><table class=\"hl7__eu__lab__report\"><tr><th>Test</th><th>11-Jun-2020</th><th>Reference&#xA0;Range</th><th>Unit</th></tr><tr><td>Bilirubin.total [Mass/volume] in Serum or Plasma</td><td>0.4</td><td>0.3 - 1.2</td><td></td><td>mg/dL</td></tr></table></div>"
        },
        "status": "final",
        "subject": {
          "reference": "urn:uuid:74833f04-fb3c-482e-b570-6e67e30d904b",
          "display": "Gioele Fabbri"
        },
        "effectiveDateTime": "2020-06-11T15:46:20Z",
        "specimen": {
          "reference": "urn:uuid:a3ac051d-6541-4823-bf87-871192775e82"
        }
      }
    },
    {
      "fullUrl": "urn:uuid:cf01674d-ac1a-4186-be5c-30cb1383f0e6",
      "resource": {
        "resourceType": "Observation",
        "id": "cf01674d-ac1a-4186-be5c-30cb1383f0e6",
        "meta": {
          "profile": [
            "http://hl7.eu/fhir/laboratory/StructureDefinition/Observation-resultslab-eu-lab"
          ]
        },
        "performer": [
          {
            "display": "The Central European Lab"
          }
        ],
        "category": [
          {
            "coding": [
              {
                "system": "http://terminology.hl7.org/CodeSystem/observation-category",
                "code": "laboratory"
              }
            ]
          }
        ],
        "code": {
          "coding": [
            {
              "code": "6768-6",
              "system": "http://loinc.org",
              "display": "Alkaline phosphatase [Enzymatic activity/volume] in Serum or Plasma"
            }
          ],
          "text": "Alkaline phosphatase [Enzymatic activity/volume] in Serum or Plasma"
        },
        "valueQuantity": {
          "system": "http://unitsofmeasure.org",
          "value": 62.7,
          "unit": "U/L",
          "code": "U/L"
        },
        "referenceRange": [
          {
            "low": {
              "value": 39,
              "code": "U/L",
              "system": "http://unitsofmeasure.org"
            }
          },
          {
            "high": {
              "value": 136,
              "code": "U/L",
              "system": "http://unitsofmeasure.org"
            }
          }
        ],
        "text": {
          "status": "generated",
          "div": "<div xmlns=\"http://www.w3.org/1999/xhtml\"><table class=\"hl7__eu__lab__report\"><tr><th>Test</th><th>11-Jun-2020</th><th>Reference&#xA0;Range</th><th>Unit</th></tr><tr><td>Alkaline phosphatase [Enzymatic activity/volume] in Serum or Plasma</td><td>62.7</td><td>39 - 136</td><td></td><td>U/L</td></tr></table></div>"
        },
        "status": "final",
        "subject": {
          "reference": "urn:uuid:74833f04-fb3c-482e-b570-6e67e30d904b",
          "display": "Gioele Fabbri"
        },
        "effectiveDateTime": "2020-06-11T15:46:20Z",
        "specimen": {
          "reference": "urn:uuid:a3ac051d-6541-4823-bf87-871192775e82"
        }
      }
    },
    {
      "fullUrl": "urn:uuid:a45eb004-6e72-457b-9318-0aca4770d69e",
      "resource": {
        "resourceType": "Observation",
        "id": "a45eb004-6e72-457b-9318-0aca4770d69e",
        "meta": {
          "profile": [
            "http://hl7.eu/fhir/laboratory/StructureDefinition/Observation-resultslab-eu-lab"
          ]
        },
        "performer": [
          {
            "display": "The Central European Lab"
          }
        ],
        "category": [
          {
            "coding": [
              {
                "system": "http://terminology.hl7.org/CodeSystem/observation-category",
                "code": "laboratory"
              }
            ]
          }
        ],
        "code": {
          "coding": [
            {
              "code": "1742-6",
              "system": "http://loinc.org",
              "display": "Alanine aminotransferase [Enzymatic activity/volume] in Serum or Plasma"
            }
          ],
          "text": "Alanine aminotransferase [Enzymatic activity/volume] in Serum or Plasma"
        },
        "valueQuantity": {
          "system": "http://unitsofmeasure.org",
          "value": 58.7,
          "unit": "U/L",
          "code": "U/L"
        },
        "referenceRange": [
          {
            "low": {
              "value": 7,
              "code": "U/L",
              "system": "http://unitsofmeasure.org"
            }
          },
          {
            "high": {
              "value": 52,
              "code": "U/L",
              "system": "http://unitsofmeasure.org"
            }
          }
        ],
        "interpretation": [
          {
            "coding": [
              {
                "code": "H",
                "system": "http://terminology.hl7.org/CodeSystem/v3-ObservationInterpretation",
                "display": "High"
              }
            ]
          }
        ],
        "text": {
          "status": "generated",
          "div": "<div xmlns=\"http://www.w3.org/1999/xhtml\"><table class=\"hl7__eu__lab__report\"><tr><th>Test</th><th>11-Jun-2020</th><th>Reference&#xA0;Range</th><th>Unit</th></tr><tr><td>Alanine aminotransferase [Enzymatic activity/volume] in Serum or Plasma</td><td>58.7</td><td>7 - 52</td><td>H</td><td>U/L</td></tr></table></div>"
        },
        "status": "final",
        "subject": {
          "reference": "urn:uuid:74833f04-fb3c-482e-b570-6e67e30d904b",
          "display": "Gioele Fabbri"
        },
        "effectiveDateTime": "2020-06-11T15:46:20Z",
        "specimen": {
          "reference": "urn:uuid:a3ac051d-6541-4823-bf87-871192775e82"
        }
      }
    },
    {
      "fullUrl": "urn:uuid:baf87bbb-dbf5-4b30-80e9-ae1d2744f411",
      "resource": {
        "resourceType": "Observation",
        "id": "baf87bbb-dbf5-4b30-80e9-ae1d2744f411",
        "meta": {
          "profile": [
            "http://hl7.eu/fhir/laboratory/StructureDefinition/Observation-resultslab-eu-lab"
          ]
        },
        "performer": [
          {
            "display": "The Central European Lab"
          }
        ],
        "category": [
          {
            "coding": [
              {
                "system": "http://terminology.hl7.org/CodeSystem/observation-category",
                "code": "laboratory"
              }
            ]
          }
        ],
        "code": {
          "coding": [
            {
              "code": "1920-8",
              "system": "http://loinc.org",
              "display": "Aspartate aminotransferase [Enzymatic activity/volume] in Serum or Plasma"
            }
          ],
          "text": "Aspartate aminotransferase [Enzymatic activity/volume] in Serum or Plasma"
        },
        "valueQuantity": {
          "system": "http://unitsofmeasure.org",
          "value": 38.5,
          "unit": "U/L",
          "code": "U/L"
        },
        "referenceRange": [
          {
            "low": {
              "value": 10,
              "code": "U/L",
              "system": "http://unitsofmeasure.org"
            }
          },
          {
            "high": {
              "value": 40,
              "code": "U/L",
              "system": "http://unitsofmeasure.org"
            }
          }
        ],
        "text": {
          "status": "generated",
          "div": "<div xmlns=\"http://www.w3.org/1999/xhtml\"><table class=\"hl7__eu__lab__report\"><tr><th>Test</th><th>11-Jun-2020</th><th>Reference&#xA0;Range</th><th>Unit</th></tr><tr><td>Aspartate aminotransferase [Enzymatic activity/volume] in Serum or Plasma</td><td>38.5</td><td>10 - 40</td><td></td><td>U/L</td></tr></table></div>"
        },
        "status": "final",
        "subject": {
          "reference": "urn:uuid:74833f04-fb3c-482e-b570-6e67e30d904b",
          "display": "Gioele Fabbri"
        },
        "effectiveDateTime": "2020-06-11T15:46:20Z",
        "specimen": {
          "reference": "urn:uuid:a3ac051d-6541-4823-bf87-871192775e82"
        }
      }
    },
    {
      "fullUrl": "urn:uuid:6a0415a2-f496-4a21-8417-128dff5c9712",
      "resource": {
        "resourceType": "Observation",
        "id": "6a0415a2-f496-4a21-8417-128dff5c9712",
        "meta": {
          "profile": [
            "http://hl7.eu/fhir/laboratory/StructureDefinition/Observation-resultslab-eu-lab"
          ]
        },
        "performer": [
          {
            "display": "The Central European Lab"
          }
        ],
        "category": [
          {
            "coding": [
              {
                "system": "http://terminology.hl7.org/CodeSystem/observation-category",
                "code": "laboratory"
              }
            ]
          }
        ],
        "code": {
          "coding": [
            {
              "code": "2093-3",
              "system": "http://loinc.org",
              "display": "Cholesterol [Mass/volume] in Serum or Plasma"
            }
          ],
          "text": "Cholesterol [Mass/volume] in Serum or Plasma"
        },
        "valueQuantity": {
          "system": "http://unitsofmeasure.org",
          "value": 175.1,
          "unit": "mg/dL",
          "code": "mg/dL"
        },
        "referenceRange": [
          {
            "low": {
              "value": 125,
              "code": "mg/dL",
              "system": "http://unitsofmeasure.org"
            }
          },
          {
            "high": {
              "value": 200,
              "code": "mg/dL",
              "system": "http://unitsofmeasure.org"
            }
          }
        ],
        "text": {
          "status": "generated",
          "div": "<div xmlns=\"http://www.w3.org/1999/xhtml\"><table class=\"hl7__eu__lab__report\"><tr><th>Test</th><th>11-Jun-2020</th><th>Reference&#xA0;Range</th><th>Unit</th></tr><tr><td>Cholesterol [Mass/volume] in Serum or Plasma</td><td>175.1</td><td>125 - 200</td><td></td><td>mg/dL</td></tr></table></div>"
        },
        "status": "final",
        "subject": {
          "reference": "urn:uuid:74833f04-fb3c-482e-b570-6e67e30d904b",
          "display": "Gioele Fabbri"
        },
        "effectiveDateTime": "2020-06-11T15:46:20Z",
        "specimen": {
          "reference": "urn:uuid:a3ac051d-6541-4823-bf87-871192775e82"
        }
      }
    },
    {
      "fullUrl": "urn:uuid:ee73b465-7fd8-4b0c-801f-23bfa015ee30",
      "resource": {
        "resourceType": "Observation",
        "id": "ee73b465-7fd8-4b0c-801f-23bfa015ee30",
        "meta": {
          "profile": [
            "http://hl7.eu/fhir/laboratory/StructureDefinition/Observation-resultslab-eu-lab"
          ]
        },
        "performer": [
          {
            "display": "The Central European Lab"
          }
        ],
        "category": [
          {
            "coding": [
              {
                "system": "http://terminology.hl7.org/CodeSystem/observation-category",
                "code": "laboratory"
              }
            ]
          }
        ],
        "code": {
          "coding": [
            {
              "code": "2571-8",
              "system": "http://loinc.org",
              "display": "Triglyceride [Mass/volume] in Serum or Plasma"
            }
          ],
          "text": "Triglyceride [Mass/volume] in Serum or Plasma"
        },
        "valueQuantity": {
          "system": "http://unitsofmeasure.org",
          "value": 116,
          "unit": "mg/dL",
          "code": "mg/dL"
        },
        "referenceRange": [
          {
            "low": {
              "value": 0,
              "code": "mg/dL",
              "system": "http://unitsofmeasure.org"
            }
          },
          {
            "high": {
              "value": 150,
              "code": "mg/dL",
              "system": "http://unitsofmeasure.org"
            }
          }
        ],
        "text": {
          "status": "generated",
          "div": "<div xmlns=\"http://www.w3.org/1999/xhtml\"><table class=\"hl7__eu__lab__report\"><tr><th>Test</th><th>11-Jun-2020</th><th>Reference&#xA0;Range</th><th>Unit</th></tr><tr><td>Triglyceride [Mass/volume] in Serum or Plasma</td><td>116.0</td><td>0 - 150</td><td></td><td>mg/dL</td></tr></table></div>"
        },
        "status": "final",
        "subject": {
          "reference": "urn:uuid:74833f04-fb3c-482e-b570-6e67e30d904b",
          "display": "Gioele Fabbri"
        },
        "effectiveDateTime": "2020-06-11T15:46:20Z",
        "specimen": {
          "reference": "urn:uuid:a3ac051d-6541-4823-bf87-871192775e82"
        }
      }
    },
    {
      "fullUrl": "urn:uuid:759022ae-8e56-42ee-8014-cec85223fc1f",
      "resource": {
        "resourceType": "Observation",
        "id": "759022ae-8e56-42ee-8014-cec85223fc1f",
        "meta": {
          "profile": [
            "http://hl7.eu/fhir/laboratory/StructureDefinition/Observation-resultslab-eu-lab"
          ]
        },
        "performer": [
          {
            "display": "The Central European Lab"
          }
        ],
        "category": [
          {
            "coding": [
              {
                "system": "http://terminology.hl7.org/CodeSystem/observation-category",
                "code": "laboratory"
              }
            ]
          }
        ],
        "code": {
          "coding": [
            {
              "code": "18262-6",
              "system": "http://loinc.org",
              "display": "Cholesterol in LDL [Mass/volume] in Serum or Plasma by Direct assay"
            }
          ],
          "text": "Cholesterol in LDL [Mass/volume] in Serum or Plasma by Direct assay"
        },
        "valueQuantity": {
          "system": "http://unitsofmeasure.org",
          "value": 80.2,
          "unit": "mg/dL",
          "code": "mg/dL"
        },
        "referenceRange": [
          {
            "low": {
              "value": 0,
              "code": "mg/dL",
              "system": "http://unitsofmeasure.org"
            }
          },
          {
            "high": {
              "value": 130,
              "code": "mg/dL",
              "system": "http://unitsofmeasure.org"
            }
          }
        ],
        "text": {
          "status": "generated",
          "div": "<div xmlns=\"http://www.w3.org/1999/xhtml\"><table class=\"hl7__eu__lab__report\"><tr><th>Test</th><th>11-Jun-2020</th><th>Reference&#xA0;Range</th><th>Unit</th></tr><tr><td>Cholesterol in LDL [Mass/volume] in Serum or Plasma by Direct assay</td><td>80.2</td><td>0 - 130</td><td></td><td>mg/dL</td></tr></table></div>"
        },
        "status": "final",
        "subject": {
          "reference": "urn:uuid:74833f04-fb3c-482e-b570-6e67e30d904b",
          "display": "Gioele Fabbri"
        },
        "effectiveDateTime": "2020-06-11T15:46:20Z",
        "specimen": {
          "reference": "urn:uuid:a3ac051d-6541-4823-bf87-871192775e82"
        }
      }
    },
    {
      "fullUrl": "urn:uuid:61b1462c-ce50-4487-ac65-c442c082dee9",
      "resource": {
        "resourceType": "Observation",
        "id": "61b1462c-ce50-4487-ac65-c442c082dee9",
        "meta": {
          "profile": [
            "http://hl7.eu/fhir/laboratory/StructureDefinition/Observation-resultslab-eu-lab"
          ]
        },
        "performer": [
          {
            "display": "The Central European Lab"
          }
        ],
        "category": [
          {
            "coding": [
              {
                "system": "http://terminology.hl7.org/CodeSystem/observation-category",
                "code": "laboratory"
              }
            ]
          }
        ],
        "code": {
          "coding": [
            {
              "code": "2085-9",
              "system": "http://loinc.org",
              "display": "Cholesterol in HDL [Mass/volume] in Serum or Plasma"
            }
          ],
          "text": "Cholesterol in HDL [Mass/volume] in Serum or Plasma"
        },
        "valueQuantity": {
          "system": "http://unitsofmeasure.org",
          "value": 44.3,
          "unit": "mg/dL",
          "code": "mg/dL"
        },
        "referenceRange": [
          {
            "low": {
              "value": 40,
              "code": "mg/dL",
              "system": "http://unitsofmeasure.org"
            }
          },
          {
            "high": {
              "value": 100,
              "code": "mg/dL",
              "system": "http://unitsofmeasure.org"
            }
          }
        ],
        "text": {
          "status": "generated",
          "div": "<div xmlns=\"http://www.w3.org/1999/xhtml\"><table class=\"hl7__eu__lab__report\"><tr><th>Test</th><th>11-Jun-2020</th><th>Reference&#xA0;Range</th><th>Unit</th></tr><tr><td>Cholesterol in HDL [Mass/volume] in Serum or Plasma</td><td>44.3</td><td>40 - 100</td><td></td><td>mg/dL</td></tr></table></div>"
        },
        "status": "final",
        "subject": {
          "reference": "urn:uuid:74833f04-fb3c-482e-b570-6e67e30d904b",
          "display": "Gioele Fabbri"
        },
        "effectiveDateTime": "2020-06-11T15:46:20Z",
        "specimen": {
          "reference": "urn:uuid:a3ac051d-6541-4823-bf87-871192775e82"
        }
      }
    },
    {
      "fullUrl": "urn:uuid:cf6edcc1-eb93-4581-a432-76fd69eb7dd9",
      "resource": {
        "resourceType": "Device",
        "id": "cf6edcc1-eb93-4581-a432-76fd69eb7dd9",
        "deviceName": [
          {
            "name": "SYNDERAI Synthetic Generator",
            "type": "manufacturer-name"
          }
        ],
        "version": [
          {
            "value": "5.0"
          }
        ],
        "text": {
          "status": "generated",
          "div": "<div xmlns=\"http://www.w3.org/1999/xhtml\">SYNDERAI Synthetic Generator v5.0</div>"
        },
        "status": "active\"",
        "distinctIdentifier": "synderai-generator-50",
        "manufacturer": "SYNDERAI Project"
      }
    },
    {
      "fullUrl": "urn:uuid:d90d19e0-c4f3-4ffb-a207-466f5537c233",
      "resource": {
        "resourceType": "Provenance",
        "id": "d90d19e0-c4f3-4ffb-a207-466f5537c233",
        "target": [
          {
            "reference": "Patient/74833f04-fb3c-482e-b570-6e67e30d904b"
          },
          {
            "reference": "Bundle/123a748e-39bf-479a-a1c0-5c6f758241b4"
          },
          {
            "reference": "Composition/647ddd67-3a00-49d7-ba6f-bd7d41e3bf75"
          },
          {
            "reference": "PractitionerRole/0cba7ddb-5a75-4fb1-9912-a1b544c1671b"
          },
          {
            "reference": "Practitioner/8cf52d0d-5877-4fe0-886e-72370fb67f9f"
          },
          {
            "reference": "PractitionerRole/d260167f-dcd4-47e1-a12a-63dc190fb0ac"
          },
          {
            "reference": "Organization/94d49ea5-44b5-4193-b84c-39d414cc9b54"
          }
        ],
        "activity": {
          "text": "Synthetic Example Data Generation"
        },
        "policy": [
          "https://synderai.net/synderai-synthetic-data-policy"
        ],
        "agent": [
          {
            "type": {
              "text": "author"
            },
            "who": {
              "reference": "Device/cf6edcc1-eb93-4581-a432-76fd69eb7dd9"
            }
          }
        ],
        "reason": [
          {
            "text": "Interoperability Testing and Training (non-clinical use)"
          }
        ],
        "text": {
          "status": "generated",
          "div": "<div xmlns=\"http://www.w3.org/1999/xhtml\">Provenance for SYNDERAI Synthetic Example Data Resource</div>"
        },
        "recorded": "2020-06-11T17:46:20Z"
      }
    },
    {
      "fullUrl": "urn:uuid:0cba7ddb-5a75-4fb1-9912-a1b544c1671b",
      "resource": {
        "resourceType": "PractitionerRole",
        "id": "0cba7ddb-5a75-4fb1-9912-a1b544c1671b",
        "meta": {
          "profile": [
            "http://hl7.eu/fhir/base/StructureDefinition/practitionerRole-eu"
          ]
        },
        "text": {
          "status": "generated",
          "div": "<div xmlns=\"http://www.w3.org/1999/xhtml\">Laboratory Role Id: 0cba7ddb-5a75-4fb1-9912-a1b544c1671b</div>"
        },
        "practitioner": {
          "reference": "urn:uuid:8cf52d0d-5877-4fe0-886e-72370fb67f9f"
        }
      }
    },
    {
      "fullUrl": "urn:uuid:8cf52d0d-5877-4fe0-886e-72370fb67f9f",
      "resource": {
        "resourceType": "Practitioner",
        "id": "8cf52d0d-5877-4fe0-886e-72370fb67f9f",
        "meta": {
          "profile": [
            "http://hl7.eu/fhir/base/StructureDefinition/practitioner-eu"
          ]
        },
        "identifier": [
          {
            "assigner": {
              "display": "HL7 Europe"
            },
            "system": "urn:oid:2.16.840.1.113883.2.51.999",
            "value": "325a0400-e0aa-4dff-bbed-e037b425a88e"
          }
        ],
        "name": [
          {
            "prefix": [
              "dr"
            ],
            "given": [
              "Ex"
            ],
            "family": "Ample"
          }
        ],
        "address": [
          {
            "line": [
              "Laboratoire Central Européenne",
              "Boulevard du Jardin Botanique 32"
            ],
            "postalCode": "1000",
            "city": "Brussels",
            "country": "Belgium"
          }
        ],
        "text": {
          "status": "generated",
          "div": "<div xmlns=\"http://www.w3.org/1999/xhtml\">Laboratory: Laboratoire Central Européenne, 1000 Brussels, Belgium</div>"
        }
      }
    }
  ],
  "type": "document",
  "timestamp": "2020-06-11T17:46:20Z"
}
