<Bundle xmlns="http://hl7.org/fhir">
   <id value="eab62214-2b24-434d-951b-f57629022aa8"/>
   <meta>
      <profile value="http://hl7.eu/fhir/laboratory/StructureDefinition/Bundle-eu-lab"/>
   </meta>
   <identifier>
      <system value="urn:oid:2.16.840.1.113883.2.51.999"/>
      <value value="645da4af-dbfb-403a-8c6c-80d70dc5bbfd"/>
      <assigner>
         <display value="HL7 Europe"/>
      </assigner>
   </identifier>
   <type value="document"/>
   <timestamp value="2019-05-06T18:21:12Z"/>
   <entry>
      <fullUrl value="urn:uuid:ab013383-54f2-4fbd-97d3-b820d047687b"/>
      <resource>
         <Composition>
            <id value="ab013383-54f2-4fbd-97d3-b820d047687b"/>
            <meta>
               <profile value="http://hl7.eu/fhir/laboratory/StructureDefinition/Composition-eu-lab"/>
            </meta>
            <identifier>
               <system value="urn:oid:2.16.840.1.113883.2.51.999"/>
               <value value="5befbfc1-3fe4-446f-bba9-8dc24f49a9cd"/>
               <assigner>
                  <display value="HL7 Europe"/>
               </assigner>
            </identifier>
            <status value="final"/>
            <type>
               <coding>
                  <system value="http://loinc.org"/>
                  <code value="11502-2"/>
                  <display value="Laboratory report"/>
               </coding>
               <text value="Laboratory Report"/>
            </type>
            <category>
               <coding>
                  <system value="http://loinc.org"/>
                  <code value="26436-6"/>
                  <display value="Laboratory studies (set)"/>
               </coding>
            </category>
            <subject>
               <reference value="urn:uuid:459d3629-369b-440d-b172-6a7512b4d50c"/>
               <display value="Gioele Fabbri"/>
            </subject>
            <date value="2019-05-06T18:21:12Z"/>
            <author>
               <reference value="urn:uuid:0cee8279-31db-45e4-96cf-e5b31a72b166"/>
            </author>
            <title value="Laboratory Report"/>
            <confidentiality value="N"/>
            <section>
               <title value="Laboratory Report"/>
               <code>
                  <coding>
                     <system value="http://loinc.org"/>
                     <code value="26436-6"/>
                     <display value="Laboratory studies (set)"/>
                  </coding>
                  <text value="Laboratory studies"/>
               </code>
               <section>
                  <title value="Chemistry"/>
                  <code>
                     <coding>
                        <system value="http://loinc.org"/>
                        <code value="$18719-5"/>
                        <display value="Chemistry studies (set)"/>
                     </coding>
                     <text value="Chemistry"/>
                  </code>
                  <text>
                     <status value="generated"/>
                     <div xmlns="http://www.w3.org/1999/xhtml">
                        <h3>Chemistry</h3>
                        <table class="hl7__eu__lab__report">
                           <thead>
                              <tr>
                                 <th>Test</th>
                                 <th>06-MAY-2019</th>
                                 <th>Reference Range</th>
                                 <th>Unit</th>
                              </tr>
                           </thead>
                           <tbody>
                              <tr>
                                 <td>Hemoglobin.gastrointestinal.lower [Presence] in Stool by Immunoassay --1st specimen</td>
                                 <td>20.6</td>
                                 <td>0 - 200</td>
                                 <td>ng/mL</td>
                              </tr>
                           </tbody>
                        </table>
                     </div>
                  </text>
                  <entry>
                     <reference value="urn:uuid:d5beb064-c16d-4c54-ae93-5ab659544add"/>
                  </entry>
               </section>
               <section>
                  <title value="Cancer pathology panel"/>
                  <code>
                     <coding>
                        <system value="http://loinc.org"/>
                        <code value="$LP207911-1"/>
                        <display value="Cancer pathology panel"/>
                     </coding>
                     <text value="Cancer pathology panel"/>
                  </code>
                  <text>
                     <status value="generated"/>
                     <div xmlns="http://www.w3.org/1999/xhtml">
                        <h3>Cancer pathology panel</h3>
                        <table class="hl7__eu__lab__report">
                           <thead>
                              <tr>
                                 <th>Test</th>
                                 <th>06-MAY-2019</th>
                                 <th>Reference Range</th>
                                 <th>Unit</th>
                              </tr>
                           </thead>
                           <tbody>
                              <tr>
                                 <td>Polyp size greatest dimension</td>
                                 <td>3.2</td>
                                 <td>0 - 5</td>
                                 <td>mm</td>
                              </tr>
                           </tbody>
                        </table>
                     </div>
                  </text>
                  <entry>
                     <reference value="urn:uuid:250bbc12-8555-423e-acfe-96539d22a099"/>
                  </entry>
               </section>
            </section>
            <section>
               <title value="Annotation comment"/>
               <code>
                  <coding>
                     <system value="http://loinc.org"/>
                     <code value="48767-8"/>
                     <display value="Annotation comment"/>
                  </coding>
               </code>
               <text>
                  <status value="generated"/>
                  <div xmlns="http://www.w3.org/1999/xhtml">
                     <h3>Annotation</h3>
                     <table class="hl7__eu__lab__report">
                        <tr>
                           <th>Conclusion and Recommendations based on this report and previous findings known to us</th>
                        </tr>
                        <tr>
                           <td>Both the polyp size (3.2 mm) and fecal hemoglobin (20.6 ng/mL) are within normal limits. No laboratory evidence of significant gastrointestinal bleeding or abnormal polyp size at this time. Recommend routine follow-up as clinically indicated.</td>
                        </tr>
                     </table>
                  </div>
               </text>
            </section>
         </Composition>
      </resource>
   </entry>
   <entry>
      <fullUrl value="urn:uuid:1166643c-003b-4001-b1c2-b2883f30a092"/>
      <resource>
         <DiagnosticReport>
            <id value="1166643c-003b-4001-b1c2-b2883f30a092"/>
            <meta>
               <profile value="http://hl7.eu/fhir/laboratory/StructureDefinition/DiagnosticReport-eu-lab"/>
            </meta>
            <extension url="http://hl7.org/fhir/5.0/StructureDefinition/extension-DiagnosticReport.composition">
               <valueReference>
                  <reference value="urn:uuid:5befbfc1-3fe4-446f-bba9-8dc24f49a9cd"/>
               </valueReference>
            </extension>
            <identifier>
               <system value="urn:oid:2.16.840.1.113883.2.51.999"/>
               <value value="74944a37-462b-43c8-b0c9-b41c502ae0f4"/>
               <assigner>
                  <display value="HL7 Europe"/>
               </assigner>
            </identifier>
            <status value="registered"/>
            <category>
               <coding>
                  <system value="http://loinc.org"/>
                  <code value="26436-6"/>
                  <display value="Laboratory studies (set)"/>
               </coding>
            </category>
            <code>
               <coding>
                  <system value="http://loinc.org"/>
                  <code value="11502-2"/>
                  <display value="Laboratory report"/>
               </coding>
            </code>
            <subject>
               <reference value="urn:uuid:459d3629-369b-440d-b172-6a7512b4d50c"/>
               <display value="Gioele Fabbri"/>
            </subject>
            <specimen>
               <reference value="urn:uuid:2a163dab-1b34-4e58-9861-61e56fe92516"/>
            </specimen>
            <specimen>
               <reference value="urn:uuid:e6a1ae07-92cb-47c7-8c2a-bec6019b9a86"/>
            </specimen>
            <result>
               <reference value="urn:uuid:250bbc12-8555-423e-acfe-96539d22a099"/>
            </result>
            <result>
               <reference value="urn:uuid:d5beb064-c16d-4c54-ae93-5ab659544add"/>
            </result>
         </DiagnosticReport>
      </resource>
   </entry>
   <entry>
      <fullUrl value="urn:uuid:459d3629-369b-440d-b172-6a7512b4d50c"/>
      <resource>
         <Patient>
            <id value="459d3629-369b-440d-b172-6a7512b4d50c"/>
            <meta>
               <profile value="http://hl7.eu/fhir/base/StructureDefinition/patient-eu-core"/>
               <security>
                  <system value="http://terminology.hl7.org/CodeSystem/v3-ActReason"/>
                  <code value="HTEST"/>
               </security>
               <security>
                  <system value="http://terminology.hl7.org/CodeSystem/v3-ActReason"/>
                  <code value="TRAIN"/>
               </security>
               <tag>
                  <system value="https://synderai.net/fhir/CodeSystem/tags"/>
                  <code value="synthetic"/>
                  <display value="SYNDERAI Synthetic data"/>
               </tag>
            </meta>
            <text>
               <status value="generated"/>
               <div xmlns="http://www.w3.org/1999/xhtml">
                  <table class="hl7__ips">
                     <tr>
                        <td>Gioele Fabbri</td>
                        <td>male</td>
                        <td>12-Sep-1972</td>
                     </tr>
                  </table>
               </div>
            </text>
            <extension url="http://hl7.org/fhir/StructureDefinition/patient-nationality">
               <valueCodeableConcept>
                  <coding>
                     <system value="http://hl7.org/fhir/ValueSet/country"/>
                     <code value="IT"/>
                  </coding>
               </valueCodeableConcept>
            </extension>
            <identifier>
               <type>
                  <coding>
                     <system value="http://terminology.hl7.org/CodeSystem/v2-0203"/>
                     <code value="PT"/>
                  </coding>
               </type>
               <system value="http://ec.europa.eu/identifier/eci"/>
               <value value="3631-767680-1"/>
            </identifier>
            <identifier>
               <type>
                  <coding>
                     <system value="http://terminology.hl7.org/CodeSystem/v2-0203"/>
                     <code value="MR"/>
                  </coding>
               </type>
               <system value="http://local.setting.eu/identifier"/>
               <value value="0a14935e-e0f7-2e1e-46fa-42b10e75d1f9"/>
            </identifier>
            <name>
               <family value="Fabbri"/>
            </name>
            <name>
               <given value="Gioele"/>
            </name>
            <name>
               <text value="Gioele Fabbri"/>
            </name>
            <telecom>
               <system value="phone"/>
               <value value="+39 0423197768"/>
            </telecom>
            <gender value="male"/>
            <birthDate value="1972-09-12"/>
            <address>
               <use value="home"/>
               <type value="physical"/>
               <line value="Canale Armani, 25"/>
               <city value="Revislate"/>
               <postalCode value="23887"/>
               <country value="Italy"/>
            </address>
         </Patient>
      </resource>
   </entry>
   <entry>
      <fullUrl value="urn:uuid:a6c711a0-7a4e-40ac-8527-2bffd6642028"/>
      <resource>
         <ServiceRequest>
            <id value="a6c711a0-7a4e-40ac-8527-2bffd6642028"/>
            <meta>
               <profile value="http://hl7.eu/fhir/laboratory/StructureDefinition/ServiceRequest-eu-lab"/>
            </meta>
            <identifier>
               <system value="http://example.org"/>
               <value value="aa04738d-3262-4b85-a6ea-9e7989951978"/>
            </identifier>
            <status value="active"/>
            <intent value="order"/>
            <code>
               <coding>
                  <system value="http://snomed.info/sct"/>
                  <code value="108252007"/>
                  <display value="Laboratory procedure"/>
               </coding>
            </code>
            <subject>
               <reference value="urn:uuid:459d3629-369b-440d-b172-6a7512b4d50c"/>
               <display value="Gioele Fabbri"/>
            </subject>
            <requester>
               <reference value="urn:uuid:4f0d651f-4ddb-4932-861b-04bec612280c"/>
            </requester>
            <reasonCode>
               <coding>
                  <system value="http://snomed.info/sct"/>
                  <code value="271737000"/>
                  <display value="Anemia"/>
               </coding>
            </reasonCode>
            <reasonCode>
               <coding>
                  <system value="http://snomed.info/sct"/>
                  <code value="15777000"/>
                  <display value="Prediabetes"/>
               </coding>
            </reasonCode>
            <reasonCode>
               <coding>
                  <system value="http://snomed.info/sct"/>
                  <code value="713197008"/>
                  <display value="Recurrent rectal polyp"/>
               </coding>
            </reasonCode>
            <reasonCode>
               <coding>
                  <system value="http://snomed.info/sct"/>
                  <code value="68496003"/>
                  <display value="Polyp of colon"/>
               </coding>
            </reasonCode>
            <reasonCode>
               <coding>
                  <system value="http://snomed.info/sct"/>
                  <code value="55822004"/>
                  <display value="Hyperlipidemia"/>
               </coding>
            </reasonCode>
            <reasonCode>
               <coding>
                  <system value="http://snomed.info/sct"/>
                  <code value="124171000119105"/>
                  <display value="Chronic intractable migraine without aura"/>
               </coding>
            </reasonCode>
            <specimen>
               <reference value="urn:uuid:2a163dab-1b34-4e58-9861-61e56fe92516"/>
            </specimen>
            <specimen>
               <reference value="urn:uuid:e6a1ae07-92cb-47c7-8c2a-bec6019b9a86"/>
            </specimen>
         </ServiceRequest>
      </resource>
   </entry>
   <entry>
      <fullUrl value="urn:uuid:4f0d651f-4ddb-4932-861b-04bec612280c"/>
      <resource>
         <PractitionerRole>
            <id value="4f0d651f-4ddb-4932-861b-04bec612280c"/>
            <meta>
               <profile value="http://hl7.eu/fhir/base/StructureDefinition/practitionerRole-eu"/>
            </meta>
            <text>
               <status value="generated"/>
               <div xmlns="http://www.w3.org/1999/xhtml">Provider Role Id: 4f0d651f-4ddb-4932-861b-04bec612280c</div>
            </text>
            <organization>
               <reference value="urn:uuid:b7e75e39-c3f0-4668-9790-4177e9ec7f12"/>
            </organization>
         </PractitionerRole>
      </resource>
   </entry>
   <entry>
      <fullUrl value="urn:uuid:b7e75e39-c3f0-4668-9790-4177e9ec7f12"/>
      <resource>
         <Organization>
            <id value="b7e75e39-c3f0-4668-9790-4177e9ec7f12"/>
            <meta>
               <profile value="http://hl7.eu/fhir/base/StructureDefinition/organization-eu"/>
            </meta>
            <text>
               <status value="generated"/>
               <div xmlns="http://www.w3.org/1999/xhtml">Provider Organization: Ospedale di Calcinate "F.M. Passi"</div>
            </text>
            <identifier>
               <system value="urn:oid:2.16.840.1.113883.2.51.999"/>
               <value value="a2d7f941-c766-4fc8-ab18-af581ac8c68a"/>
               <assigner>
                  <display value="HL7 Europe"/>
               </assigner>
            </identifier>
            <name value="Ospedale di Calcinate &amp;quot;F.M. Passi&amp;quot;"/>
            <address>
               <line value="Piazza Ospedale 3"/>
               <city value="Calcinate"/>
               <postalCode value="24050"/>
               <country value="Italy"/>
            </address>
         </Organization>
      </resource>
   </entry>
   <entry>
      <fullUrl value="urn:uuid:2a163dab-1b34-4e58-9861-61e56fe92516"/>
      <resource>
         <Specimen>
            <id value="2a163dab-1b34-4e58-9861-61e56fe92516"/>
            <meta>
               <profile value="http://hl7.eu/fhir/laboratory/StructureDefinition/Specimen-eu-lab"/>
            </meta>
            <text>
               <status value="generated"/>
               <div xmlns="http://www.w3.org/1999/xhtml">
                  <table class="hl7__eu__lab__report">
                     <tr>
                        <th>Specimen</th>
                        <th>Collection Date</th>
                     </tr>
                     <tr>
                        <td>Specimen (specimen)</td>
                        <td>
                           <span class="nb">06-May-2019</span>
                        </td>
                     </tr>
                  </table>
               </div>
            </text>
            <type>
               <coding>
                  <system value="http://snomed.info/sct"/>
                  <code value="123038009"/>
                  <display value="Specimen (specimen)"/>
               </coding>
            </type>
            <collection>
               <collectedDateTime value="2019-05-06"/>
            </collection>
         </Specimen>
      </resource>
   </entry>
   <entry>
      <fullUrl value="urn:uuid:e6a1ae07-92cb-47c7-8c2a-bec6019b9a86"/>
      <resource>
         <Specimen>
            <id value="e6a1ae07-92cb-47c7-8c2a-bec6019b9a86"/>
            <meta>
               <profile value="http://hl7.eu/fhir/laboratory/StructureDefinition/Specimen-eu-lab"/>
            </meta>
            <text>
               <status value="generated"/>
               <div xmlns="http://www.w3.org/1999/xhtml">
                  <table class="hl7__eu__lab__report">
                     <tr>
                        <th>Specimen</th>
                        <th>Collection Date</th>
                     </tr>
                     <tr>
                        <td>Feces specimen</td>
                        <td>
                           <span class="nb">06-May-2019</span>
                        </td>
                     </tr>
                  </table>
               </div>
            </text>
            <type>
               <coding>
                  <system value="http://snomed.info/sct"/>
                  <code value="119339001"/>
                  <display value="Feces specimen"/>
               </coding>
            </type>
            <collection>
               <collectedDateTime value="2019-05-06"/>
            </collection>
         </Specimen>
      </resource>
   </entry>
   <entry>
      <fullUrl value="urn:uuid:250bbc12-8555-423e-acfe-96539d22a099"/>
      <resource>
         <Observation>
            <id value="250bbc12-8555-423e-acfe-96539d22a099"/>
            <meta>
               <profile value="http://hl7.eu/fhir/laboratory/StructureDefinition/Observation-resultslab-eu-lab"/>
            </meta>
            <text>
               <status value="generated"/>
               <div xmlns="http://www.w3.org/1999/xhtml">
                  <table class="hl7__eu__lab__report">
                     <tr>
                        <th>Test</th>
                        <th>06-May-2019</th>
                        <th>Reference Range</th>
                        <th>Unit</th>
                     </tr>
                     <tr>
                        <td>Polyp size greatest dimension</td>
                        <td>3.2</td>
                        <td>0 - 5</td>
                        <td/>
                        <td>mm</td>
                     </tr>
                  </table>
               </div>
            </text>
            <status value="final"/>
            <category>
               <coding>
                  <system value="http://terminology.hl7.org/CodeSystem/observation-category"/>
                  <code value="laboratory"/>
               </coding>
            </category>
            <code>
               <coding>
                  <system value="http://loinc.org"/>
                  <code value="33756-8"/>
                  <display value="Polyp size greatest dimension"/>
               </coding>
               <text value="Polyp size greatest dimension"/>
            </code>
            <subject>
               <reference value="urn:uuid:459d3629-369b-440d-b172-6a7512b4d50c"/>
               <display value="Gioele Fabbri"/>
            </subject>
            <effectiveDateTime value="2019-05-06T16:21:12Z"/>
            <performer>
               <display value="The Central European Lab"/>
            </performer>
            <valueQuantity>
               <value value="3.2"/>
               <unit value="mm"/>
               <system value="http://unitsofmeasure.org"/>
               <code value="mm"/>
            </valueQuantity>
            <specimen>
               <reference value="urn:uuid:2a163dab-1b34-4e58-9861-61e56fe92516"/>
            </specimen>
            <referenceRange>
               <low>
                  <value value="0"/>
                  <system value="http://unitsofmeasure.org"/>
                  <code value="mm"/>
               </low>
            </referenceRange>
            <referenceRange>
               <high>
                  <value value="5"/>
                  <system value="http://unitsofmeasure.org"/>
                  <code value="mm"/>
               </high>
            </referenceRange>
         </Observation>
      </resource>
   </entry>
   <entry>
      <fullUrl value="urn:uuid:d5beb064-c16d-4c54-ae93-5ab659544add"/>
      <resource>
         <Observation>
            <id value="d5beb064-c16d-4c54-ae93-5ab659544add"/>
            <meta>
               <profile value="http://hl7.eu/fhir/laboratory/StructureDefinition/Observation-resultslab-eu-lab"/>
            </meta>
            <text>
               <status value="generated"/>
               <div xmlns="http://www.w3.org/1999/xhtml">
                  <table class="hl7__eu__lab__report">
                     <tr>
                        <th>Test</th>
                        <th>06-May-2019</th>
                        <th>Reference Range</th>
                        <th>Unit</th>
                     </tr>
                     <tr>
                        <td>Hemoglobin.gastrointestinal.lower [Presence] in Stool by Immunoassay --1st specimen</td>
                        <td>20.6</td>
                        <td>0 - 200</td>
                        <td/>
                        <td>ng/mL</td>
                     </tr>
                  </table>
               </div>
            </text>
            <status value="final"/>
            <category>
               <coding>
                  <system value="http://terminology.hl7.org/CodeSystem/observation-category"/>
                  <code value="laboratory"/>
               </coding>
            </category>
            <code>
               <coding>
                  <system value="http://loinc.org"/>
                  <code value="57905-2"/>
                  <display value="Hemoglobin.gastrointestinal.lower [Presence] in Stool by Immunoassay --1st specimen"/>
               </coding>
               <text value="Hemoglobin.gastrointestinal.lower [Presence] in Stool by Immunoassay --1st specimen"/>
            </code>
            <subject>
               <reference value="urn:uuid:459d3629-369b-440d-b172-6a7512b4d50c"/>
               <display value="Gioele Fabbri"/>
            </subject>
            <effectiveDateTime value="2019-05-06T16:21:12Z"/>
            <performer>
               <display value="The Central European Lab"/>
            </performer>
            <valueQuantity>
               <value value="20.6"/>
               <unit value="ng/mL"/>
               <system value="http://unitsofmeasure.org"/>
               <code value="ng/mL"/>
            </valueQuantity>
            <specimen>
               <reference value="urn:uuid:e6a1ae07-92cb-47c7-8c2a-bec6019b9a86"/>
            </specimen>
            <referenceRange>
               <low>
                  <value value="0"/>
                  <system value="http://unitsofmeasure.org"/>
                  <code value="ng/mL"/>
               </low>
            </referenceRange>
            <referenceRange>
               <high>
                  <value value="200"/>
                  <system value="http://unitsofmeasure.org"/>
                  <code value="ng/mL"/>
               </high>
            </referenceRange>
         </Observation>
      </resource>
   </entry>
   <entry>
      <fullUrl value="urn:uuid:15bcb3d4-710a-46ed-8876-590aa059fab9"/>
      <resource>
         <Device>
            <id value="15bcb3d4-710a-46ed-8876-590aa059fab9"/>
            <text>
               <status value="generated"/>
               <div xmlns="http://www.w3.org/1999/xhtml">SYNDERAI Synthetic Generator v5.0</div>
            </text>
            <status value="active&#34;"/>
            <distinctIdentifier value="synderai-generator-50"/>
            <manufacturer value="SYNDERAI Project"/>
            <deviceName>
               <name value="SYNDERAI Synthetic Generator"/>
               <type value="manufacturer-name"/>
            </deviceName>
            <version>
               <value value="5.0"/>
            </version>
         </Device>
      </resource>
   </entry>
   <entry>
      <fullUrl value="urn:uuid:4dcf6a5a-a4df-4931-b5d1-c6dc77e219fe"/>
      <resource>
         <Provenance>
            <id value="4dcf6a5a-a4df-4931-b5d1-c6dc77e219fe"/>
            <text>
               <status value="generated"/>
               <div xmlns="http://www.w3.org/1999/xhtml">Provenance for SYNDERAI Synthetic Example Data Resource</div>
            </text>
            <target>
               <reference value="Patient/459d3629-369b-440d-b172-6a7512b4d50c"/>
            </target>
            <target>
               <reference value="Bundle/eab62214-2b24-434d-951b-f57629022aa8"/>
            </target>
            <target>
               <reference value="Composition/ab013383-54f2-4fbd-97d3-b820d047687b"/>
            </target>
            <target>
               <reference value="PractitionerRole/0cee8279-31db-45e4-96cf-e5b31a72b166"/>
            </target>
            <target>
               <reference value="Practitioner/11298e1f-143a-4b0d-b7d2-934e4e6ba81b"/>
            </target>
            <target>
               <reference value="PractitionerRole/4f0d651f-4ddb-4932-861b-04bec612280c"/>
            </target>
            <target>
               <reference value="Organization/b7e75e39-c3f0-4668-9790-4177e9ec7f12"/>
            </target>
            <recorded value="2019-05-06T18:21:12Z"/>
            <policy value="https://synderai.net/synderai-synthetic-data-policy"/>
            <reason>
               <text value="Interoperability Testing and Training (non-clinical use)"/>
            </reason>
            <activity>
               <text value="Synthetic Example Data Generation"/>
            </activity>
            <agent>
               <type>
                  <text value="author"/>
               </type>
               <who>
                  <reference value="Device/15bcb3d4-710a-46ed-8876-590aa059fab9"/>
               </who>
            </agent>
         </Provenance>
      </resource>
   </entry>
   <entry>
      <fullUrl value="urn:uuid:0cee8279-31db-45e4-96cf-e5b31a72b166"/>
      <resource>
         <PractitionerRole>
            <id value="0cee8279-31db-45e4-96cf-e5b31a72b166"/>
            <meta>
               <profile value="http://hl7.eu/fhir/base/StructureDefinition/practitionerRole-eu"/>
            </meta>
            <text>
               <status value="generated"/>
               <div xmlns="http://www.w3.org/1999/xhtml">Laboratory Role Id: 0cee8279-31db-45e4-96cf-e5b31a72b166</div>
            </text>
            <practitioner>
               <reference value="urn:uuid:11298e1f-143a-4b0d-b7d2-934e4e6ba81b"/>
            </practitioner>
         </PractitionerRole>
      </resource>
   </entry>
   <entry>
      <fullUrl value="urn:uuid:11298e1f-143a-4b0d-b7d2-934e4e6ba81b"/>
      <resource>
         <Practitioner>
            <id value="11298e1f-143a-4b0d-b7d2-934e4e6ba81b"/>
            <meta>
               <profile value="http://hl7.eu/fhir/base/StructureDefinition/practitioner-eu"/>
            </meta>
            <text>
               <status value="generated"/>
               <div xmlns="http://www.w3.org/1999/xhtml">Laboratory: Laboratoire Central Européenne, 1000 Brussels, Belgium</div>
            </text>
            <identifier>
               <system value="urn:oid:2.16.840.1.113883.2.51.999"/>
               <value value="644562b1-10c9-4d1c-8e57-b2093a6189da"/>
               <assigner>
                  <display value="HL7 Europe"/>
               </assigner>
            </identifier>
            <name>
               <family value="Ample"/>
               <given value="Ex"/>
               <prefix value="dr"/>
            </name>
            <address>
               <line value="Laboratoire Central Européenne"/>
               <line value="Boulevard du Jardin Botanique 32"/>
               <city value="Brussels"/>
               <postalCode value="1000"/>
               <country value="Belgium"/>
            </address>
         </Practitioner>
      </resource>
   </entry>
</Bundle>