<Bundle xmlns="http://hl7.org/fhir">
   <id value="1cf6921c-964c-4c8f-b957-8d4ba4fa59ff"/>
   <meta>
      <profile value="http://hl7.eu/fhir/laboratory/StructureDefinition/Bundle-eu-lab"/>
   </meta>
   <identifier>
      <system value="urn:oid:2.16.840.1.113883.2.51.999"/>
      <value value="21d34bdb-9d82-4e35-82e0-446f8576c000"/>
      <assigner>
         <display value="HL7 Europe"/>
      </assigner>
   </identifier>
   <type value="document"/>
   <timestamp value="2020-07-17T15:31:10Z"/>
   <entry>
      <fullUrl value="urn:uuid:4cf24120-253f-4436-9835-31176e4cbddb"/>
      <resource>
         <Composition>
            <id value="4cf24120-253f-4436-9835-31176e4cbddb"/>
            <meta>
               <profile value="http://hl7.eu/fhir/laboratory/StructureDefinition/Composition-eu-lab"/>
            </meta>
            <identifier>
               <system value="urn:oid:2.16.840.1.113883.2.51.999"/>
               <value value="73bfb986-312e-457a-829c-974b900eed79"/>
               <assigner>
                  <display value="HL7 Europe"/>
               </assigner>
            </identifier>
            <status value="final"/>
            <type>
               <coding>
                  <system value="http://loinc.org"/>
                  <code value="11502-2"/>
                  <display value="Laboratory report"/>
               </coding>
               <text value="Laboratory Report"/>
            </type>
            <category>
               <coding>
                  <system value="http://loinc.org"/>
                  <code value="26436-6"/>
                  <display value="Laboratory studies (set)"/>
               </coding>
            </category>
            <subject>
               <reference value="urn:uuid:680d9022-7bc0-45ca-91e5-64d204f1c96e"/>
               <display value="Hynek Kubíčková"/>
            </subject>
            <date value="2020-07-17T15:31:10Z"/>
            <author>
               <reference value="urn:uuid:602f451a-f968-4adb-8603-a5a91ff5bf9e"/>
            </author>
            <title value="Laboratory Report"/>
            <confidentiality value="N"/>
            <section>
               <title value="Laboratory Report"/>
               <code>
                  <coding>
                     <system value="http://loinc.org"/>
                     <code value="26436-6"/>
                     <display value="Laboratory studies (set)"/>
                  </coding>
                  <text value="Laboratory studies"/>
               </code>
               <section>
                  <title value="Microbiology Panel"/>
                  <code>
                     <coding>
                        <system value="http://loinc.org"/>
                        <code value="$18725-2"/>
                        <display value="Microbiology studies"/>
                     </coding>
                     <text value="Microbiology Panel"/>
                  </code>
                  <text>
                     <status value="generated"/>
                     <div xmlns="http://www.w3.org/1999/xhtml">
                        <h3>Microbiology Panel</h3>
                        <table class="hl7__eu__lab__report">
                           <thead>
                              <tr>
                                 <th>Test</th>
                                 <th>17-JUL-2020</th>
                                 <th>Reference Range</th>
                                 <th>Unit</th>
                              </tr>
                           </thead>
                           <tbody>
                              <tr>
                                 <td>SARS-CoV-2 (COVID-19) RNA panel - Respiratory system specimen by NAA with probe detection</td>
                                 <td>Detected</td>
                                 <td/>
                                 <td/>
                              </tr>
                           </tbody>
                        </table>
                     </div>
                  </text>
                  <entry>
                     <reference value="urn:uuid:1e694566-d6e2-4fb8-a7d9-af62fb4b29cb"/>
                  </entry>
               </section>
            </section>
            <section>
               <title value="Annotation comment"/>
               <code>
                  <coding>
                     <system value="http://loinc.org"/>
                     <code value="48767-8"/>
                     <display value="Annotation comment"/>
                  </coding>
               </code>
               <text>
                  <status value="generated"/>
                  <div xmlns="http://www.w3.org/1999/xhtml">
                     <h3>Annotation</h3>
                     <table class="hl7__eu__lab__report">
                        <tr>
                           <th>Conclusion and Recommendations based on this report and previous findings known to us</th>
                        </tr>
                        <tr>
                           <td>SARS-CoV-2 RNA was detected in the respiratory specimen, indicating an active COVID-19 infection. Clinical correlation and appropriate isolation and management are recommended according to current guidelines. No other laboratory abnormalities are reported.</td>
                        </tr>
                     </table>
                  </div>
               </text>
            </section>
         </Composition>
      </resource>
   </entry>
   <entry>
      <fullUrl value="urn:uuid:0a389e0c-8a6a-404d-bd59-654f63429b52"/>
      <resource>
         <DiagnosticReport>
            <id value="0a389e0c-8a6a-404d-bd59-654f63429b52"/>
            <meta>
               <profile value="http://hl7.eu/fhir/laboratory/StructureDefinition/DiagnosticReport-eu-lab"/>
            </meta>
            <extension url="http://hl7.org/fhir/5.0/StructureDefinition/extension-DiagnosticReport.composition">
               <valueReference>
                  <reference value="urn:uuid:73bfb986-312e-457a-829c-974b900eed79"/>
               </valueReference>
            </extension>
            <identifier>
               <system value="urn:oid:2.16.840.1.113883.2.51.999"/>
               <value value="f60ec534-9a46-4fdc-8cf4-d268c9a3a146"/>
               <assigner>
                  <display value="HL7 Europe"/>
               </assigner>
            </identifier>
            <status value="registered"/>
            <category>
               <coding>
                  <system value="http://loinc.org"/>
                  <code value="26436-6"/>
                  <display value="Laboratory studies (set)"/>
               </coding>
            </category>
            <code>
               <coding>
                  <system value="http://loinc.org"/>
                  <code value="11502-2"/>
                  <display value="Laboratory report"/>
               </coding>
            </code>
            <subject>
               <reference value="urn:uuid:680d9022-7bc0-45ca-91e5-64d204f1c96e"/>
               <display value="Hynek Kubíčková"/>
            </subject>
            <specimen>
               <reference value="urn:uuid:868a26b9-81c9-4a77-aec5-90a7d9b26365"/>
            </specimen>
            <result>
               <reference value="urn:uuid:1e694566-d6e2-4fb8-a7d9-af62fb4b29cb"/>
            </result>
         </DiagnosticReport>
      </resource>
   </entry>
   <entry>
      <fullUrl value="urn:uuid:680d9022-7bc0-45ca-91e5-64d204f1c96e"/>
      <resource>
         <Patient>
            <id value="680d9022-7bc0-45ca-91e5-64d204f1c96e"/>
            <meta>
               <profile value="http://hl7.eu/fhir/base/StructureDefinition/patient-eu-core"/>
               <security>
                  <system value="http://terminology.hl7.org/CodeSystem/v3-ActReason"/>
                  <code value="HTEST"/>
               </security>
               <security>
                  <system value="http://terminology.hl7.org/CodeSystem/v3-ActReason"/>
                  <code value="TRAIN"/>
               </security>
               <tag>
                  <system value="https://synderai.net/fhir/CodeSystem/tags"/>
                  <code value="synthetic"/>
                  <display value="SYNDERAI Synthetic data"/>
               </tag>
            </meta>
            <text>
               <status value="generated"/>
               <div xmlns="http://www.w3.org/1999/xhtml">
                  <table class="hl7__ips">
                     <tr>
                        <td>Hynek Kubíčková</td>
                        <td>male</td>
                        <td>24-Jun-2005</td>
                     </tr>
                  </table>
               </div>
            </text>
            <extension url="http://hl7.org/fhir/StructureDefinition/patient-nationality">
               <valueCodeableConcept>
                  <coding>
                     <system value="http://hl7.org/fhir/ValueSet/country"/>
                     <code value="CZ"/>
                  </coding>
               </valueCodeableConcept>
            </extension>
            <identifier>
               <type>
                  <coding>
                     <system value="http://terminology.hl7.org/CodeSystem/v2-0203"/>
                     <code value="PT"/>
                  </coding>
               </type>
               <system value="http://ec.europa.eu/identifier/eci"/>
               <value value="9771-756399-9"/>
            </identifier>
            <identifier>
               <type>
                  <coding>
                     <system value="http://terminology.hl7.org/CodeSystem/v2-0203"/>
                     <code value="MR"/>
                  </coding>
               </type>
               <system value="http://local.setting.eu/identifier"/>
               <value value="0a9c3ea6-b526-4dcc-cde1-545cdfca14b2"/>
            </identifier>
            <name>
               <family value="Kubíčková"/>
            </name>
            <name>
               <given value="Hynek"/>
            </name>
            <name>
               <text value="Hynek Kubíčková"/>
            </name>
            <telecom>
               <system value="phone"/>
               <value value="+420 605 458 784"/>
            </telecom>
            <gender value="male"/>
            <birthDate value="2005-06-24"/>
            <address>
               <use value="home"/>
               <type value="physical"/>
               <line value="Vraňanská 9"/>
               <city value="Frýdlant nad Ostravicí"/>
               <postalCode value="739 11"/>
               <country value="Czechia"/>
            </address>
         </Patient>
      </resource>
   </entry>
   <entry>
      <fullUrl value="urn:uuid:29a20eb7-a354-44f6-b9fb-bc9dd9b45187"/>
      <resource>
         <ServiceRequest>
            <id value="29a20eb7-a354-44f6-b9fb-bc9dd9b45187"/>
            <meta>
               <profile value="http://hl7.eu/fhir/laboratory/StructureDefinition/ServiceRequest-eu-lab"/>
            </meta>
            <identifier>
               <system value="http://example.org"/>
               <value value="e0576ef5-bf21-47ed-a43d-17a0b80c4fe7"/>
            </identifier>
            <status value="active"/>
            <intent value="order"/>
            <code>
               <coding>
                  <system value="http://snomed.info/sct"/>
                  <code value="108252007"/>
                  <display value="Laboratory procedure"/>
               </coding>
            </code>
            <subject>
               <reference value="urn:uuid:680d9022-7bc0-45ca-91e5-64d204f1c96e"/>
               <display value="Hynek Kubíčková"/>
            </subject>
            <requester>
               <reference value="urn:uuid:fa880e03-28cb-4626-9c4d-13135cd64877"/>
            </requester>
            <specimen>
               <reference value="urn:uuid:868a26b9-81c9-4a77-aec5-90a7d9b26365"/>
            </specimen>
         </ServiceRequest>
      </resource>
   </entry>
   <entry>
      <fullUrl value="urn:uuid:fa880e03-28cb-4626-9c4d-13135cd64877"/>
      <resource>
         <PractitionerRole>
            <id value="fa880e03-28cb-4626-9c4d-13135cd64877"/>
            <meta>
               <profile value="http://hl7.eu/fhir/base/StructureDefinition/practitionerRole-eu"/>
            </meta>
            <text>
               <status value="generated"/>
               <div xmlns="http://www.w3.org/1999/xhtml">Provider Role Id: fa880e03-28cb-4626-9c4d-13135cd64877</div>
            </text>
            <organization>
               <reference value="urn:uuid:824f1e7c-6d59-48bd-9c99-e5cb9f2290fe"/>
            </organization>
         </PractitionerRole>
      </resource>
   </entry>
   <entry>
      <fullUrl value="urn:uuid:824f1e7c-6d59-48bd-9c99-e5cb9f2290fe"/>
      <resource>
         <Organization>
            <id value="824f1e7c-6d59-48bd-9c99-e5cb9f2290fe"/>
            <meta>
               <profile value="http://hl7.eu/fhir/base/StructureDefinition/organization-eu"/>
            </meta>
            <text>
               <status value="generated"/>
               <div xmlns="http://www.w3.org/1999/xhtml">Provider Organization: Beskydské rehabilitační centrum</div>
            </text>
            <identifier>
               <system value="urn:oid:2.16.840.1.113883.2.51.999"/>
               <value value="c35a342c-88ac-4aba-9df5-ab8a6de584b8"/>
               <assigner>
                  <display value="HL7 Europe"/>
               </assigner>
            </identifier>
            <name value="Beskydské rehabilitační centrum"/>
            <address>
               <city value="Čeladná"/>
               <postalCode value="739 12"/>
               <country value="Czechia"/>
            </address>
         </Organization>
      </resource>
   </entry>
   <entry>
      <fullUrl value="urn:uuid:868a26b9-81c9-4a77-aec5-90a7d9b26365"/>
      <resource>
         <Specimen>
            <id value="868a26b9-81c9-4a77-aec5-90a7d9b26365"/>
            <meta>
               <profile value="http://hl7.eu/fhir/laboratory/StructureDefinition/Specimen-eu-lab"/>
            </meta>
            <text>
               <status value="generated"/>
               <div xmlns="http://www.w3.org/1999/xhtml">
                  <table class="hl7__eu__lab__report">
                     <tr>
                        <th>Specimen</th>
                        <th>Collection Date</th>
                     </tr>
                     <tr>
                        <td>Respiratory specimen (specimen)</td>
                        <td>
                           <span class="nb">17-Jul-2020</span>
                        </td>
                     </tr>
                  </table>
               </div>
            </text>
            <type>
               <coding>
                  <system value="http://snomed.info/sct"/>
                  <code value="258603007"/>
                  <display value="Respiratory specimen (specimen)"/>
               </coding>
            </type>
            <collection>
               <collectedDateTime value="2020-07-17"/>
            </collection>
         </Specimen>
      </resource>
   </entry>
   <entry>
      <fullUrl value="urn:uuid:1e694566-d6e2-4fb8-a7d9-af62fb4b29cb"/>
      <resource>
         <Observation>
            <id value="1e694566-d6e2-4fb8-a7d9-af62fb4b29cb"/>
            <meta>
               <profile value="http://hl7.eu/fhir/laboratory/StructureDefinition/Observation-resultslab-eu-lab"/>
            </meta>
            <text>
               <status value="generated"/>
               <div xmlns="http://www.w3.org/1999/xhtml">
                  <table class="hl7__eu__lab__report">
                     <tr>
                        <th>Test</th>
                        <th>17-Jul-2020</th>
                        <th>Reference Range</th>
                        <th>Unit</th>
                     </tr>
                     <tr>
                        <td>SARS-CoV-2 (COVID-19) RNA panel - Respiratory system specimen by NAA with probe detection</td>
                     </tr>
                  </table>
               </div>
            </text>
            <status value="final"/>
            <category>
               <coding>
                  <system value="http://terminology.hl7.org/CodeSystem/observation-category"/>
                  <code value="laboratory"/>
               </coding>
            </category>
            <code>
               <coding>
                  <system value="http://loinc.org"/>
                  <code value="94531-1"/>
                  <display value="SARS-CoV-2 (COVID-19) RNA panel - Respiratory system specimen by NAA with probe detection"/>
               </coding>
               <text value="SARS-CoV-2 (COVID-19) RNA panel - Respiratory system specimen by NAA with probe detection"/>
            </code>
            <subject>
               <reference value="urn:uuid:680d9022-7bc0-45ca-91e5-64d204f1c96e"/>
               <display value="Hynek Kubíčková"/>
            </subject>
            <effectiveDateTime value="2020-07-17T13:31:10Z"/>
            <performer>
               <display value="The Central European Lab"/>
            </performer>
            <specimen>
               <reference value="urn:uuid:868a26b9-81c9-4a77-aec5-90a7d9b26365"/>
            </specimen>
         </Observation>
      </resource>
   </entry>
   <entry>
      <fullUrl value="urn:uuid:d6dd2e64-3395-4e43-aa65-97d63d2ccfe3"/>
      <resource>
         <Device>
            <id value="d6dd2e64-3395-4e43-aa65-97d63d2ccfe3"/>
            <text>
               <status value="generated"/>
               <div xmlns="http://www.w3.org/1999/xhtml">SYNDERAI Synthetic Generator v5.0</div>
            </text>
            <status value="active&#34;"/>
            <distinctIdentifier value="synderai-generator-50"/>
            <manufacturer value="SYNDERAI Project"/>
            <deviceName>
               <name value="SYNDERAI Synthetic Generator"/>
               <type value="manufacturer-name"/>
            </deviceName>
            <version>
               <value value="5.0"/>
            </version>
         </Device>
      </resource>
   </entry>
   <entry>
      <fullUrl value="urn:uuid:26918dfd-2380-4d8c-b379-4bf54bdd28ea"/>
      <resource>
         <Provenance>
            <id value="26918dfd-2380-4d8c-b379-4bf54bdd28ea"/>
            <text>
               <status value="generated"/>
               <div xmlns="http://www.w3.org/1999/xhtml">Provenance for SYNDERAI Synthetic Example Data Resource</div>
            </text>
            <target>
               <reference value="Patient/680d9022-7bc0-45ca-91e5-64d204f1c96e"/>
            </target>
            <target>
               <reference value="Bundle/1cf6921c-964c-4c8f-b957-8d4ba4fa59ff"/>
            </target>
            <target>
               <reference value="Composition/4cf24120-253f-4436-9835-31176e4cbddb"/>
            </target>
            <target>
               <reference value="PractitionerRole/602f451a-f968-4adb-8603-a5a91ff5bf9e"/>
            </target>
            <target>
               <reference value="Practitioner/983cc1e5-dc96-41c2-92f9-20ab013ce5cb"/>
            </target>
            <target>
               <reference value="PractitionerRole/fa880e03-28cb-4626-9c4d-13135cd64877"/>
            </target>
            <target>
               <reference value="Organization/824f1e7c-6d59-48bd-9c99-e5cb9f2290fe"/>
            </target>
            <recorded value="2020-07-17T15:31:10Z"/>
            <policy value="https://synderai.net/synderai-synthetic-data-policy"/>
            <reason>
               <text value="Interoperability Testing and Training (non-clinical use)"/>
            </reason>
            <activity>
               <text value="Synthetic Example Data Generation"/>
            </activity>
            <agent>
               <type>
                  <text value="author"/>
               </type>
               <who>
                  <reference value="Device/d6dd2e64-3395-4e43-aa65-97d63d2ccfe3"/>
               </who>
            </agent>
         </Provenance>
      </resource>
   </entry>
   <entry>
      <fullUrl value="urn:uuid:602f451a-f968-4adb-8603-a5a91ff5bf9e"/>
      <resource>
         <PractitionerRole>
            <id value="602f451a-f968-4adb-8603-a5a91ff5bf9e"/>
            <meta>
               <profile value="http://hl7.eu/fhir/base/StructureDefinition/practitionerRole-eu"/>
            </meta>
            <text>
               <status value="generated"/>
               <div xmlns="http://www.w3.org/1999/xhtml">Laboratory Role Id: 602f451a-f968-4adb-8603-a5a91ff5bf9e</div>
            </text>
            <practitioner>
               <reference value="urn:uuid:983cc1e5-dc96-41c2-92f9-20ab013ce5cb"/>
            </practitioner>
         </PractitionerRole>
      </resource>
   </entry>
   <entry>
      <fullUrl value="urn:uuid:983cc1e5-dc96-41c2-92f9-20ab013ce5cb"/>
      <resource>
         <Practitioner>
            <id value="983cc1e5-dc96-41c2-92f9-20ab013ce5cb"/>
            <meta>
               <profile value="http://hl7.eu/fhir/base/StructureDefinition/practitioner-eu"/>
            </meta>
            <text>
               <status value="generated"/>
               <div xmlns="http://www.w3.org/1999/xhtml">Laboratory: Laboratoire Central Européenne, 1000 Brussels, Belgium</div>
            </text>
            <identifier>
               <system value="urn:oid:2.16.840.1.113883.2.51.999"/>
               <value value="b137e64d-93f4-4ca3-8fe0-3e0a85b040b4"/>
               <assigner>
                  <display value="HL7 Europe"/>
               </assigner>
            </identifier>
            <name>
               <family value="Ample"/>
               <given value="Ex"/>
               <prefix value="dr"/>
            </name>
            <address>
               <line value="Laboratoire Central Européenne"/>
               <line value="Boulevard du Jardin Botanique 32"/>
               <city value="Brussels"/>
               <postalCode value="1000"/>
               <country value="Belgium"/>
            </address>
         </Practitioner>
      </resource>
   </entry>
</Bundle>