{
  "resourceType": "Bundle",
  "id": "e76db85f-f9cb-4721-bf8d-06079a7aa63b",
  "meta": {
    "profile": [
      "http://hl7.eu/fhir/laboratory/StructureDefinition/Bundle-eu-lab"
    ]
  },
  "identifier": {
    "assigner": {
      "display": "HL7 Europe"
    },
    "system": "urn:oid:2.16.840.1.113883.2.51.999",
    "value": "3ccf6c9e-e651-4bb9-a3d8-83da172093f6"
  },
  "entry": [
    {
      "fullUrl": "urn:uuid:4ecd80f5-ed34-4558-8e9a-fe1be55f2554",
      "resource": {
        "resourceType": "Composition",
        "id": "4ecd80f5-ed34-4558-8e9a-fe1be55f2554",
        "meta": {
          "profile": [
            "http://hl7.eu/fhir/laboratory/StructureDefinition/Composition-eu-lab"
          ]
        },
        "identifier": {
          "assigner": {
            "display": "HL7 Europe"
          },
          "system": "urn:oid:2.16.840.1.113883.2.51.999",
          "value": "91550040-31e1-4487-87d0-49fc137ae4d5"
        },
        "author": [
          {
            "reference": "urn:uuid:161f673d-f57b-4306-9649-470919765880"
          }
        ],
        "category": [
          {
            "coding": [
              {
                "code": "26436-6",
                "system": "http://loinc.org",
                "display": "Laboratory studies (set)"
              }
            ]
          }
        ],
        "type": {
          "coding": [
            {
              "code": "11502-2",
              "system": "http://loinc.org",
              "display": "Laboratory report"
            }
          ],
          "text": "Laboratory Report"
        },
        "section": [
          {
            "code": {
              "coding": [
                {
                  "code": "26436-6",
                  "system": "http://loinc.org",
                  "display": "Laboratory studies (set)"
                }
              ],
              "text": "Laboratory studies"
            },
            "section": [
              {
                "code": {
                  "coding": [
                    {
                      "code": "$18719-5",
                      "system": "http://loinc.org",
                      "display": "Chemistry studies (set)"
                    }
                  ],
                  "text": "Chemistry"
                },
                "entry": [
                  {
                    "reference": "urn:uuid:28afe59a-0980-4af4-950c-2b160f77b129"
                  },
                  {
                    "reference": "urn:uuid:84c8b40b-6e87-45d4-b6c1-f0cfeab899a9"
                  },
                  {
                    "reference": "urn:uuid:43e741ff-2f45-4ce0-9618-b3b582f19d67"
                  },
                  {
                    "reference": "urn:uuid:51a383ee-11f9-44af-9301-308c4756ab3e"
                  },
                  {
                    "reference": "urn:uuid:40e1d526-f289-447a-bd8d-8c7ecc927553"
                  },
                  {
                    "reference": "urn:uuid:eeb2cc9a-2b5f-4db5-bae6-554c6337b345"
                  },
                  {
                    "reference": "urn:uuid:dd8ee61b-d0c2-4e0a-96c2-b2af6d4cbf90"
                  },
                  {
                    "reference": "urn:uuid:66453c98-a588-4b5a-9416-d1f2ab579146"
                  },
                  {
                    "reference": "urn:uuid:77edb45c-442d-4334-a72b-6d2473123713"
                  }
                ],
                "text": {
                  "status": "generated",
                  "div": "<div xmlns=\"http://www.w3.org/1999/xhtml\"><h3>Chemistry</h3><table class=\"hl7__eu__lab__report\"><thead><tr><th>Test</th><th>05-MAR-2025</th><th>Reference&#xA0;Range</th><th>Unit</th></tr></thead><tbody><tr><td>Hemoglobin A1c/Hemoglobin.total in Blood</td><td><strong>6.3 H</strong></td><td>4 - 6</td><td>%</td></tr><tr><td>Glucose [Mass/volume] in Blood</td><td>88.8</td><td>70 - 140</td><td>mg/dL</td></tr><tr><td>Urea nitrogen [Mass/volume] in Blood</td><td>7.8</td><td>7 - 50</td><td>mg/dL</td></tr><tr><td>Creatinine [Mass/volume] in Blood</td><td>0.6</td><td>0.5 - 1.3</td><td>mg/dL</td></tr><tr><td>Calcium [Mass/volume] in Blood</td><td>10.0</td><td>8.5 - 10.4</td><td>mg/dL</td></tr><tr><td>Sodium [Moles/volume] in Blood</td><td>142.1</td><td>135 - 145</td><td>mmol/L</td></tr><tr><td>Potassium [Moles/volume] in Blood</td><td>4.8</td><td>3.5 - 5.3</td><td>mmol/L</td></tr><tr><td>Chloride [Moles/volume] in Blood</td><td>103.4</td><td>98 - 110</td><td>mmol/L</td></tr><tr><td>Carbon dioxide, total [Moles/volume] in Blood</td><td>24.6</td><td>22 - 32</td><td>mmol/L</td></tr></tbody></table></div>"
                },
                "title": "Chemistry"
              }
            ],
            "title": "Laboratory Report"
          },
          {
            "text": {
              "status": "generated",
              "div": "<div xmlns=\"http://www.w3.org/1999/xhtml\"><h3>Annotation</h3><table class=\"hl7__eu__lab__report\"><tr><th>Conclusion and Recommendations based on this report and previous findings known to us</th></tr><tr><td>All measured parameters are within normal limits except for a mildly elevated HbA1c (6.3%), indicating suboptimal long-term glycemic control and possible prediabetes or early diabetes. Renal function, electrolytes, and glucose are normal. Recommend clinical correlation and consideration of further evaluation or management of glycemic status.</td></tr></table></div>"
            },
            "code": {
              "coding": [
                {
                  "system": "http://loinc.org",
                  "code": "48767-8",
                  "display": "Annotation comment"
                }
              ]
            },
            "title": "Annotation comment"
          }
        ],
        "status": "final",
        "subject": {
          "reference": "urn:uuid:c8ee841b-314f-4ca2-974a-6f3e583ea8de",
          "display": "Jele Jurković"
        },
        "date": "2025-03-05T19:07:38Z",
        "title": "Laboratory Report",
        "confidentiality": "N"
      }
    },
    {
      "fullUrl": "urn:uuid:08775394-ae68-4a31-a0a2-4862819eb74c",
      "resource": {
        "resourceType": "DiagnosticReport",
        "id": "08775394-ae68-4a31-a0a2-4862819eb74c",
        "meta": {
          "profile": [
            "http://hl7.eu/fhir/laboratory/StructureDefinition/DiagnosticReport-eu-lab"
          ]
        },
        "identifier": [
          {
            "assigner": {
              "display": "HL7 Europe"
            },
            "system": "urn:oid:2.16.840.1.113883.2.51.999",
            "value": "ef9e83d2-008d-46cf-befb-fc71433537ad"
          }
        ],
        "extension": [
          {
            "url": "http://hl7.org/fhir/5.0/StructureDefinition/extension-DiagnosticReport.composition",
            "valueReference": {
              "reference": "urn:uuid:91550040-31e1-4487-87d0-49fc137ae4d5"
            }
          }
        ],
        "category": [
          {
            "coding": [
              {
                "code": "26436-6",
                "system": "http://loinc.org",
                "display": "Laboratory studies (set)"
              }
            ]
          }
        ],
        "specimen": [
          {
            "reference": "urn:uuid:4a39cbe0-05ac-4eac-b8f5-226c0764e4fb"
          }
        ],
        "result": [
          {
            "reference": "urn:uuid:28afe59a-0980-4af4-950c-2b160f77b129"
          },
          {
            "reference": "urn:uuid:84c8b40b-6e87-45d4-b6c1-f0cfeab899a9"
          },
          {
            "reference": "urn:uuid:43e741ff-2f45-4ce0-9618-b3b582f19d67"
          },
          {
            "reference": "urn:uuid:51a383ee-11f9-44af-9301-308c4756ab3e"
          },
          {
            "reference": "urn:uuid:40e1d526-f289-447a-bd8d-8c7ecc927553"
          },
          {
            "reference": "urn:uuid:eeb2cc9a-2b5f-4db5-bae6-554c6337b345"
          },
          {
            "reference": "urn:uuid:dd8ee61b-d0c2-4e0a-96c2-b2af6d4cbf90"
          },
          {
            "reference": "urn:uuid:66453c98-a588-4b5a-9416-d1f2ab579146"
          },
          {
            "reference": "urn:uuid:77edb45c-442d-4334-a72b-6d2473123713"
          }
        ],
        "status": "registered",
        "code": {
          "coding": [
            {
              "code": "11502-2",
              "system": "http://loinc.org",
              "display": "Laboratory report"
            }
          ]
        },
        "subject": {
          "reference": "urn:uuid:c8ee841b-314f-4ca2-974a-6f3e583ea8de",
          "display": "Jele Jurković"
        }
      }
    },
    {
      "fullUrl": "urn:uuid:c8ee841b-314f-4ca2-974a-6f3e583ea8de",
      "resource": {
        "resourceType": "Patient",
        "id": "c8ee841b-314f-4ca2-974a-6f3e583ea8de",
        "meta": {
          "security": [
            {
              "system": "http://terminology.hl7.org/CodeSystem/v3-ActReason",
              "code": "HTEST"
            },
            {
              "system": "http://terminology.hl7.org/CodeSystem/v3-ActReason",
              "code": "TRAIN"
            }
          ],
          "tag": [
            {
              "system": "https://synderai.net/fhir/CodeSystem/tags",
              "code": "synthetic",
              "display": "SYNDERAI Synthetic data"
            }
          ],
          "profile": [
            "http://hl7.eu/fhir/base/StructureDefinition/patient-eu-core"
          ]
        },
        "identifier": [
          {
            "type": {
              "coding": [
                {
                  "code": "PT",
                  "system": "http://terminology.hl7.org/CodeSystem/v2-0203"
                }
              ]
            },
            "system": "http://ec.europa.eu/identifier/eci",
            "value": "3583-291434-1"
          },
          {
            "type": {
              "coding": [
                {
                  "code": "MR",
                  "system": "http://terminology.hl7.org/CodeSystem/v2-0203"
                }
              ]
            },
            "system": "http://local.setting.eu/identifier",
            "value": "9d4fea2d-eece-b99f-3e16-832f0f5813f5"
          }
        ],
        "name": [
          {
            "family": "Jurković"
          },
          {
            "given": [
              "Jele"
            ]
          },
          {
            "text": "Jele Jurković"
          }
        ],
        "address": [
          {
            "line": [
              "Klesarski put 7b/8"
            ],
            "use": "home",
            "type": "physical",
            "postalCode": "34310",
            "city": "Pleternica",
            "country": "Croatia"
          }
        ],
        "telecom": [
          {
            "system": "phone",
            "value": "021 083 354"
          }
        ],
        "extension": [
          {
            "url": "http://hl7.org/fhir/StructureDefinition/patient-nationality",
            "valueCodeableConcept": {
              "coding": [
                {
                  "code": "HR",
                  "system": "http://hl7.org/fhir/ValueSet/country"
                }
              ]
            }
          }
        ],
        "text": {
          "status": "generated",
          "div": "<div xmlns=\"http://www.w3.org/1999/xhtml\"><table class=\"hl7__ips\"><tr><td>Jele Jurković</td><td>female</td><td>07-Jan-1953</td></tr></table></div>"
        },
        "gender": "female",
        "birthDate": "1953-01-07"
      }
    },
    {
      "fullUrl": "urn:uuid:40977d1d-e2f3-4a08-a862-263578970f79",
      "resource": {
        "resourceType": "ServiceRequest",
        "id": "40977d1d-e2f3-4a08-a862-263578970f79",
        "meta": {
          "profile": [
            "http://hl7.eu/fhir/laboratory/StructureDefinition/ServiceRequest-eu-lab"
          ]
        },
        "identifier": [
          {
            "system": "http://example.org",
            "value": "ea0ae086-6c8b-4777-ad37-db75e146b311"
          }
        ],
        "specimen": [
          {
            "reference": "urn:uuid:4a39cbe0-05ac-4eac-b8f5-226c0764e4fb"
          }
        ],
        "reasonCode": [
          {
            "coding": [
              {
                "code": "64859006",
                "system": "http://snomed.info/sct",
                "display": "Osteoporosis"
              }
            ]
          },
          {
            "coding": [
              {
                "code": "6525002",
                "system": "http://snomed.info/sct",
                "display": "Dependent drug abuse"
              }
            ]
          },
          {
            "coding": [
              {
                "code": "15777000",
                "system": "http://snomed.info/sct",
                "display": "Prediabetes"
              }
            ]
          }
        ],
        "status": "active",
        "intent": "order",
        "code": {
          "coding": [
            {
              "code": "108252007",
              "system": "http://snomed.info/sct",
              "display": "Laboratory procedure"
            }
          ]
        },
        "subject": {
          "reference": "urn:uuid:c8ee841b-314f-4ca2-974a-6f3e583ea8de",
          "display": "Jele Jurković"
        },
        "requester": {
          "reference": "urn:uuid:7548c526-a772-411a-b9b5-9d21592b3bb5"
        }
      }
    },
    {
      "fullUrl": "urn:uuid:7548c526-a772-411a-b9b5-9d21592b3bb5",
      "resource": {
        "resourceType": "PractitionerRole",
        "id": "7548c526-a772-411a-b9b5-9d21592b3bb5",
        "meta": {
          "profile": [
            "http://hl7.eu/fhir/base/StructureDefinition/practitionerRole-eu"
          ]
        },
        "text": {
          "status": "generated",
          "div": "<div xmlns=\"http://www.w3.org/1999/xhtml\">Provider Role Id: 7548c526-a772-411a-b9b5-9d21592b3bb5</div>"
        },
        "organization": {
          "reference": "urn:uuid:7e635bbf-e326-4440-ab3c-afdbcae70536"
        }
      }
    },
    {
      "fullUrl": "urn:uuid:7e635bbf-e326-4440-ab3c-afdbcae70536",
      "resource": {
        "resourceType": "Organization",
        "id": "7e635bbf-e326-4440-ab3c-afdbcae70536",
        "meta": {
          "profile": [
            "http://hl7.eu/fhir/base/StructureDefinition/organization-eu"
          ]
        },
        "identifier": [
          {
            "assigner": {
              "display": "HL7 Europe"
            },
            "system": "urn:oid:2.16.840.1.113883.2.51.999",
            "value": "35d5cbf4-a43a-4740-8337-e64368dcfe3a"
          }
        ],
        "address": [
          {
            "line": [
              "Osječka ulica 107"
            ],
            "city": "Požega",
            "postalCode": "34000",
            "country": "Croatia"
          }
        ],
        "text": {
          "status": "generated",
          "div": "<div xmlns=\"http://www.w3.org/1999/xhtml\">Provider Organization: Opća županijska bolnica Požega</div>"
        },
        "name": "Opća županijska bolnica Požega"
      }
    },
    {
      "fullUrl": "urn:uuid:4a39cbe0-05ac-4eac-b8f5-226c0764e4fb",
      "resource": {
        "resourceType": "Specimen",
        "id": "4a39cbe0-05ac-4eac-b8f5-226c0764e4fb",
        "meta": {
          "profile": [
            "http://hl7.eu/fhir/laboratory/StructureDefinition/Specimen-eu-lab"
          ]
        },
        "collection": {
          "collectedDateTime": "2025-03-05"
        },
        "text": {
          "status": "generated",
          "div": "<div xmlns=\"http://www.w3.org/1999/xhtml\"><table class=\"hl7__eu__lab__report\"><tr><th>Specimen</th><th>Collection Date</th></tr><tr><td>Whole blood specimen (specimen)</td><td><span class=\"nb\">05-Mar-2025</span></td></tr></table></div>"
        },
        "type": {
          "coding": [
            {
              "code": "258580003",
              "system": "http://snomed.info/sct",
              "display": "Whole blood specimen (specimen)"
            }
          ]
        }
      }
    },
    {
      "fullUrl": "urn:uuid:28afe59a-0980-4af4-950c-2b160f77b129",
      "resource": {
        "resourceType": "Observation",
        "id": "28afe59a-0980-4af4-950c-2b160f77b129",
        "meta": {
          "profile": [
            "http://hl7.eu/fhir/laboratory/StructureDefinition/Observation-resultslab-eu-lab"
          ]
        },
        "performer": [
          {
            "display": "The Central European Lab"
          }
        ],
        "category": [
          {
            "coding": [
              {
                "system": "http://terminology.hl7.org/CodeSystem/observation-category",
                "code": "laboratory"
              }
            ]
          }
        ],
        "code": {
          "coding": [
            {
              "code": "4548-4",
              "system": "http://loinc.org",
              "display": "Hemoglobin A1c/Hemoglobin.total in Blood"
            }
          ],
          "text": "Hemoglobin A1c/Hemoglobin.total in Blood"
        },
        "valueQuantity": {
          "system": "http://unitsofmeasure.org",
          "value": 6.3,
          "unit": "%",
          "code": "%"
        },
        "referenceRange": [
          {
            "low": {
              "value": 4,
              "code": "%",
              "system": "http://unitsofmeasure.org"
            }
          },
          {
            "high": {
              "value": 6,
              "code": "%",
              "system": "http://unitsofmeasure.org"
            }
          }
        ],
        "interpretation": [
          {
            "coding": [
              {
                "code": "H",
                "system": "http://terminology.hl7.org/CodeSystem/v3-ObservationInterpretation",
                "display": "High"
              }
            ]
          }
        ],
        "text": {
          "status": "generated",
          "div": "<div xmlns=\"http://www.w3.org/1999/xhtml\"><table class=\"hl7__eu__lab__report\"><tr><th>Test</th><th>05-Mar-2025</th><th>Reference&#xA0;Range</th><th>Unit</th></tr><tr><td>Hemoglobin A1c/Hemoglobin.total in Blood</td><td>6.3</td><td>4 - 6</td><td>H</td><td>%</td></tr></table></div>"
        },
        "status": "final",
        "subject": {
          "reference": "urn:uuid:c8ee841b-314f-4ca2-974a-6f3e583ea8de",
          "display": "Jele Jurković"
        },
        "effectiveDateTime": "2025-03-05T18:07:38Z",
        "specimen": {
          "reference": "urn:uuid:4a39cbe0-05ac-4eac-b8f5-226c0764e4fb"
        }
      }
    },
    {
      "fullUrl": "urn:uuid:84c8b40b-6e87-45d4-b6c1-f0cfeab899a9",
      "resource": {
        "resourceType": "Observation",
        "id": "84c8b40b-6e87-45d4-b6c1-f0cfeab899a9",
        "meta": {
          "profile": [
            "http://hl7.eu/fhir/laboratory/StructureDefinition/Observation-resultslab-eu-lab"
          ]
        },
        "performer": [
          {
            "display": "The Central European Lab"
          }
        ],
        "category": [
          {
            "coding": [
              {
                "system": "http://terminology.hl7.org/CodeSystem/observation-category",
                "code": "laboratory"
              }
            ]
          }
        ],
        "code": {
          "coding": [
            {
              "code": "2339-0",
              "system": "http://loinc.org",
              "display": "Glucose [Mass/volume] in Blood"
            }
          ],
          "text": "Glucose [Mass/volume] in Blood"
        },
        "valueQuantity": {
          "system": "http://unitsofmeasure.org",
          "value": 88.8,
          "unit": "mg/dL",
          "code": "mg/dL"
        },
        "referenceRange": [
          {
            "low": {
              "value": 70,
              "code": "mg/dL",
              "system": "http://unitsofmeasure.org"
            }
          },
          {
            "high": {
              "value": 140,
              "code": "mg/dL",
              "system": "http://unitsofmeasure.org"
            }
          }
        ],
        "text": {
          "status": "generated",
          "div": "<div xmlns=\"http://www.w3.org/1999/xhtml\"><table class=\"hl7__eu__lab__report\"><tr><th>Test</th><th>05-Mar-2025</th><th>Reference&#xA0;Range</th><th>Unit</th></tr><tr><td>Glucose [Mass/volume] in Blood</td><td>88.8</td><td>70 - 140</td><td></td><td>mg/dL</td></tr></table></div>"
        },
        "status": "final",
        "subject": {
          "reference": "urn:uuid:c8ee841b-314f-4ca2-974a-6f3e583ea8de",
          "display": "Jele Jurković"
        },
        "effectiveDateTime": "2025-03-05T18:07:38Z",
        "specimen": {
          "reference": "urn:uuid:4a39cbe0-05ac-4eac-b8f5-226c0764e4fb"
        }
      }
    },
    {
      "fullUrl": "urn:uuid:43e741ff-2f45-4ce0-9618-b3b582f19d67",
      "resource": {
        "resourceType": "Observation",
        "id": "43e741ff-2f45-4ce0-9618-b3b582f19d67",
        "meta": {
          "profile": [
            "http://hl7.eu/fhir/laboratory/StructureDefinition/Observation-resultslab-eu-lab"
          ]
        },
        "performer": [
          {
            "display": "The Central European Lab"
          }
        ],
        "category": [
          {
            "coding": [
              {
                "system": "http://terminology.hl7.org/CodeSystem/observation-category",
                "code": "laboratory"
              }
            ]
          }
        ],
        "code": {
          "coding": [
            {
              "code": "6299-2",
              "system": "http://loinc.org",
              "display": "Urea nitrogen [Mass/volume] in Blood"
            }
          ],
          "text": "Urea nitrogen [Mass/volume] in Blood"
        },
        "valueQuantity": {
          "system": "http://unitsofmeasure.org",
          "value": 7.8,
          "unit": "mg/dL",
          "code": "mg/dL"
        },
        "referenceRange": [
          {
            "low": {
              "value": 7,
              "code": "mg/dL",
              "system": "http://unitsofmeasure.org"
            }
          },
          {
            "high": {
              "value": 50,
              "code": "mg/dL",
              "system": "http://unitsofmeasure.org"
            }
          }
        ],
        "text": {
          "status": "generated",
          "div": "<div xmlns=\"http://www.w3.org/1999/xhtml\"><table class=\"hl7__eu__lab__report\"><tr><th>Test</th><th>05-Mar-2025</th><th>Reference&#xA0;Range</th><th>Unit</th></tr><tr><td>Urea nitrogen [Mass/volume] in Blood</td><td>7.8</td><td>7 - 50</td><td></td><td>mg/dL</td></tr></table></div>"
        },
        "status": "final",
        "subject": {
          "reference": "urn:uuid:c8ee841b-314f-4ca2-974a-6f3e583ea8de",
          "display": "Jele Jurković"
        },
        "effectiveDateTime": "2025-03-05T18:07:38Z",
        "specimen": {
          "reference": "urn:uuid:4a39cbe0-05ac-4eac-b8f5-226c0764e4fb"
        }
      }
    },
    {
      "fullUrl": "urn:uuid:51a383ee-11f9-44af-9301-308c4756ab3e",
      "resource": {
        "resourceType": "Observation",
        "id": "51a383ee-11f9-44af-9301-308c4756ab3e",
        "meta": {
          "profile": [
            "http://hl7.eu/fhir/laboratory/StructureDefinition/Observation-resultslab-eu-lab"
          ]
        },
        "performer": [
          {
            "display": "The Central European Lab"
          }
        ],
        "category": [
          {
            "coding": [
              {
                "system": "http://terminology.hl7.org/CodeSystem/observation-category",
                "code": "laboratory"
              }
            ]
          }
        ],
        "code": {
          "coding": [
            {
              "code": "38483-4",
              "system": "http://loinc.org",
              "display": "Creatinine [Mass/volume] in Blood"
            }
          ],
          "text": "Creatinine [Mass/volume] in Blood"
        },
        "valueQuantity": {
          "system": "http://unitsofmeasure.org",
          "value": 0.6,
          "unit": "mg/dL",
          "code": "mg/dL"
        },
        "referenceRange": [
          {
            "low": {
              "value": 0.5,
              "code": "mg/dL",
              "system": "http://unitsofmeasure.org"
            }
          },
          {
            "high": {
              "value": 1.3,
              "code": "mg/dL",
              "system": "http://unitsofmeasure.org"
            }
          }
        ],
        "text": {
          "status": "generated",
          "div": "<div xmlns=\"http://www.w3.org/1999/xhtml\"><table class=\"hl7__eu__lab__report\"><tr><th>Test</th><th>05-Mar-2025</th><th>Reference&#xA0;Range</th><th>Unit</th></tr><tr><td>Creatinine [Mass/volume] in Blood</td><td>0.6</td><td>0.5 - 1.3</td><td></td><td>mg/dL</td></tr></table></div>"
        },
        "status": "final",
        "subject": {
          "reference": "urn:uuid:c8ee841b-314f-4ca2-974a-6f3e583ea8de",
          "display": "Jele Jurković"
        },
        "effectiveDateTime": "2025-03-05T18:07:38Z",
        "specimen": {
          "reference": "urn:uuid:4a39cbe0-05ac-4eac-b8f5-226c0764e4fb"
        }
      }
    },
    {
      "fullUrl": "urn:uuid:40e1d526-f289-447a-bd8d-8c7ecc927553",
      "resource": {
        "resourceType": "Observation",
        "id": "40e1d526-f289-447a-bd8d-8c7ecc927553",
        "meta": {
          "profile": [
            "http://hl7.eu/fhir/laboratory/StructureDefinition/Observation-resultslab-eu-lab"
          ]
        },
        "performer": [
          {
            "display": "The Central European Lab"
          }
        ],
        "category": [
          {
            "coding": [
              {
                "system": "http://terminology.hl7.org/CodeSystem/observation-category",
                "code": "laboratory"
              }
            ]
          }
        ],
        "code": {
          "coding": [
            {
              "code": "49765-1",
              "system": "http://loinc.org",
              "display": "Calcium [Mass/volume] in Blood"
            }
          ],
          "text": "Calcium [Mass/volume] in Blood"
        },
        "valueQuantity": {
          "system": "http://unitsofmeasure.org",
          "value": 10,
          "unit": "mg/dL",
          "code": "mg/dL"
        },
        "referenceRange": [
          {
            "low": {
              "value": 8.5,
              "code": "mg/dL",
              "system": "http://unitsofmeasure.org"
            }
          },
          {
            "high": {
              "value": 10.4,
              "code": "mg/dL",
              "system": "http://unitsofmeasure.org"
            }
          }
        ],
        "text": {
          "status": "generated",
          "div": "<div xmlns=\"http://www.w3.org/1999/xhtml\"><table class=\"hl7__eu__lab__report\"><tr><th>Test</th><th>05-Mar-2025</th><th>Reference&#xA0;Range</th><th>Unit</th></tr><tr><td>Calcium [Mass/volume] in Blood</td><td>10.0</td><td>8.5 - 10.4</td><td></td><td>mg/dL</td></tr></table></div>"
        },
        "status": "final",
        "subject": {
          "reference": "urn:uuid:c8ee841b-314f-4ca2-974a-6f3e583ea8de",
          "display": "Jele Jurković"
        },
        "effectiveDateTime": "2025-03-05T18:07:38Z",
        "specimen": {
          "reference": "urn:uuid:4a39cbe0-05ac-4eac-b8f5-226c0764e4fb"
        }
      }
    },
    {
      "fullUrl": "urn:uuid:eeb2cc9a-2b5f-4db5-bae6-554c6337b345",
      "resource": {
        "resourceType": "Observation",
        "id": "eeb2cc9a-2b5f-4db5-bae6-554c6337b345",
        "meta": {
          "profile": [
            "http://hl7.eu/fhir/laboratory/StructureDefinition/Observation-resultslab-eu-lab"
          ]
        },
        "performer": [
          {
            "display": "The Central European Lab"
          }
        ],
        "category": [
          {
            "coding": [
              {
                "system": "http://terminology.hl7.org/CodeSystem/observation-category",
                "code": "laboratory"
              }
            ]
          }
        ],
        "code": {
          "coding": [
            {
              "code": "2947-0",
              "system": "http://loinc.org",
              "display": "Sodium [Moles/volume] in Blood"
            }
          ],
          "text": "Sodium [Moles/volume] in Blood"
        },
        "valueQuantity": {
          "system": "http://unitsofmeasure.org",
          "value": 142.1,
          "unit": "mmol/L",
          "code": "mmol/L"
        },
        "referenceRange": [
          {
            "low": {
              "value": 135,
              "code": "mmol/L",
              "system": "http://unitsofmeasure.org"
            }
          },
          {
            "high": {
              "value": 145,
              "code": "mmol/L",
              "system": "http://unitsofmeasure.org"
            }
          }
        ],
        "text": {
          "status": "generated",
          "div": "<div xmlns=\"http://www.w3.org/1999/xhtml\"><table class=\"hl7__eu__lab__report\"><tr><th>Test</th><th>05-Mar-2025</th><th>Reference&#xA0;Range</th><th>Unit</th></tr><tr><td>Sodium [Moles/volume] in Blood</td><td>142.1</td><td>135 - 145</td><td></td><td>mmol/L</td></tr></table></div>"
        },
        "status": "final",
        "subject": {
          "reference": "urn:uuid:c8ee841b-314f-4ca2-974a-6f3e583ea8de",
          "display": "Jele Jurković"
        },
        "effectiveDateTime": "2025-03-05T18:07:38Z",
        "specimen": {
          "reference": "urn:uuid:4a39cbe0-05ac-4eac-b8f5-226c0764e4fb"
        }
      }
    },
    {
      "fullUrl": "urn:uuid:dd8ee61b-d0c2-4e0a-96c2-b2af6d4cbf90",
      "resource": {
        "resourceType": "Observation",
        "id": "dd8ee61b-d0c2-4e0a-96c2-b2af6d4cbf90",
        "meta": {
          "profile": [
            "http://hl7.eu/fhir/laboratory/StructureDefinition/Observation-resultslab-eu-lab"
          ]
        },
        "performer": [
          {
            "display": "The Central European Lab"
          }
        ],
        "category": [
          {
            "coding": [
              {
                "system": "http://terminology.hl7.org/CodeSystem/observation-category",
                "code": "laboratory"
              }
            ]
          }
        ],
        "code": {
          "coding": [
            {
              "code": "6298-4",
              "system": "http://loinc.org",
              "display": "Potassium [Moles/volume] in Blood"
            }
          ],
          "text": "Potassium [Moles/volume] in Blood"
        },
        "valueQuantity": {
          "system": "http://unitsofmeasure.org",
          "value": 4.8,
          "unit": "mmol/L",
          "code": "mmol/L"
        },
        "referenceRange": [
          {
            "low": {
              "value": 3.5,
              "code": "mmol/L",
              "system": "http://unitsofmeasure.org"
            }
          },
          {
            "high": {
              "value": 5.3,
              "code": "mmol/L",
              "system": "http://unitsofmeasure.org"
            }
          }
        ],
        "text": {
          "status": "generated",
          "div": "<div xmlns=\"http://www.w3.org/1999/xhtml\"><table class=\"hl7__eu__lab__report\"><tr><th>Test</th><th>05-Mar-2025</th><th>Reference&#xA0;Range</th><th>Unit</th></tr><tr><td>Potassium [Moles/volume] in Blood</td><td>4.8</td><td>3.5 - 5.3</td><td></td><td>mmol/L</td></tr></table></div>"
        },
        "status": "final",
        "subject": {
          "reference": "urn:uuid:c8ee841b-314f-4ca2-974a-6f3e583ea8de",
          "display": "Jele Jurković"
        },
        "effectiveDateTime": "2025-03-05T18:07:38Z",
        "specimen": {
          "reference": "urn:uuid:4a39cbe0-05ac-4eac-b8f5-226c0764e4fb"
        }
      }
    },
    {
      "fullUrl": "urn:uuid:66453c98-a588-4b5a-9416-d1f2ab579146",
      "resource": {
        "resourceType": "Observation",
        "id": "66453c98-a588-4b5a-9416-d1f2ab579146",
        "meta": {
          "profile": [
            "http://hl7.eu/fhir/laboratory/StructureDefinition/Observation-resultslab-eu-lab"
          ]
        },
        "performer": [
          {
            "display": "The Central European Lab"
          }
        ],
        "category": [
          {
            "coding": [
              {
                "system": "http://terminology.hl7.org/CodeSystem/observation-category",
                "code": "laboratory"
              }
            ]
          }
        ],
        "code": {
          "coding": [
            {
              "code": "2069-3",
              "system": "http://loinc.org",
              "display": "Chloride [Moles/volume] in Blood"
            }
          ],
          "text": "Chloride [Moles/volume] in Blood"
        },
        "valueQuantity": {
          "system": "http://unitsofmeasure.org",
          "value": 103.4,
          "unit": "mmol/L",
          "code": "mmol/L"
        },
        "referenceRange": [
          {
            "low": {
              "value": 98,
              "code": "mmol/L",
              "system": "http://unitsofmeasure.org"
            }
          },
          {
            "high": {
              "value": 110,
              "code": "mmol/L",
              "system": "http://unitsofmeasure.org"
            }
          }
        ],
        "text": {
          "status": "generated",
          "div": "<div xmlns=\"http://www.w3.org/1999/xhtml\"><table class=\"hl7__eu__lab__report\"><tr><th>Test</th><th>05-Mar-2025</th><th>Reference&#xA0;Range</th><th>Unit</th></tr><tr><td>Chloride [Moles/volume] in Blood</td><td>103.4</td><td>98 - 110</td><td></td><td>mmol/L</td></tr></table></div>"
        },
        "status": "final",
        "subject": {
          "reference": "urn:uuid:c8ee841b-314f-4ca2-974a-6f3e583ea8de",
          "display": "Jele Jurković"
        },
        "effectiveDateTime": "2025-03-05T18:07:38Z",
        "specimen": {
          "reference": "urn:uuid:4a39cbe0-05ac-4eac-b8f5-226c0764e4fb"
        }
      }
    },
    {
      "fullUrl": "urn:uuid:77edb45c-442d-4334-a72b-6d2473123713",
      "resource": {
        "resourceType": "Observation",
        "id": "77edb45c-442d-4334-a72b-6d2473123713",
        "meta": {
          "profile": [
            "http://hl7.eu/fhir/laboratory/StructureDefinition/Observation-resultslab-eu-lab"
          ]
        },
        "performer": [
          {
            "display": "The Central European Lab"
          }
        ],
        "category": [
          {
            "coding": [
              {
                "system": "http://terminology.hl7.org/CodeSystem/observation-category",
                "code": "laboratory"
              }
            ]
          }
        ],
        "code": {
          "coding": [
            {
              "code": "20565-8",
              "system": "http://loinc.org",
              "display": "Carbon dioxide, total [Moles/volume] in Blood"
            }
          ],
          "text": "Carbon dioxide, total [Moles/volume] in Blood"
        },
        "valueQuantity": {
          "system": "http://unitsofmeasure.org",
          "value": 24.6,
          "unit": "mmol/L",
          "code": "mmol/L"
        },
        "referenceRange": [
          {
            "low": {
              "value": 22,
              "code": "mmol/L",
              "system": "http://unitsofmeasure.org"
            }
          },
          {
            "high": {
              "value": 32,
              "code": "mmol/L",
              "system": "http://unitsofmeasure.org"
            }
          }
        ],
        "text": {
          "status": "generated",
          "div": "<div xmlns=\"http://www.w3.org/1999/xhtml\"><table class=\"hl7__eu__lab__report\"><tr><th>Test</th><th>05-Mar-2025</th><th>Reference&#xA0;Range</th><th>Unit</th></tr><tr><td>Carbon dioxide, total [Moles/volume] in Blood</td><td>24.6</td><td>22 - 32</td><td></td><td>mmol/L</td></tr></table></div>"
        },
        "status": "final",
        "subject": {
          "reference": "urn:uuid:c8ee841b-314f-4ca2-974a-6f3e583ea8de",
          "display": "Jele Jurković"
        },
        "effectiveDateTime": "2025-03-05T18:07:38Z",
        "specimen": {
          "reference": "urn:uuid:4a39cbe0-05ac-4eac-b8f5-226c0764e4fb"
        }
      }
    },
    {
      "fullUrl": "urn:uuid:cfd5a51d-d3ec-490f-91d9-f675eab4569f",
      "resource": {
        "resourceType": "Device",
        "id": "cfd5a51d-d3ec-490f-91d9-f675eab4569f",
        "deviceName": [
          {
            "name": "SYNDERAI Synthetic Generator",
            "type": "manufacturer-name"
          }
        ],
        "version": [
          {
            "value": "5.0"
          }
        ],
        "text": {
          "status": "generated",
          "div": "<div xmlns=\"http://www.w3.org/1999/xhtml\">SYNDERAI Synthetic Generator v5.0</div>"
        },
        "status": "active\"",
        "distinctIdentifier": "synderai-generator-50",
        "manufacturer": "SYNDERAI Project"
      }
    },
    {
      "fullUrl": "urn:uuid:efb6d01c-ca41-459a-b631-3c148890f516",
      "resource": {
        "resourceType": "Provenance",
        "id": "efb6d01c-ca41-459a-b631-3c148890f516",
        "target": [
          {
            "reference": "Patient/c8ee841b-314f-4ca2-974a-6f3e583ea8de"
          },
          {
            "reference": "Bundle/e76db85f-f9cb-4721-bf8d-06079a7aa63b"
          },
          {
            "reference": "Composition/4ecd80f5-ed34-4558-8e9a-fe1be55f2554"
          },
          {
            "reference": "PractitionerRole/161f673d-f57b-4306-9649-470919765880"
          },
          {
            "reference": "Practitioner/59605d7e-b306-43e8-a6a0-4468f9178d59"
          },
          {
            "reference": "PractitionerRole/7548c526-a772-411a-b9b5-9d21592b3bb5"
          },
          {
            "reference": "Organization/7e635bbf-e326-4440-ab3c-afdbcae70536"
          }
        ],
        "activity": {
          "text": "Synthetic Example Data Generation"
        },
        "policy": [
          "https://synderai.net/synderai-synthetic-data-policy"
        ],
        "agent": [
          {
            "type": {
              "text": "author"
            },
            "who": {
              "reference": "Device/cfd5a51d-d3ec-490f-91d9-f675eab4569f"
            }
          }
        ],
        "reason": [
          {
            "text": "Interoperability Testing and Training (non-clinical use)"
          }
        ],
        "text": {
          "status": "generated",
          "div": "<div xmlns=\"http://www.w3.org/1999/xhtml\">Provenance for SYNDERAI Synthetic Example Data Resource</div>"
        },
        "recorded": "2025-03-05T19:07:38Z"
      }
    },
    {
      "fullUrl": "urn:uuid:161f673d-f57b-4306-9649-470919765880",
      "resource": {
        "resourceType": "PractitionerRole",
        "id": "161f673d-f57b-4306-9649-470919765880",
        "meta": {
          "profile": [
            "http://hl7.eu/fhir/base/StructureDefinition/practitionerRole-eu"
          ]
        },
        "text": {
          "status": "generated",
          "div": "<div xmlns=\"http://www.w3.org/1999/xhtml\">Laboratory Role Id: 161f673d-f57b-4306-9649-470919765880</div>"
        },
        "practitioner": {
          "reference": "urn:uuid:59605d7e-b306-43e8-a6a0-4468f9178d59"
        }
      }
    },
    {
      "fullUrl": "urn:uuid:59605d7e-b306-43e8-a6a0-4468f9178d59",
      "resource": {
        "resourceType": "Practitioner",
        "id": "59605d7e-b306-43e8-a6a0-4468f9178d59",
        "meta": {
          "profile": [
            "http://hl7.eu/fhir/base/StructureDefinition/practitioner-eu"
          ]
        },
        "identifier": [
          {
            "assigner": {
              "display": "HL7 Europe"
            },
            "system": "urn:oid:2.16.840.1.113883.2.51.999",
            "value": "407e9ab2-7caf-481f-a313-b40106c4f3ee"
          }
        ],
        "name": [
          {
            "prefix": [
              "dr"
            ],
            "given": [
              "Ex"
            ],
            "family": "Ample"
          }
        ],
        "address": [
          {
            "line": [
              "Laboratoire Central Européenne",
              "Boulevard du Jardin Botanique 32"
            ],
            "postalCode": "1000",
            "city": "Brussels",
            "country": "Belgium"
          }
        ],
        "text": {
          "status": "generated",
          "div": "<div xmlns=\"http://www.w3.org/1999/xhtml\">Laboratory: Laboratoire Central Européenne, 1000 Brussels, Belgium</div>"
        }
      }
    }
  ],
  "type": "document",
  "timestamp": "2025-03-05T19:07:38Z"
}
