{
  "resourceType": "Bundle",
  "id": "e76c26fe-828c-4cf3-990a-cbc2c691fbee",
  "meta": {
    "profile": [
      "http://hl7.eu/fhir/laboratory/StructureDefinition/Bundle-eu-lab"
    ]
  },
  "identifier": {
    "assigner": {
      "display": "HL7 Europe"
    },
    "system": "urn:oid:2.16.840.1.113883.2.51.999",
    "value": "0e56c8a7-d083-46bf-873b-8ee74aece2a2"
  },
  "entry": [
    {
      "fullUrl": "urn:uuid:d12a1860-9d0b-4361-a275-18789d145f42",
      "resource": {
        "resourceType": "Composition",
        "id": "d12a1860-9d0b-4361-a275-18789d145f42",
        "meta": {
          "profile": [
            "http://hl7.eu/fhir/laboratory/StructureDefinition/Composition-eu-lab"
          ]
        },
        "identifier": {
          "assigner": {
            "display": "HL7 Europe"
          },
          "system": "urn:oid:2.16.840.1.113883.2.51.999",
          "value": "23045666-626f-4782-a948-e619939f3bbe"
        },
        "author": [
          {
            "reference": "urn:uuid:d4514f54-a619-4268-b95c-44c65b97f4ff"
          }
        ],
        "category": [
          {
            "coding": [
              {
                "code": "26436-6",
                "system": "http://loinc.org",
                "display": "Laboratory studies (set)"
              }
            ]
          }
        ],
        "type": {
          "coding": [
            {
              "code": "11502-2",
              "system": "http://loinc.org",
              "display": "Laboratory report"
            }
          ],
          "text": "Laboratory Report"
        },
        "section": [
          {
            "code": {
              "coding": [
                {
                  "code": "26436-6",
                  "system": "http://loinc.org",
                  "display": "Laboratory studies (set)"
                }
              ],
              "text": "Laboratory studies"
            },
            "section": [
              {
                "code": {
                  "coding": [
                    {
                      "code": "$18719-5",
                      "system": "http://loinc.org",
                      "display": "Chemistry studies (set)"
                    }
                  ],
                  "text": "Chemistry"
                },
                "entry": [
                  {
                    "reference": "urn:uuid:9bfece84-58e4-4cb9-823b-72b04bb845d2"
                  },
                  {
                    "reference": "urn:uuid:ce8a895b-b634-4c4c-9184-8e2e4c81b55c"
                  },
                  {
                    "reference": "urn:uuid:a001bca3-836e-4cb9-952a-03ff0f2e2997"
                  },
                  {
                    "reference": "urn:uuid:e3dceb5b-d0f8-4637-9c99-869554456117"
                  }
                ],
                "text": {
                  "status": "generated",
                  "div": "<div xmlns=\"http://www.w3.org/1999/xhtml\"><h3>Chemistry</h3><table class=\"hl7__eu__lab__report\"><thead><tr><th>Test</th><th>21-MAR-2020</th><th>Reference&#xA0;Range</th><th>Unit</th></tr></thead><tbody><tr><td>Cholesterol [Mass/volume] in Serum or Plasma</td><td>185.4</td><td>125 - 200</td><td>mg/dL</td></tr><tr><td>Triglyceride [Mass/volume] in Serum or Plasma</td><td>133.6</td><td>35 - 150</td><td>mg/dL</td></tr><tr><td>Cholesterol in LDL [Mass/volume] in Serum or Plasma by Direct assay</td><td>110.7</td><td>0 - 130</td><td>mg/dL</td></tr><tr><td>Cholesterol in HDL [Mass/volume] in Serum or Plasma</td><td>48.0</td><td>40 - 60</td><td>mg/dL</td></tr></tbody></table></div>"
                },
                "title": "Chemistry"
              }
            ],
            "title": "Laboratory Report"
          },
          {
            "text": {
              "status": "generated",
              "div": "<div xmlns=\"http://www.w3.org/1999/xhtml\"><h3>Annotation</h3><table class=\"hl7__eu__lab__report\"><tr><th>Conclusion and Recommendations based on this report and previous findings known to us</th></tr><tr><td>All lipid parameters are within normal limits. Cholesterol, LDL, HDL, and triglycerides are in the desirable range, indicating a low cardiovascular risk from a laboratory perspective. No abnormalities detected; routine follow-up as clinically indicated.</td></tr></table></div>"
            },
            "code": {
              "coding": [
                {
                  "system": "http://loinc.org",
                  "code": "48767-8",
                  "display": "Annotation comment"
                }
              ]
            },
            "title": "Annotation comment"
          }
        ],
        "status": "final",
        "subject": {
          "reference": "urn:uuid:91bf3563-ff45-41be-8fe5-781ff1b5a72d",
          "display": "Pamela Dixon"
        },
        "date": "2020-03-21T19:20:37Z",
        "title": "Laboratory Report",
        "confidentiality": "N"
      }
    },
    {
      "fullUrl": "urn:uuid:f73226f8-f9cd-40a0-8056-24153d86a4ea",
      "resource": {
        "resourceType": "DiagnosticReport",
        "id": "f73226f8-f9cd-40a0-8056-24153d86a4ea",
        "meta": {
          "profile": [
            "http://hl7.eu/fhir/laboratory/StructureDefinition/DiagnosticReport-eu-lab"
          ]
        },
        "identifier": [
          {
            "assigner": {
              "display": "HL7 Europe"
            },
            "system": "urn:oid:2.16.840.1.113883.2.51.999",
            "value": "b8c01a8b-ffbd-4d63-bf1a-4528886b9e37"
          }
        ],
        "extension": [
          {
            "url": "http://hl7.org/fhir/5.0/StructureDefinition/extension-DiagnosticReport.composition",
            "valueReference": {
              "reference": "urn:uuid:23045666-626f-4782-a948-e619939f3bbe"
            }
          }
        ],
        "category": [
          {
            "coding": [
              {
                "code": "26436-6",
                "system": "http://loinc.org",
                "display": "Laboratory studies (set)"
              }
            ]
          }
        ],
        "specimen": [
          {
            "reference": "urn:uuid:7dff9d33-2c2e-4ffd-a177-3140e5b3acb4"
          }
        ],
        "result": [
          {
            "reference": "urn:uuid:9bfece84-58e4-4cb9-823b-72b04bb845d2"
          },
          {
            "reference": "urn:uuid:ce8a895b-b634-4c4c-9184-8e2e4c81b55c"
          },
          {
            "reference": "urn:uuid:a001bca3-836e-4cb9-952a-03ff0f2e2997"
          },
          {
            "reference": "urn:uuid:e3dceb5b-d0f8-4637-9c99-869554456117"
          }
        ],
        "status": "registered",
        "code": {
          "coding": [
            {
              "code": "11502-2",
              "system": "http://loinc.org",
              "display": "Laboratory report"
            }
          ]
        },
        "subject": {
          "reference": "urn:uuid:91bf3563-ff45-41be-8fe5-781ff1b5a72d",
          "display": "Pamela Dixon"
        }
      }
    },
    {
      "fullUrl": "urn:uuid:91bf3563-ff45-41be-8fe5-781ff1b5a72d",
      "resource": {
        "resourceType": "Patient",
        "id": "91bf3563-ff45-41be-8fe5-781ff1b5a72d",
        "meta": {
          "security": [
            {
              "system": "http://terminology.hl7.org/CodeSystem/v3-ActReason",
              "code": "HTEST"
            },
            {
              "system": "http://terminology.hl7.org/CodeSystem/v3-ActReason",
              "code": "TRAIN"
            }
          ],
          "tag": [
            {
              "system": "https://synderai.net/fhir/CodeSystem/tags",
              "code": "synthetic",
              "display": "SYNDERAI Synthetic data"
            }
          ],
          "profile": [
            "http://hl7.eu/fhir/base/StructureDefinition/patient-eu-core"
          ]
        },
        "identifier": [
          {
            "type": {
              "coding": [
                {
                  "code": "PT",
                  "system": "http://terminology.hl7.org/CodeSystem/v2-0203"
                }
              ]
            },
            "system": "http://ec.europa.eu/identifier/eci",
            "value": "6166-148600-3"
          },
          {
            "type": {
              "coding": [
                {
                  "code": "MR",
                  "system": "http://terminology.hl7.org/CodeSystem/v2-0203"
                }
              ]
            },
            "system": "http://local.setting.eu/identifier",
            "value": "aa6e2273-ade9-f985-ca21-1a30863d243e"
          }
        ],
        "name": [
          {
            "family": "Dixon"
          },
          {
            "given": [
              "Pamela"
            ]
          },
          {
            "text": "Pamela Dixon"
          }
        ],
        "address": [
          {
            "line": [
              "6 Diana landing"
            ],
            "use": "home",
            "type": "physical",
            "postalCode": "M14",
            "city": "Claireport",
            "country": "United Kingdom"
          }
        ],
        "telecom": [
          {
            "system": "phone",
            "value": "0121 496 0481"
          }
        ],
        "extension": [
          {
            "url": "http://hl7.org/fhir/StructureDefinition/patient-nationality",
            "valueCodeableConcept": {
              "coding": [
                {
                  "code": "GB",
                  "system": "http://hl7.org/fhir/ValueSet/country"
                }
              ]
            }
          }
        ],
        "text": {
          "status": "generated",
          "div": "<div xmlns=\"http://www.w3.org/1999/xhtml\"><table class=\"hl7__ips\"><tr><td>Pamela Dixon</td><td>female</td><td>01-Dec-1990</td></tr></table></div>"
        },
        "gender": "female",
        "birthDate": "1990-12-01"
      }
    },
    {
      "fullUrl": "urn:uuid:011bf85f-9d71-446c-9b11-822dff50cb5b",
      "resource": {
        "resourceType": "ServiceRequest",
        "id": "011bf85f-9d71-446c-9b11-822dff50cb5b",
        "meta": {
          "profile": [
            "http://hl7.eu/fhir/laboratory/StructureDefinition/ServiceRequest-eu-lab"
          ]
        },
        "identifier": [
          {
            "system": "http://example.org",
            "value": "1fa6ec71-207a-487a-bb65-dcb11f2e3fd4"
          }
        ],
        "specimen": [
          {
            "reference": "urn:uuid:7dff9d33-2c2e-4ffd-a177-3140e5b3acb4"
          }
        ],
        "status": "active",
        "intent": "order",
        "code": {
          "coding": [
            {
              "code": "108252007",
              "system": "http://snomed.info/sct",
              "display": "Laboratory procedure"
            }
          ]
        },
        "subject": {
          "reference": "urn:uuid:91bf3563-ff45-41be-8fe5-781ff1b5a72d",
          "display": "Pamela Dixon"
        },
        "requester": {
          "reference": "urn:uuid:8a345290-ebf5-4252-a8d4-f9245f11ba32"
        }
      }
    },
    {
      "fullUrl": "urn:uuid:8a345290-ebf5-4252-a8d4-f9245f11ba32",
      "resource": {
        "resourceType": "PractitionerRole",
        "id": "8a345290-ebf5-4252-a8d4-f9245f11ba32",
        "meta": {
          "profile": [
            "http://hl7.eu/fhir/base/StructureDefinition/practitionerRole-eu"
          ]
        },
        "text": {
          "status": "generated",
          "div": "<div xmlns=\"http://www.w3.org/1999/xhtml\">Provider Role Id: 8a345290-ebf5-4252-a8d4-f9245f11ba32</div>"
        },
        "organization": {
          "reference": "urn:uuid:7721bb7e-a7cf-48f7-9c17-d3342088dcd5"
        }
      }
    },
    {
      "fullUrl": "urn:uuid:7721bb7e-a7cf-48f7-9c17-d3342088dcd5",
      "resource": {
        "resourceType": "Organization",
        "id": "7721bb7e-a7cf-48f7-9c17-d3342088dcd5",
        "meta": {
          "profile": [
            "http://hl7.eu/fhir/base/StructureDefinition/organization-eu"
          ]
        },
        "identifier": [
          {
            "assigner": {
              "display": "HL7 Europe"
            },
            "system": "urn:oid:2.16.840.1.113883.2.51.999",
            "value": "417cec27-8e85-4207-ada3-4d1a2cd1ad8c"
          }
        ],
        "address": [
          {
            "line": [
              "City Road 204"
            ],
            "city": "Manchester",
            "postalCode": "M3 3",
            "country": "United Kingdom"
          }
        ],
        "text": {
          "status": "generated",
          "div": "<div xmlns=\"http://www.w3.org/1999/xhtml\">Provider Organization: Cornbrook Medical Practice</div>"
        },
        "name": "Cornbrook Medical Practice"
      }
    },
    {
      "fullUrl": "urn:uuid:7dff9d33-2c2e-4ffd-a177-3140e5b3acb4",
      "resource": {
        "resourceType": "Specimen",
        "id": "7dff9d33-2c2e-4ffd-a177-3140e5b3acb4",
        "meta": {
          "profile": [
            "http://hl7.eu/fhir/laboratory/StructureDefinition/Specimen-eu-lab"
          ]
        },
        "collection": {
          "collectedDateTime": "2020-03-21"
        },
        "text": {
          "status": "generated",
          "div": "<div xmlns=\"http://www.w3.org/1999/xhtml\"><table class=\"hl7__eu__lab__report\"><tr><th>Specimen</th><th>Collection Date</th></tr><tr><td>Acellular blood (serum or plasma) specimen</td><td><span class=\"nb\">21-Mar-2020</span></td></tr></table></div>"
        },
        "type": {
          "coding": [
            {
              "code": "122592007",
              "system": "http://snomed.info/sct",
              "display": "Acellular blood (serum or plasma) specimen"
            }
          ]
        }
      }
    },
    {
      "fullUrl": "urn:uuid:9bfece84-58e4-4cb9-823b-72b04bb845d2",
      "resource": {
        "resourceType": "Observation",
        "id": "9bfece84-58e4-4cb9-823b-72b04bb845d2",
        "meta": {
          "profile": [
            "http://hl7.eu/fhir/laboratory/StructureDefinition/Observation-resultslab-eu-lab"
          ]
        },
        "performer": [
          {
            "display": "The Central European Lab"
          }
        ],
        "category": [
          {
            "coding": [
              {
                "system": "http://terminology.hl7.org/CodeSystem/observation-category",
                "code": "laboratory"
              }
            ]
          }
        ],
        "code": {
          "coding": [
            {
              "code": "2093-3",
              "system": "http://loinc.org",
              "display": "Cholesterol [Mass/volume] in Serum or Plasma"
            }
          ],
          "text": "Cholesterol [Mass/volume] in Serum or Plasma"
        },
        "valueQuantity": {
          "system": "http://unitsofmeasure.org",
          "value": 185.4,
          "unit": "mg/dL",
          "code": "mg/dL"
        },
        "referenceRange": [
          {
            "low": {
              "value": 125,
              "code": "mg/dL",
              "system": "http://unitsofmeasure.org"
            }
          },
          {
            "high": {
              "value": 200,
              "code": "mg/dL",
              "system": "http://unitsofmeasure.org"
            }
          }
        ],
        "text": {
          "status": "generated",
          "div": "<div xmlns=\"http://www.w3.org/1999/xhtml\"><table class=\"hl7__eu__lab__report\"><tr><th>Test</th><th>21-Mar-2020</th><th>Reference&#xA0;Range</th><th>Unit</th></tr><tr><td>Cholesterol [Mass/volume] in Serum or Plasma</td><td>185.4</td><td>125 - 200</td><td></td><td>mg/dL</td></tr></table></div>"
        },
        "status": "final",
        "subject": {
          "reference": "urn:uuid:91bf3563-ff45-41be-8fe5-781ff1b5a72d",
          "display": "Pamela Dixon"
        },
        "effectiveDateTime": "2020-03-21T18:20:37Z",
        "specimen": {
          "reference": "urn:uuid:7dff9d33-2c2e-4ffd-a177-3140e5b3acb4"
        }
      }
    },
    {
      "fullUrl": "urn:uuid:ce8a895b-b634-4c4c-9184-8e2e4c81b55c",
      "resource": {
        "resourceType": "Observation",
        "id": "ce8a895b-b634-4c4c-9184-8e2e4c81b55c",
        "meta": {
          "profile": [
            "http://hl7.eu/fhir/laboratory/StructureDefinition/Observation-resultslab-eu-lab"
          ]
        },
        "performer": [
          {
            "display": "The Central European Lab"
          }
        ],
        "category": [
          {
            "coding": [
              {
                "system": "http://terminology.hl7.org/CodeSystem/observation-category",
                "code": "laboratory"
              }
            ]
          }
        ],
        "code": {
          "coding": [
            {
              "code": "2571-8",
              "system": "http://loinc.org",
              "display": "Triglyceride [Mass/volume] in Serum or Plasma"
            }
          ],
          "text": "Triglyceride [Mass/volume] in Serum or Plasma"
        },
        "valueQuantity": {
          "system": "http://unitsofmeasure.org",
          "value": 133.6,
          "unit": "mg/dL",
          "code": "mg/dL"
        },
        "referenceRange": [
          {
            "low": {
              "value": 35,
              "code": "mg/dL",
              "system": "http://unitsofmeasure.org"
            }
          },
          {
            "high": {
              "value": 150,
              "code": "mg/dL",
              "system": "http://unitsofmeasure.org"
            }
          }
        ],
        "text": {
          "status": "generated",
          "div": "<div xmlns=\"http://www.w3.org/1999/xhtml\"><table class=\"hl7__eu__lab__report\"><tr><th>Test</th><th>21-Mar-2020</th><th>Reference&#xA0;Range</th><th>Unit</th></tr><tr><td>Triglyceride [Mass/volume] in Serum or Plasma</td><td>133.6</td><td>35 - 150</td><td></td><td>mg/dL</td></tr></table></div>"
        },
        "status": "final",
        "subject": {
          "reference": "urn:uuid:91bf3563-ff45-41be-8fe5-781ff1b5a72d",
          "display": "Pamela Dixon"
        },
        "effectiveDateTime": "2020-03-21T18:20:37Z",
        "specimen": {
          "reference": "urn:uuid:7dff9d33-2c2e-4ffd-a177-3140e5b3acb4"
        }
      }
    },
    {
      "fullUrl": "urn:uuid:a001bca3-836e-4cb9-952a-03ff0f2e2997",
      "resource": {
        "resourceType": "Observation",
        "id": "a001bca3-836e-4cb9-952a-03ff0f2e2997",
        "meta": {
          "profile": [
            "http://hl7.eu/fhir/laboratory/StructureDefinition/Observation-resultslab-eu-lab"
          ]
        },
        "performer": [
          {
            "display": "The Central European Lab"
          }
        ],
        "category": [
          {
            "coding": [
              {
                "system": "http://terminology.hl7.org/CodeSystem/observation-category",
                "code": "laboratory"
              }
            ]
          }
        ],
        "code": {
          "coding": [
            {
              "code": "18262-6",
              "system": "http://loinc.org",
              "display": "Cholesterol in LDL [Mass/volume] in Serum or Plasma by Direct assay"
            }
          ],
          "text": "Cholesterol in LDL [Mass/volume] in Serum or Plasma by Direct assay"
        },
        "valueQuantity": {
          "system": "http://unitsofmeasure.org",
          "value": 110.7,
          "unit": "mg/dL",
          "code": "mg/dL"
        },
        "referenceRange": [
          {
            "low": {
              "value": 0,
              "code": "mg/dL",
              "system": "http://unitsofmeasure.org"
            }
          },
          {
            "high": {
              "value": 130,
              "code": "mg/dL",
              "system": "http://unitsofmeasure.org"
            }
          }
        ],
        "text": {
          "status": "generated",
          "div": "<div xmlns=\"http://www.w3.org/1999/xhtml\"><table class=\"hl7__eu__lab__report\"><tr><th>Test</th><th>21-Mar-2020</th><th>Reference&#xA0;Range</th><th>Unit</th></tr><tr><td>Cholesterol in LDL [Mass/volume] in Serum or Plasma by Direct assay</td><td>110.7</td><td>0 - 130</td><td></td><td>mg/dL</td></tr></table></div>"
        },
        "status": "final",
        "subject": {
          "reference": "urn:uuid:91bf3563-ff45-41be-8fe5-781ff1b5a72d",
          "display": "Pamela Dixon"
        },
        "effectiveDateTime": "2020-03-21T18:20:37Z",
        "specimen": {
          "reference": "urn:uuid:7dff9d33-2c2e-4ffd-a177-3140e5b3acb4"
        }
      }
    },
    {
      "fullUrl": "urn:uuid:e3dceb5b-d0f8-4637-9c99-869554456117",
      "resource": {
        "resourceType": "Observation",
        "id": "e3dceb5b-d0f8-4637-9c99-869554456117",
        "meta": {
          "profile": [
            "http://hl7.eu/fhir/laboratory/StructureDefinition/Observation-resultslab-eu-lab"
          ]
        },
        "performer": [
          {
            "display": "The Central European Lab"
          }
        ],
        "category": [
          {
            "coding": [
              {
                "system": "http://terminology.hl7.org/CodeSystem/observation-category",
                "code": "laboratory"
              }
            ]
          }
        ],
        "code": {
          "coding": [
            {
              "code": "2085-9",
              "system": "http://loinc.org",
              "display": "Cholesterol in HDL [Mass/volume] in Serum or Plasma"
            }
          ],
          "text": "Cholesterol in HDL [Mass/volume] in Serum or Plasma"
        },
        "valueQuantity": {
          "system": "http://unitsofmeasure.org",
          "value": 48,
          "unit": "mg/dL",
          "code": "mg/dL"
        },
        "referenceRange": [
          {
            "low": {
              "value": 40,
              "code": "mg/dL",
              "system": "http://unitsofmeasure.org"
            }
          },
          {
            "high": {
              "value": 60,
              "code": "mg/dL",
              "system": "http://unitsofmeasure.org"
            }
          }
        ],
        "text": {
          "status": "generated",
          "div": "<div xmlns=\"http://www.w3.org/1999/xhtml\"><table class=\"hl7__eu__lab__report\"><tr><th>Test</th><th>21-Mar-2020</th><th>Reference&#xA0;Range</th><th>Unit</th></tr><tr><td>Cholesterol in HDL [Mass/volume] in Serum or Plasma</td><td>48.0</td><td>40 - 60</td><td></td><td>mg/dL</td></tr></table></div>"
        },
        "status": "final",
        "subject": {
          "reference": "urn:uuid:91bf3563-ff45-41be-8fe5-781ff1b5a72d",
          "display": "Pamela Dixon"
        },
        "effectiveDateTime": "2020-03-21T18:20:37Z",
        "specimen": {
          "reference": "urn:uuid:7dff9d33-2c2e-4ffd-a177-3140e5b3acb4"
        }
      }
    },
    {
      "fullUrl": "urn:uuid:0cf167fb-a5d9-4a32-afa6-e206dabdba88",
      "resource": {
        "resourceType": "Device",
        "id": "0cf167fb-a5d9-4a32-afa6-e206dabdba88",
        "deviceName": [
          {
            "name": "SYNDERAI Synthetic Generator",
            "type": "manufacturer-name"
          }
        ],
        "version": [
          {
            "value": "5.0"
          }
        ],
        "text": {
          "status": "generated",
          "div": "<div xmlns=\"http://www.w3.org/1999/xhtml\">SYNDERAI Synthetic Generator v5.0</div>"
        },
        "status": "active\"",
        "distinctIdentifier": "synderai-generator-50",
        "manufacturer": "SYNDERAI Project"
      }
    },
    {
      "fullUrl": "urn:uuid:86332610-df53-42c9-94c1-8a7b5487451c",
      "resource": {
        "resourceType": "Provenance",
        "id": "86332610-df53-42c9-94c1-8a7b5487451c",
        "target": [
          {
            "reference": "Patient/91bf3563-ff45-41be-8fe5-781ff1b5a72d"
          },
          {
            "reference": "Bundle/e76c26fe-828c-4cf3-990a-cbc2c691fbee"
          },
          {
            "reference": "Composition/d12a1860-9d0b-4361-a275-18789d145f42"
          },
          {
            "reference": "PractitionerRole/d4514f54-a619-4268-b95c-44c65b97f4ff"
          },
          {
            "reference": "Practitioner/eb9e4f6d-2ebb-43ea-a41a-06df75618a50"
          },
          {
            "reference": "PractitionerRole/8a345290-ebf5-4252-a8d4-f9245f11ba32"
          },
          {
            "reference": "Organization/7721bb7e-a7cf-48f7-9c17-d3342088dcd5"
          }
        ],
        "activity": {
          "text": "Synthetic Example Data Generation"
        },
        "policy": [
          "https://synderai.net/synderai-synthetic-data-policy"
        ],
        "agent": [
          {
            "type": {
              "text": "author"
            },
            "who": {
              "reference": "Device/0cf167fb-a5d9-4a32-afa6-e206dabdba88"
            }
          }
        ],
        "reason": [
          {
            "text": "Interoperability Testing and Training (non-clinical use)"
          }
        ],
        "text": {
          "status": "generated",
          "div": "<div xmlns=\"http://www.w3.org/1999/xhtml\">Provenance for SYNDERAI Synthetic Example Data Resource</div>"
        },
        "recorded": "2020-03-21T19:20:37Z"
      }
    },
    {
      "fullUrl": "urn:uuid:d4514f54-a619-4268-b95c-44c65b97f4ff",
      "resource": {
        "resourceType": "PractitionerRole",
        "id": "d4514f54-a619-4268-b95c-44c65b97f4ff",
        "meta": {
          "profile": [
            "http://hl7.eu/fhir/base/StructureDefinition/practitionerRole-eu"
          ]
        },
        "text": {
          "status": "generated",
          "div": "<div xmlns=\"http://www.w3.org/1999/xhtml\">Laboratory Role Id: d4514f54-a619-4268-b95c-44c65b97f4ff</div>"
        },
        "practitioner": {
          "reference": "urn:uuid:eb9e4f6d-2ebb-43ea-a41a-06df75618a50"
        }
      }
    },
    {
      "fullUrl": "urn:uuid:eb9e4f6d-2ebb-43ea-a41a-06df75618a50",
      "resource": {
        "resourceType": "Practitioner",
        "id": "eb9e4f6d-2ebb-43ea-a41a-06df75618a50",
        "meta": {
          "profile": [
            "http://hl7.eu/fhir/base/StructureDefinition/practitioner-eu"
          ]
        },
        "identifier": [
          {
            "assigner": {
              "display": "HL7 Europe"
            },
            "system": "urn:oid:2.16.840.1.113883.2.51.999",
            "value": "ed69b292-a480-4622-b36b-0826e0f35ee5"
          }
        ],
        "name": [
          {
            "prefix": [
              "dr"
            ],
            "given": [
              "Ex"
            ],
            "family": "Ample"
          }
        ],
        "address": [
          {
            "line": [
              "Laboratoire Central Européenne",
              "Boulevard du Jardin Botanique 32"
            ],
            "postalCode": "1000",
            "city": "Brussels",
            "country": "Belgium"
          }
        ],
        "text": {
          "status": "generated",
          "div": "<div xmlns=\"http://www.w3.org/1999/xhtml\">Laboratory: Laboratoire Central Européenne, 1000 Brussels, Belgium</div>"
        }
      }
    }
  ],
  "type": "document",
  "timestamp": "2020-03-21T19:20:37Z"
}
