{
  "resourceType": "Bundle",
  "id": "3a1532cf-cfe0-421d-9ac0-e99149cc6a06",
  "meta": {
    "profile": [
      "http://hl7.eu/fhir/laboratory/StructureDefinition/Bundle-eu-lab"
    ]
  },
  "identifier": {
    "assigner": {
      "display": "HL7 Europe"
    },
    "system": "urn:oid:2.16.840.1.113883.2.51.999",
    "value": "62405ae0-6751-4a0a-bed3-467f41e5ad44"
  },
  "entry": [
    {
      "fullUrl": "urn:uuid:5264003c-3de4-430d-84d0-d2242c34fd4b",
      "resource": {
        "resourceType": "Composition",
        "id": "5264003c-3de4-430d-84d0-d2242c34fd4b",
        "meta": {
          "profile": [
            "http://hl7.eu/fhir/laboratory/StructureDefinition/Composition-eu-lab"
          ]
        },
        "identifier": {
          "assigner": {
            "display": "HL7 Europe"
          },
          "system": "urn:oid:2.16.840.1.113883.2.51.999",
          "value": "fb63647a-97b5-4add-8afc-c54294da820e"
        },
        "author": [
          {
            "reference": "urn:uuid:beea20c4-54e3-4212-9d7c-5dca8b3ee6ae"
          }
        ],
        "category": [
          {
            "coding": [
              {
                "code": "26436-6",
                "system": "http://loinc.org",
                "display": "Laboratory studies (set)"
              }
            ]
          }
        ],
        "type": {
          "coding": [
            {
              "code": "11502-2",
              "system": "http://loinc.org",
              "display": "Laboratory report"
            }
          ],
          "text": "Laboratory Report"
        },
        "section": [
          {
            "code": {
              "coding": [
                {
                  "code": "26436-6",
                  "system": "http://loinc.org",
                  "display": "Laboratory studies (set)"
                }
              ],
              "text": "Laboratory studies"
            },
            "section": [
              {
                "code": {
                  "coding": [
                    {
                      "code": "$18719-5",
                      "system": "http://loinc.org",
                      "display": "Chemistry studies (set)"
                    }
                  ],
                  "text": "Chemistry"
                },
                "entry": [
                  {
                    "reference": "urn:uuid:5a916414-95b0-4231-bf59-27c3036b7fe6"
                  },
                  {
                    "reference": "urn:uuid:16f0ce34-0bfc-4a51-b560-4271520e168e"
                  },
                  {
                    "reference": "urn:uuid:23fbe625-fd07-4ab9-b71e-44411c8a68cd"
                  },
                  {
                    "reference": "urn:uuid:00ac4bd0-7199-47e6-9dec-6cb97f3f84b9"
                  },
                  {
                    "reference": "urn:uuid:b478295b-f32d-41e3-8944-05c3bb6db2cd"
                  },
                  {
                    "reference": "urn:uuid:22e30f05-20b8-48d8-98a5-1773073cc112"
                  },
                  {
                    "reference": "urn:uuid:05eed203-0892-4492-9662-10c4a407794a"
                  },
                  {
                    "reference": "urn:uuid:03a98d53-ce60-44fb-b0b1-ef324a70a420"
                  },
                  {
                    "reference": "urn:uuid:25bf13f9-6cd5-4556-add1-07676a6dcc1c"
                  }
                ],
                "text": {
                  "status": "generated",
                  "div": "<div xmlns=\"http://www.w3.org/1999/xhtml\"><h3>Chemistry</h3><table class=\"hl7__eu__lab__report\"><thead><tr><th>Test</th><th>21-SEP-2023</th><th>Reference&#xA0;Range</th><th>Unit</th></tr></thead><tbody><tr><td>Glucose [Mass/volume] in Serum or Plasma</td><td>89.0</td><td>70 - 140</td><td>mg/dL</td></tr><tr><td>Urea nitrogen [Mass/volume] in Serum or Plasma</td><td>14.1</td><td>7 - 50</td><td>mg/dL</td></tr><tr><td>Creatinine [Mass/volume] in Serum or Plasma</td><td><strong>2.0 H</strong></td><td>0.6 - 1.1</td><td>mg/dL</td></tr><tr><td>Calcium [Mass/volume] in Serum or Plasma</td><td>8.7</td><td>8.5 - 10.5</td><td>mg/dL</td></tr><tr><td>Sodium [Moles/volume] in Serum or Plasma</td><td>139.6</td><td>135 - 145</td><td>mmol/L</td></tr><tr><td>Potassium [Moles/volume] in Serum or Plasma</td><td>3.9</td><td>3.5 - 5.1</td><td>mmol/L</td></tr><tr><td>Chloride [Moles/volume] in Serum or Plasma</td><td>104.8</td><td>98 - 108</td><td>mmol/L</td></tr><tr><td>Carbon dioxide, total [Moles/volume] in Serum or Plasma</td><td>22.4</td><td>22 - 32</td><td>mmol/L</td></tr><tr><td>Ketones [Presence] in Urine by Test strip</td><td>Urine ketone test = +</td><td></td><td></td></tr></tbody></table></div>"
                },
                "title": "Chemistry"
              },
              {
                "code": {
                  "coding": [
                    {
                      "code": "$18729-4",
                      "system": "http://loinc.org",
                      "display": "Urinalysis studies (set)"
                    }
                  ],
                  "text": "Urinalysis"
                },
                "entry": [
                  {
                    "reference": "urn:uuid:036f4826-1dd8-4fec-b199-e7087bced68f"
                  },
                  {
                    "reference": "urn:uuid:7089eeb2-ccb5-4d38-bede-20bfe25dc77e"
                  },
                  {
                    "reference": "urn:uuid:453ff501-b512-46c0-b5ec-db7b53500872"
                  },
                  {
                    "reference": "urn:uuid:f2f43a60-eedc-40ae-b2ab-ad04d3da6a37"
                  },
                  {
                    "reference": "urn:uuid:2f31422a-5b16-4f1d-acb3-fa9bb2231667"
                  },
                  {
                    "reference": "urn:uuid:8b12d2ff-f194-4785-84c4-daa206f3cbb3"
                  },
                  {
                    "reference": "urn:uuid:e9a2cdda-d612-410c-8ff4-a7a0df391e94"
                  },
                  {
                    "reference": "urn:uuid:28c6d96a-ea2b-4df3-8140-d20dc93d5311"
                  },
                  {
                    "reference": "urn:uuid:8d7d34d2-7fd8-4654-83ab-def47dfd71ee"
                  },
                  {
                    "reference": "urn:uuid:d392ab54-c4ec-4225-b82f-af70a08d03ed"
                  },
                  {
                    "reference": "urn:uuid:355d2c40-573e-4d7c-b04b-c0b52712446e"
                  },
                  {
                    "reference": "urn:uuid:29f04796-3df5-4473-8f1c-c5143d0eab41"
                  }
                ],
                "text": {
                  "status": "generated",
                  "div": "<div xmlns=\"http://www.w3.org/1999/xhtml\"><h3>Urinalysis</h3><table class=\"hl7__eu__lab__report\"><thead><tr><th>Test</th><th>21-SEP-2023</th><th>Reference&#xA0;Range</th><th>Unit</th></tr></thead><tbody><tr><td>Glucose [Mass/volume] in Urine by Test strip</td><td><strong>2.2 H</strong></td><td>0.8 - 0</td><td>mg/dL</td></tr><tr><td>Glucose [Presence] in Urine by Test strip</td><td>++</td><td></td><td></td></tr><tr><td>Bilirubin.total [Mass/volume] in Urine by Test strip</td><td>0.7</td><td>0 - 1</td><td>mg/dL</td></tr><tr><td>Bilirubin.total [Presence] in Urine by Test strip</td><td>Finding of bilirubin in urine</td><td></td><td></td></tr><tr><td>Ketones [Mass/volume] in Urine by Test strip</td><td>8.9</td><td>0 - 20</td><td>mg/dL</td></tr><tr><td>Specific gravity of Urine by Test strip</td><td><strong>1.0 L</strong></td><td>1.01 - 1.03</td><td>{nominal}</td></tr><tr><td>pH of Urine by Test strip</td><td>6.4</td><td>4.6 - 7</td><td>pH</td></tr><tr><td>Protein [Mass/volume] in Urine by Test strip</td><td><strong>341.3 H</strong></td><td>0 - 15</td><td>mg/dL</td></tr><tr><td>Protein [Presence] in Urine by Test strip</td><td>Urine protein test = ++</td><td></td><td></td></tr><tr><td>Nitrite [Presence] in Urine by Test strip</td><td>Urine nitrite negative</td><td></td><td></td></tr><tr><td>Hemoglobin [Presence] in Urine by Test strip</td><td>Urine blood test = negative</td><td></td><td></td></tr><tr><td>Leukocyte esterase [Presence] in Urine by Test strip</td><td>Urine leukocyte test negative</td><td></td><td></td></tr></tbody></table></div>"
                },
                "title": "Urinalysis"
              },
              {
                "code": {
                  "coding": [
                    {
                      "code": "$LP7846-1",
                      "system": "http://loinc.org",
                      "display": "Specimen information"
                    }
                  ],
                  "text": "Specimen information"
                },
                "entry": [
                  {
                    "reference": "urn:uuid:fbb08c09-4299-4ae9-ab50-4a136caa0b11"
                  },
                  {
                    "reference": "urn:uuid:257b515a-5a14-4095-854b-7db93523e93b"
                  },
                  {
                    "reference": "urn:uuid:0cb8a296-c4d3-4083-a67d-c8eac05a1f9e"
                  },
                  {
                    "reference": "urn:uuid:b754d903-c14c-4edf-bc2e-cc368b6c4fd5"
                  }
                ],
                "text": {
                  "status": "generated",
                  "div": "<div xmlns=\"http://www.w3.org/1999/xhtml\"><h3>Specimen information</h3><table class=\"hl7__eu__lab__report\"><thead><tr><th>Test</th><th>21-SEP-2023</th><th>Specimen</th><th></th></tr></thead><tbody><tr><td>Appearance of Urine</td><td>Cloudy urine</td><td>Urine</td><td></td></tr><tr><td>Odor of Urine</td><td>Urine smell ammoniacal</td><td>Urine</td><td></td></tr><tr><td>Clarity of Urine</td><td>Translucent</td><td>Urine</td><td></td></tr><tr><td>Color of Urine</td><td>Brown color</td><td>Urine</td><td></td></tr></tbody></table></div>"
                },
                "title": "Specimen information"
              }
            ],
            "title": "Laboratory Report"
          },
          {
            "text": {
              "status": "generated",
              "div": "<div xmlns=\"http://www.w3.org/1999/xhtml\"><h3>Annotation</h3><table class=\"hl7__eu__lab__report\"><tr><th>Conclusion and Recommendations based on this report and previous findings known to us</th></tr><tr><td>The patient shows elevated serum creatinine, indicating impaired renal function. Urinalysis reveals significant proteinuria, glucosuria, low specific gravity, and abnormal urine appearance (cloudy, brown, ammoniacal), suggesting possible nephrotic syndrome or diabetic nephropathy. No evidence of urinary tract infection (negative nitrites, leukocytes, hemoglobin). Further nephrological evaluation and assessment for diabetes are recommended.</td></tr></table></div>"
            },
            "code": {
              "coding": [
                {
                  "system": "http://loinc.org",
                  "code": "48767-8",
                  "display": "Annotation comment"
                }
              ]
            },
            "title": "Annotation comment"
          }
        ],
        "status": "final",
        "subject": {
          "reference": "urn:uuid:646f9c6e-3f5e-4eba-bae6-376664d87d5c",
          "display": "Marthe Gallet"
        },
        "date": "2023-09-21T21:05:43Z",
        "title": "Laboratory Report",
        "confidentiality": "N"
      }
    },
    {
      "fullUrl": "urn:uuid:ed3a5b10-075a-4058-bc6e-5ecf9f21e55a",
      "resource": {
        "resourceType": "DiagnosticReport",
        "id": "ed3a5b10-075a-4058-bc6e-5ecf9f21e55a",
        "meta": {
          "profile": [
            "http://hl7.eu/fhir/laboratory/StructureDefinition/DiagnosticReport-eu-lab"
          ]
        },
        "identifier": [
          {
            "assigner": {
              "display": "HL7 Europe"
            },
            "system": "urn:oid:2.16.840.1.113883.2.51.999",
            "value": "ff33c1f3-d059-4129-973d-73385d9f41d0"
          }
        ],
        "extension": [
          {
            "url": "http://hl7.org/fhir/5.0/StructureDefinition/extension-DiagnosticReport.composition",
            "valueReference": {
              "reference": "urn:uuid:fb63647a-97b5-4add-8afc-c54294da820e"
            }
          }
        ],
        "category": [
          {
            "coding": [
              {
                "code": "26436-6",
                "system": "http://loinc.org",
                "display": "Laboratory studies (set)"
              }
            ]
          }
        ],
        "specimen": [
          {
            "reference": "urn:uuid:ab3b47f4-1e6a-4a1d-b474-5a3e74418a97"
          },
          {
            "reference": "urn:uuid:4943d166-91fe-4798-ac4f-bca7fd6249ad"
          }
        ],
        "result": [
          {
            "reference": "urn:uuid:5a916414-95b0-4231-bf59-27c3036b7fe6"
          },
          {
            "reference": "urn:uuid:16f0ce34-0bfc-4a51-b560-4271520e168e"
          },
          {
            "reference": "urn:uuid:23fbe625-fd07-4ab9-b71e-44411c8a68cd"
          },
          {
            "reference": "urn:uuid:00ac4bd0-7199-47e6-9dec-6cb97f3f84b9"
          },
          {
            "reference": "urn:uuid:b478295b-f32d-41e3-8944-05c3bb6db2cd"
          },
          {
            "reference": "urn:uuid:22e30f05-20b8-48d8-98a5-1773073cc112"
          },
          {
            "reference": "urn:uuid:05eed203-0892-4492-9662-10c4a407794a"
          },
          {
            "reference": "urn:uuid:03a98d53-ce60-44fb-b0b1-ef324a70a420"
          },
          {
            "reference": "urn:uuid:fbb08c09-4299-4ae9-ab50-4a136caa0b11"
          },
          {
            "reference": "urn:uuid:257b515a-5a14-4095-854b-7db93523e93b"
          },
          {
            "reference": "urn:uuid:0cb8a296-c4d3-4083-a67d-c8eac05a1f9e"
          },
          {
            "reference": "urn:uuid:b754d903-c14c-4edf-bc2e-cc368b6c4fd5"
          },
          {
            "reference": "urn:uuid:036f4826-1dd8-4fec-b199-e7087bced68f"
          },
          {
            "reference": "urn:uuid:7089eeb2-ccb5-4d38-bede-20bfe25dc77e"
          },
          {
            "reference": "urn:uuid:453ff501-b512-46c0-b5ec-db7b53500872"
          },
          {
            "reference": "urn:uuid:f2f43a60-eedc-40ae-b2ab-ad04d3da6a37"
          },
          {
            "reference": "urn:uuid:2f31422a-5b16-4f1d-acb3-fa9bb2231667"
          },
          {
            "reference": "urn:uuid:25bf13f9-6cd5-4556-add1-07676a6dcc1c"
          },
          {
            "reference": "urn:uuid:8b12d2ff-f194-4785-84c4-daa206f3cbb3"
          },
          {
            "reference": "urn:uuid:e9a2cdda-d612-410c-8ff4-a7a0df391e94"
          },
          {
            "reference": "urn:uuid:28c6d96a-ea2b-4df3-8140-d20dc93d5311"
          },
          {
            "reference": "urn:uuid:8d7d34d2-7fd8-4654-83ab-def47dfd71ee"
          },
          {
            "reference": "urn:uuid:d392ab54-c4ec-4225-b82f-af70a08d03ed"
          },
          {
            "reference": "urn:uuid:355d2c40-573e-4d7c-b04b-c0b52712446e"
          },
          {
            "reference": "urn:uuid:29f04796-3df5-4473-8f1c-c5143d0eab41"
          }
        ],
        "status": "registered",
        "code": {
          "coding": [
            {
              "code": "11502-2",
              "system": "http://loinc.org",
              "display": "Laboratory report"
            }
          ]
        },
        "subject": {
          "reference": "urn:uuid:646f9c6e-3f5e-4eba-bae6-376664d87d5c",
          "display": "Marthe Gallet"
        }
      }
    },
    {
      "fullUrl": "urn:uuid:646f9c6e-3f5e-4eba-bae6-376664d87d5c",
      "resource": {
        "resourceType": "Patient",
        "id": "646f9c6e-3f5e-4eba-bae6-376664d87d5c",
        "meta": {
          "security": [
            {
              "system": "http://terminology.hl7.org/CodeSystem/v3-ActReason",
              "code": "HTEST"
            },
            {
              "system": "http://terminology.hl7.org/CodeSystem/v3-ActReason",
              "code": "TRAIN"
            }
          ],
          "tag": [
            {
              "system": "https://synderai.net/fhir/CodeSystem/tags",
              "code": "synthetic",
              "display": "SYNDERAI Synthetic data"
            }
          ],
          "profile": [
            "http://hl7.eu/fhir/base/StructureDefinition/patient-eu-core"
          ]
        },
        "identifier": [
          {
            "type": {
              "coding": [
                {
                  "code": "PT",
                  "system": "http://terminology.hl7.org/CodeSystem/v2-0203"
                }
              ]
            },
            "system": "http://ec.europa.eu/identifier/eci",
            "value": "9444-947487-6"
          },
          {
            "type": {
              "coding": [
                {
                  "code": "MR",
                  "system": "http://terminology.hl7.org/CodeSystem/v2-0203"
                }
              ]
            },
            "system": "http://local.setting.eu/identifier",
            "value": "854228d5-a476-2d9c-a1d7-c3202375a617"
          }
        ],
        "name": [
          {
            "family": "Gallet"
          },
          {
            "given": [
              "Marthe"
            ]
          },
          {
            "text": "Marthe Gallet"
          }
        ],
        "address": [
          {
            "line": [
              "3, rue Emmanuel Goncalves"
            ],
            "use": "home",
            "type": "physical",
            "postalCode": "49490",
            "city": "Briand",
            "country": "France"
          }
        ],
        "telecom": [
          {
            "system": "phone",
            "value": "+33 1 70 99 82 74"
          }
        ],
        "extension": [
          {
            "url": "http://hl7.org/fhir/StructureDefinition/patient-nationality",
            "valueCodeableConcept": {
              "coding": [
                {
                  "code": "FR",
                  "system": "http://hl7.org/fhir/ValueSet/country"
                }
              ]
            }
          }
        ],
        "text": {
          "status": "generated",
          "div": "<div xmlns=\"http://www.w3.org/1999/xhtml\"><table class=\"hl7__ips\"><tr><td>Marthe Gallet</td><td>female</td><td>29-Oct-1950</td></tr></table></div>"
        },
        "gender": "female",
        "birthDate": "1950-10-29"
      }
    },
    {
      "fullUrl": "urn:uuid:64d881b6-7834-4980-a175-107ed39b9ea4",
      "resource": {
        "resourceType": "ServiceRequest",
        "id": "64d881b6-7834-4980-a175-107ed39b9ea4",
        "meta": {
          "profile": [
            "http://hl7.eu/fhir/laboratory/StructureDefinition/ServiceRequest-eu-lab"
          ]
        },
        "identifier": [
          {
            "system": "http://example.org",
            "value": "39ae3307-d6aa-495b-ac06-22169f081caa"
          }
        ],
        "specimen": [
          {
            "reference": "urn:uuid:ab3b47f4-1e6a-4a1d-b474-5a3e74418a97"
          },
          {
            "reference": "urn:uuid:4943d166-91fe-4798-ac4f-bca7fd6249ad"
          }
        ],
        "reasonCode": [
          {
            "coding": [
              {
                "code": "431856006",
                "system": "http://snomed.info/sct",
                "display": "Chronic kidney disease stage 2"
              }
            ]
          },
          {
            "coding": [
              {
                "code": "90781000119102",
                "system": "http://snomed.info/sct",
                "display": "Microalbuminuria due to type 2 diabetes mellitus"
              }
            ]
          },
          {
            "coding": [
              {
                "code": "127013003",
                "system": "http://snomed.info/sct",
                "display": "Disorder of kidney due to diabetes mellitus"
              }
            ]
          },
          {
            "coding": [
              {
                "code": "431855005",
                "system": "http://snomed.info/sct",
                "display": "Chronic kidney disease stage 1"
              }
            ]
          },
          {
            "coding": [
              {
                "code": "55822004",
                "system": "http://snomed.info/sct",
                "display": "Hyperlipidemia"
              }
            ]
          },
          {
            "coding": [
              {
                "code": "59621000",
                "system": "http://snomed.info/sct",
                "display": "Essential hypertension"
              }
            ]
          }
        ],
        "status": "active",
        "intent": "order",
        "code": {
          "coding": [
            {
              "code": "108252007",
              "system": "http://snomed.info/sct",
              "display": "Laboratory procedure"
            }
          ]
        },
        "subject": {
          "reference": "urn:uuid:646f9c6e-3f5e-4eba-bae6-376664d87d5c",
          "display": "Marthe Gallet"
        },
        "requester": {
          "reference": "urn:uuid:52e6e175-6439-4d87-92bc-871ca66525c7"
        }
      }
    },
    {
      "fullUrl": "urn:uuid:52e6e175-6439-4d87-92bc-871ca66525c7",
      "resource": {
        "resourceType": "PractitionerRole",
        "id": "52e6e175-6439-4d87-92bc-871ca66525c7",
        "meta": {
          "profile": [
            "http://hl7.eu/fhir/base/StructureDefinition/practitionerRole-eu"
          ]
        },
        "text": {
          "status": "generated",
          "div": "<div xmlns=\"http://www.w3.org/1999/xhtml\">Provider Role Id: 52e6e175-6439-4d87-92bc-871ca66525c7</div>"
        },
        "organization": {
          "reference": "urn:uuid:fb97ad5c-1890-47f7-945f-79812020906e"
        }
      }
    },
    {
      "fullUrl": "urn:uuid:fb97ad5c-1890-47f7-945f-79812020906e",
      "resource": {
        "resourceType": "Organization",
        "id": "fb97ad5c-1890-47f7-945f-79812020906e",
        "meta": {
          "profile": [
            "http://hl7.eu/fhir/base/StructureDefinition/organization-eu"
          ]
        },
        "identifier": [
          {
            "assigner": {
              "display": "HL7 Europe"
            },
            "system": "urn:oid:2.16.840.1.113883.2.51.999",
            "value": "25926b1d-4ee1-4831-bf1f-e7aa1ee3ee5a"
          }
        ],
        "address": [
          {
            "line": [
              "Rue Larrey nan"
            ],
            "city": "Angers",
            "postalCode": "49100",
            "country": "France"
          }
        ],
        "text": {
          "status": "generated",
          "div": "<div xmlns=\"http://www.w3.org/1999/xhtml\">Provider Organization: CHU d&#039;Angers</div>"
        },
        "name": "CHU d&#039;Angers"
      }
    },
    {
      "fullUrl": "urn:uuid:ab3b47f4-1e6a-4a1d-b474-5a3e74418a97",
      "resource": {
        "resourceType": "Specimen",
        "id": "ab3b47f4-1e6a-4a1d-b474-5a3e74418a97",
        "meta": {
          "profile": [
            "http://hl7.eu/fhir/laboratory/StructureDefinition/Specimen-eu-lab"
          ]
        },
        "collection": {
          "collectedDateTime": "2023-09-21"
        },
        "text": {
          "status": "generated",
          "div": "<div xmlns=\"http://www.w3.org/1999/xhtml\"><table class=\"hl7__eu__lab__report\"><tr><th>Specimen</th><th>Collection Date</th></tr><tr><td>Acellular blood (serum or plasma) specimen</td><td><span class=\"nb\">21-Sep-2023</span></td></tr></table></div>"
        },
        "type": {
          "coding": [
            {
              "code": "122592007",
              "system": "http://snomed.info/sct",
              "display": "Acellular blood (serum or plasma) specimen"
            }
          ]
        }
      }
    },
    {
      "fullUrl": "urn:uuid:4943d166-91fe-4798-ac4f-bca7fd6249ad",
      "resource": {
        "resourceType": "Specimen",
        "id": "4943d166-91fe-4798-ac4f-bca7fd6249ad",
        "meta": {
          "profile": [
            "http://hl7.eu/fhir/laboratory/StructureDefinition/Specimen-eu-lab"
          ]
        },
        "collection": {
          "collectedDateTime": "2023-09-21"
        },
        "text": {
          "status": "generated",
          "div": "<div xmlns=\"http://www.w3.org/1999/xhtml\"><table class=\"hl7__eu__lab__report\"><tr><th>Specimen</th><th>Collection Date</th></tr><tr><td>Urine specimen</td><td><span class=\"nb\">21-Sep-2023</span></td></tr></table></div>"
        },
        "type": {
          "coding": [
            {
              "code": "122575003",
              "system": "http://snomed.info/sct",
              "display": "Urine specimen"
            }
          ]
        }
      }
    },
    {
      "fullUrl": "urn:uuid:5a916414-95b0-4231-bf59-27c3036b7fe6",
      "resource": {
        "resourceType": "Observation",
        "id": "5a916414-95b0-4231-bf59-27c3036b7fe6",
        "meta": {
          "profile": [
            "http://hl7.eu/fhir/laboratory/StructureDefinition/Observation-resultslab-eu-lab"
          ]
        },
        "performer": [
          {
            "display": "The Central European Lab"
          }
        ],
        "category": [
          {
            "coding": [
              {
                "system": "http://terminology.hl7.org/CodeSystem/observation-category",
                "code": "laboratory"
              }
            ]
          }
        ],
        "code": {
          "coding": [
            {
              "code": "2345-7",
              "system": "http://loinc.org",
              "display": "Glucose [Mass/volume] in Serum or Plasma"
            }
          ],
          "text": "Glucose [Mass/volume] in Serum or Plasma"
        },
        "valueQuantity": {
          "system": "http://unitsofmeasure.org",
          "value": 89,
          "unit": "mg/dL",
          "code": "mg/dL"
        },
        "referenceRange": [
          {
            "low": {
              "value": 70,
              "code": "mg/dL",
              "system": "http://unitsofmeasure.org"
            }
          },
          {
            "high": {
              "value": 140,
              "code": "mg/dL",
              "system": "http://unitsofmeasure.org"
            }
          }
        ],
        "text": {
          "status": "generated",
          "div": "<div xmlns=\"http://www.w3.org/1999/xhtml\"><table class=\"hl7__eu__lab__report\"><tr><th>Test</th><th>21-Sep-2023</th><th>Reference&#xA0;Range</th><th>Unit</th></tr><tr><td>Glucose [Mass/volume] in Serum or Plasma</td><td>89.0</td><td>70 - 140</td><td></td><td>mg/dL</td></tr></table></div>"
        },
        "status": "final",
        "subject": {
          "reference": "urn:uuid:646f9c6e-3f5e-4eba-bae6-376664d87d5c",
          "display": "Marthe Gallet"
        },
        "effectiveDateTime": "2023-09-21T19:05:43Z",
        "specimen": {
          "reference": "urn:uuid:ab3b47f4-1e6a-4a1d-b474-5a3e74418a97"
        }
      }
    },
    {
      "fullUrl": "urn:uuid:16f0ce34-0bfc-4a51-b560-4271520e168e",
      "resource": {
        "resourceType": "Observation",
        "id": "16f0ce34-0bfc-4a51-b560-4271520e168e",
        "meta": {
          "profile": [
            "http://hl7.eu/fhir/laboratory/StructureDefinition/Observation-resultslab-eu-lab"
          ]
        },
        "performer": [
          {
            "display": "The Central European Lab"
          }
        ],
        "category": [
          {
            "coding": [
              {
                "system": "http://terminology.hl7.org/CodeSystem/observation-category",
                "code": "laboratory"
              }
            ]
          }
        ],
        "code": {
          "coding": [
            {
              "code": "3094-0",
              "system": "http://loinc.org",
              "display": "Urea nitrogen [Mass/volume] in Serum or Plasma"
            }
          ],
          "text": "Urea nitrogen [Mass/volume] in Serum or Plasma"
        },
        "valueQuantity": {
          "system": "http://unitsofmeasure.org",
          "value": 14.1,
          "unit": "mg/dL",
          "code": "mg/dL"
        },
        "referenceRange": [
          {
            "low": {
              "value": 7,
              "code": "mg/dL",
              "system": "http://unitsofmeasure.org"
            }
          },
          {
            "high": {
              "value": 50,
              "code": "mg/dL",
              "system": "http://unitsofmeasure.org"
            }
          }
        ],
        "text": {
          "status": "generated",
          "div": "<div xmlns=\"http://www.w3.org/1999/xhtml\"><table class=\"hl7__eu__lab__report\"><tr><th>Test</th><th>21-Sep-2023</th><th>Reference&#xA0;Range</th><th>Unit</th></tr><tr><td>Urea nitrogen [Mass/volume] in Serum or Plasma</td><td>14.1</td><td>7 - 50</td><td></td><td>mg/dL</td></tr></table></div>"
        },
        "status": "final",
        "subject": {
          "reference": "urn:uuid:646f9c6e-3f5e-4eba-bae6-376664d87d5c",
          "display": "Marthe Gallet"
        },
        "effectiveDateTime": "2023-09-21T19:05:43Z",
        "specimen": {
          "reference": "urn:uuid:ab3b47f4-1e6a-4a1d-b474-5a3e74418a97"
        }
      }
    },
    {
      "fullUrl": "urn:uuid:23fbe625-fd07-4ab9-b71e-44411c8a68cd",
      "resource": {
        "resourceType": "Observation",
        "id": "23fbe625-fd07-4ab9-b71e-44411c8a68cd",
        "meta": {
          "profile": [
            "http://hl7.eu/fhir/laboratory/StructureDefinition/Observation-resultslab-eu-lab"
          ]
        },
        "performer": [
          {
            "display": "The Central European Lab"
          }
        ],
        "category": [
          {
            "coding": [
              {
                "system": "http://terminology.hl7.org/CodeSystem/observation-category",
                "code": "laboratory"
              }
            ]
          }
        ],
        "code": {
          "coding": [
            {
              "code": "2160-0",
              "system": "http://loinc.org",
              "display": "Creatinine [Mass/volume] in Serum or Plasma"
            }
          ],
          "text": "Creatinine [Mass/volume] in Serum or Plasma"
        },
        "valueQuantity": {
          "system": "http://unitsofmeasure.org",
          "value": 2,
          "unit": "mg/dL",
          "code": "mg/dL"
        },
        "referenceRange": [
          {
            "low": {
              "value": 0.6,
              "code": "mg/dL",
              "system": "http://unitsofmeasure.org"
            }
          },
          {
            "high": {
              "value": 1.1,
              "code": "mg/dL",
              "system": "http://unitsofmeasure.org"
            }
          }
        ],
        "interpretation": [
          {
            "coding": [
              {
                "code": "H",
                "system": "http://terminology.hl7.org/CodeSystem/v3-ObservationInterpretation",
                "display": "High"
              }
            ]
          }
        ],
        "text": {
          "status": "generated",
          "div": "<div xmlns=\"http://www.w3.org/1999/xhtml\"><table class=\"hl7__eu__lab__report\"><tr><th>Test</th><th>21-Sep-2023</th><th>Reference&#xA0;Range</th><th>Unit</th></tr><tr><td>Creatinine [Mass/volume] in Serum or Plasma</td><td>2.0</td><td>0.6 - 1.1</td><td>H</td><td>mg/dL</td></tr></table></div>"
        },
        "status": "final",
        "subject": {
          "reference": "urn:uuid:646f9c6e-3f5e-4eba-bae6-376664d87d5c",
          "display": "Marthe Gallet"
        },
        "effectiveDateTime": "2023-09-21T19:05:43Z",
        "specimen": {
          "reference": "urn:uuid:ab3b47f4-1e6a-4a1d-b474-5a3e74418a97"
        }
      }
    },
    {
      "fullUrl": "urn:uuid:00ac4bd0-7199-47e6-9dec-6cb97f3f84b9",
      "resource": {
        "resourceType": "Observation",
        "id": "00ac4bd0-7199-47e6-9dec-6cb97f3f84b9",
        "meta": {
          "profile": [
            "http://hl7.eu/fhir/laboratory/StructureDefinition/Observation-resultslab-eu-lab"
          ]
        },
        "performer": [
          {
            "display": "The Central European Lab"
          }
        ],
        "category": [
          {
            "coding": [
              {
                "system": "http://terminology.hl7.org/CodeSystem/observation-category",
                "code": "laboratory"
              }
            ]
          }
        ],
        "code": {
          "coding": [
            {
              "code": "17861-6",
              "system": "http://loinc.org",
              "display": "Calcium [Mass/volume] in Serum or Plasma"
            }
          ],
          "text": "Calcium [Mass/volume] in Serum or Plasma"
        },
        "valueQuantity": {
          "system": "http://unitsofmeasure.org",
          "value": 8.7,
          "unit": "mg/dL",
          "code": "mg/dL"
        },
        "referenceRange": [
          {
            "low": {
              "value": 8.5,
              "code": "mg/dL",
              "system": "http://unitsofmeasure.org"
            }
          },
          {
            "high": {
              "value": 10.5,
              "code": "mg/dL",
              "system": "http://unitsofmeasure.org"
            }
          }
        ],
        "text": {
          "status": "generated",
          "div": "<div xmlns=\"http://www.w3.org/1999/xhtml\"><table class=\"hl7__eu__lab__report\"><tr><th>Test</th><th>21-Sep-2023</th><th>Reference&#xA0;Range</th><th>Unit</th></tr><tr><td>Calcium [Mass/volume] in Serum or Plasma</td><td>8.7</td><td>8.5 - 10.5</td><td></td><td>mg/dL</td></tr></table></div>"
        },
        "status": "final",
        "subject": {
          "reference": "urn:uuid:646f9c6e-3f5e-4eba-bae6-376664d87d5c",
          "display": "Marthe Gallet"
        },
        "effectiveDateTime": "2023-09-21T19:05:43Z",
        "specimen": {
          "reference": "urn:uuid:ab3b47f4-1e6a-4a1d-b474-5a3e74418a97"
        }
      }
    },
    {
      "fullUrl": "urn:uuid:b478295b-f32d-41e3-8944-05c3bb6db2cd",
      "resource": {
        "resourceType": "Observation",
        "id": "b478295b-f32d-41e3-8944-05c3bb6db2cd",
        "meta": {
          "profile": [
            "http://hl7.eu/fhir/laboratory/StructureDefinition/Observation-resultslab-eu-lab"
          ]
        },
        "performer": [
          {
            "display": "The Central European Lab"
          }
        ],
        "category": [
          {
            "coding": [
              {
                "system": "http://terminology.hl7.org/CodeSystem/observation-category",
                "code": "laboratory"
              }
            ]
          }
        ],
        "code": {
          "coding": [
            {
              "code": "2951-2",
              "system": "http://loinc.org",
              "display": "Sodium [Moles/volume] in Serum or Plasma"
            }
          ],
          "text": "Sodium [Moles/volume] in Serum or Plasma"
        },
        "valueQuantity": {
          "system": "http://unitsofmeasure.org",
          "value": 139.6,
          "unit": "mmol/L",
          "code": "mmol/L"
        },
        "referenceRange": [
          {
            "low": {
              "value": 135,
              "code": "mmol/L",
              "system": "http://unitsofmeasure.org"
            }
          },
          {
            "high": {
              "value": 145,
              "code": "mmol/L",
              "system": "http://unitsofmeasure.org"
            }
          }
        ],
        "text": {
          "status": "generated",
          "div": "<div xmlns=\"http://www.w3.org/1999/xhtml\"><table class=\"hl7__eu__lab__report\"><tr><th>Test</th><th>21-Sep-2023</th><th>Reference&#xA0;Range</th><th>Unit</th></tr><tr><td>Sodium [Moles/volume] in Serum or Plasma</td><td>139.6</td><td>135 - 145</td><td></td><td>mmol/L</td></tr></table></div>"
        },
        "status": "final",
        "subject": {
          "reference": "urn:uuid:646f9c6e-3f5e-4eba-bae6-376664d87d5c",
          "display": "Marthe Gallet"
        },
        "effectiveDateTime": "2023-09-21T19:05:43Z",
        "specimen": {
          "reference": "urn:uuid:ab3b47f4-1e6a-4a1d-b474-5a3e74418a97"
        }
      }
    },
    {
      "fullUrl": "urn:uuid:22e30f05-20b8-48d8-98a5-1773073cc112",
      "resource": {
        "resourceType": "Observation",
        "id": "22e30f05-20b8-48d8-98a5-1773073cc112",
        "meta": {
          "profile": [
            "http://hl7.eu/fhir/laboratory/StructureDefinition/Observation-resultslab-eu-lab"
          ]
        },
        "performer": [
          {
            "display": "The Central European Lab"
          }
        ],
        "category": [
          {
            "coding": [
              {
                "system": "http://terminology.hl7.org/CodeSystem/observation-category",
                "code": "laboratory"
              }
            ]
          }
        ],
        "code": {
          "coding": [
            {
              "code": "2823-3",
              "system": "http://loinc.org",
              "display": "Potassium [Moles/volume] in Serum or Plasma"
            }
          ],
          "text": "Potassium [Moles/volume] in Serum or Plasma"
        },
        "valueQuantity": {
          "system": "http://unitsofmeasure.org",
          "value": 3.9,
          "unit": "mmol/L",
          "code": "mmol/L"
        },
        "referenceRange": [
          {
            "low": {
              "value": 3.5,
              "code": "mmol/L",
              "system": "http://unitsofmeasure.org"
            }
          },
          {
            "high": {
              "value": 5.1,
              "code": "mmol/L",
              "system": "http://unitsofmeasure.org"
            }
          }
        ],
        "text": {
          "status": "generated",
          "div": "<div xmlns=\"http://www.w3.org/1999/xhtml\"><table class=\"hl7__eu__lab__report\"><tr><th>Test</th><th>21-Sep-2023</th><th>Reference&#xA0;Range</th><th>Unit</th></tr><tr><td>Potassium [Moles/volume] in Serum or Plasma</td><td>3.9</td><td>3.5 - 5.1</td><td></td><td>mmol/L</td></tr></table></div>"
        },
        "status": "final",
        "subject": {
          "reference": "urn:uuid:646f9c6e-3f5e-4eba-bae6-376664d87d5c",
          "display": "Marthe Gallet"
        },
        "effectiveDateTime": "2023-09-21T19:05:43Z",
        "specimen": {
          "reference": "urn:uuid:ab3b47f4-1e6a-4a1d-b474-5a3e74418a97"
        }
      }
    },
    {
      "fullUrl": "urn:uuid:05eed203-0892-4492-9662-10c4a407794a",
      "resource": {
        "resourceType": "Observation",
        "id": "05eed203-0892-4492-9662-10c4a407794a",
        "meta": {
          "profile": [
            "http://hl7.eu/fhir/laboratory/StructureDefinition/Observation-resultslab-eu-lab"
          ]
        },
        "performer": [
          {
            "display": "The Central European Lab"
          }
        ],
        "category": [
          {
            "coding": [
              {
                "system": "http://terminology.hl7.org/CodeSystem/observation-category",
                "code": "laboratory"
              }
            ]
          }
        ],
        "code": {
          "coding": [
            {
              "code": "2075-0",
              "system": "http://loinc.org",
              "display": "Chloride [Moles/volume] in Serum or Plasma"
            }
          ],
          "text": "Chloride [Moles/volume] in Serum or Plasma"
        },
        "valueQuantity": {
          "system": "http://unitsofmeasure.org",
          "value": 104.8,
          "unit": "mmol/L",
          "code": "mmol/L"
        },
        "referenceRange": [
          {
            "low": {
              "value": 98,
              "code": "mmol/L",
              "system": "http://unitsofmeasure.org"
            }
          },
          {
            "high": {
              "value": 108,
              "code": "mmol/L",
              "system": "http://unitsofmeasure.org"
            }
          }
        ],
        "text": {
          "status": "generated",
          "div": "<div xmlns=\"http://www.w3.org/1999/xhtml\"><table class=\"hl7__eu__lab__report\"><tr><th>Test</th><th>21-Sep-2023</th><th>Reference&#xA0;Range</th><th>Unit</th></tr><tr><td>Chloride [Moles/volume] in Serum or Plasma</td><td>104.8</td><td>98 - 108</td><td></td><td>mmol/L</td></tr></table></div>"
        },
        "status": "final",
        "subject": {
          "reference": "urn:uuid:646f9c6e-3f5e-4eba-bae6-376664d87d5c",
          "display": "Marthe Gallet"
        },
        "effectiveDateTime": "2023-09-21T19:05:43Z",
        "specimen": {
          "reference": "urn:uuid:ab3b47f4-1e6a-4a1d-b474-5a3e74418a97"
        }
      }
    },
    {
      "fullUrl": "urn:uuid:03a98d53-ce60-44fb-b0b1-ef324a70a420",
      "resource": {
        "resourceType": "Observation",
        "id": "03a98d53-ce60-44fb-b0b1-ef324a70a420",
        "meta": {
          "profile": [
            "http://hl7.eu/fhir/laboratory/StructureDefinition/Observation-resultslab-eu-lab"
          ]
        },
        "performer": [
          {
            "display": "The Central European Lab"
          }
        ],
        "category": [
          {
            "coding": [
              {
                "system": "http://terminology.hl7.org/CodeSystem/observation-category",
                "code": "laboratory"
              }
            ]
          }
        ],
        "code": {
          "coding": [
            {
              "code": "2028-9",
              "system": "http://loinc.org",
              "display": "Carbon dioxide, total [Moles/volume] in Serum or Plasma"
            }
          ],
          "text": "Carbon dioxide, total [Moles/volume] in Serum or Plasma"
        },
        "valueQuantity": {
          "system": "http://unitsofmeasure.org",
          "value": 22.4,
          "unit": "mmol/L",
          "code": "mmol/L"
        },
        "referenceRange": [
          {
            "low": {
              "value": 22,
              "code": "mmol/L",
              "system": "http://unitsofmeasure.org"
            }
          },
          {
            "high": {
              "value": 32,
              "code": "mmol/L",
              "system": "http://unitsofmeasure.org"
            }
          }
        ],
        "text": {
          "status": "generated",
          "div": "<div xmlns=\"http://www.w3.org/1999/xhtml\"><table class=\"hl7__eu__lab__report\"><tr><th>Test</th><th>21-Sep-2023</th><th>Reference&#xA0;Range</th><th>Unit</th></tr><tr><td>Carbon dioxide, total [Moles/volume] in Serum or Plasma</td><td>22.4</td><td>22 - 32</td><td></td><td>mmol/L</td></tr></table></div>"
        },
        "status": "final",
        "subject": {
          "reference": "urn:uuid:646f9c6e-3f5e-4eba-bae6-376664d87d5c",
          "display": "Marthe Gallet"
        },
        "effectiveDateTime": "2023-09-21T19:05:43Z",
        "specimen": {
          "reference": "urn:uuid:ab3b47f4-1e6a-4a1d-b474-5a3e74418a97"
        }
      }
    },
    {
      "fullUrl": "urn:uuid:fbb08c09-4299-4ae9-ab50-4a136caa0b11",
      "resource": {
        "resourceType": "Observation",
        "id": "fbb08c09-4299-4ae9-ab50-4a136caa0b11",
        "meta": {
          "profile": [
            "http://hl7.eu/fhir/laboratory/StructureDefinition/Observation-resultslab-eu-lab"
          ]
        },
        "performer": [
          {
            "display": "The Central European Lab"
          }
        ],
        "category": [
          {
            "coding": [
              {
                "system": "http://terminology.hl7.org/CodeSystem/observation-category",
                "code": "laboratory"
              }
            ]
          }
        ],
        "code": {
          "coding": [
            {
              "code": "5767-9",
              "system": "http://loinc.org",
              "display": "Appearance of Urine"
            }
          ],
          "text": "Appearance of Urine"
        },
        "text": {
          "status": "generated",
          "div": "<div xmlns=\"http://www.w3.org/1999/xhtml\"><table class=\"hl7__eu__lab__report\"><tr><th>Test</th><th>21-Sep-2023</th><th>Reference&#xA0;Range</th><th>Unit</th></tr><tr><td>Appearance of Urine</td></tr></table></div>"
        },
        "status": "final",
        "subject": {
          "reference": "urn:uuid:646f9c6e-3f5e-4eba-bae6-376664d87d5c",
          "display": "Marthe Gallet"
        },
        "effectiveDateTime": "2023-09-21T19:05:43Z",
        "specimen": {
          "reference": "urn:uuid:4943d166-91fe-4798-ac4f-bca7fd6249ad"
        }
      }
    },
    {
      "fullUrl": "urn:uuid:257b515a-5a14-4095-854b-7db93523e93b",
      "resource": {
        "resourceType": "Observation",
        "id": "257b515a-5a14-4095-854b-7db93523e93b",
        "meta": {
          "profile": [
            "http://hl7.eu/fhir/laboratory/StructureDefinition/Observation-resultslab-eu-lab"
          ]
        },
        "performer": [
          {
            "display": "The Central European Lab"
          }
        ],
        "category": [
          {
            "coding": [
              {
                "system": "http://terminology.hl7.org/CodeSystem/observation-category",
                "code": "laboratory"
              }
            ]
          }
        ],
        "code": {
          "coding": [
            {
              "code": "34533-0",
              "system": "http://loinc.org",
              "display": "Odor of Urine"
            }
          ],
          "text": "Odor of Urine"
        },
        "text": {
          "status": "generated",
          "div": "<div xmlns=\"http://www.w3.org/1999/xhtml\"><table class=\"hl7__eu__lab__report\"><tr><th>Test</th><th>21-Sep-2023</th><th>Reference&#xA0;Range</th><th>Unit</th></tr><tr><td>Odor of Urine</td></tr></table></div>"
        },
        "status": "final",
        "subject": {
          "reference": "urn:uuid:646f9c6e-3f5e-4eba-bae6-376664d87d5c",
          "display": "Marthe Gallet"
        },
        "effectiveDateTime": "2023-09-21T19:05:43Z",
        "specimen": {
          "reference": "urn:uuid:4943d166-91fe-4798-ac4f-bca7fd6249ad"
        }
      }
    },
    {
      "fullUrl": "urn:uuid:0cb8a296-c4d3-4083-a67d-c8eac05a1f9e",
      "resource": {
        "resourceType": "Observation",
        "id": "0cb8a296-c4d3-4083-a67d-c8eac05a1f9e",
        "meta": {
          "profile": [
            "http://hl7.eu/fhir/laboratory/StructureDefinition/Observation-resultslab-eu-lab"
          ]
        },
        "performer": [
          {
            "display": "The Central European Lab"
          }
        ],
        "category": [
          {
            "coding": [
              {
                "system": "http://terminology.hl7.org/CodeSystem/observation-category",
                "code": "laboratory"
              }
            ]
          }
        ],
        "code": {
          "coding": [
            {
              "code": "32167-9",
              "system": "http://loinc.org",
              "display": "Clarity of Urine"
            }
          ],
          "text": "Clarity of Urine"
        },
        "text": {
          "status": "generated",
          "div": "<div xmlns=\"http://www.w3.org/1999/xhtml\"><table class=\"hl7__eu__lab__report\"><tr><th>Test</th><th>21-Sep-2023</th><th>Reference&#xA0;Range</th><th>Unit</th></tr><tr><td>Clarity of Urine</td></tr></table></div>"
        },
        "status": "final",
        "subject": {
          "reference": "urn:uuid:646f9c6e-3f5e-4eba-bae6-376664d87d5c",
          "display": "Marthe Gallet"
        },
        "effectiveDateTime": "2023-09-21T19:05:43Z",
        "specimen": {
          "reference": "urn:uuid:4943d166-91fe-4798-ac4f-bca7fd6249ad"
        }
      }
    },
    {
      "fullUrl": "urn:uuid:b754d903-c14c-4edf-bc2e-cc368b6c4fd5",
      "resource": {
        "resourceType": "Observation",
        "id": "b754d903-c14c-4edf-bc2e-cc368b6c4fd5",
        "meta": {
          "profile": [
            "http://hl7.eu/fhir/laboratory/StructureDefinition/Observation-resultslab-eu-lab"
          ]
        },
        "performer": [
          {
            "display": "The Central European Lab"
          }
        ],
        "category": [
          {
            "coding": [
              {
                "system": "http://terminology.hl7.org/CodeSystem/observation-category",
                "code": "laboratory"
              }
            ]
          }
        ],
        "code": {
          "coding": [
            {
              "code": "5778-6",
              "system": "http://loinc.org",
              "display": "Color of Urine"
            }
          ],
          "text": "Color of Urine"
        },
        "text": {
          "status": "generated",
          "div": "<div xmlns=\"http://www.w3.org/1999/xhtml\"><table class=\"hl7__eu__lab__report\"><tr><th>Test</th><th>21-Sep-2023</th><th>Reference&#xA0;Range</th><th>Unit</th></tr><tr><td>Color of Urine</td></tr></table></div>"
        },
        "status": "final",
        "subject": {
          "reference": "urn:uuid:646f9c6e-3f5e-4eba-bae6-376664d87d5c",
          "display": "Marthe Gallet"
        },
        "effectiveDateTime": "2023-09-21T19:05:43Z",
        "specimen": {
          "reference": "urn:uuid:4943d166-91fe-4798-ac4f-bca7fd6249ad"
        }
      }
    },
    {
      "fullUrl": "urn:uuid:036f4826-1dd8-4fec-b199-e7087bced68f",
      "resource": {
        "resourceType": "Observation",
        "id": "036f4826-1dd8-4fec-b199-e7087bced68f",
        "meta": {
          "profile": [
            "http://hl7.eu/fhir/laboratory/StructureDefinition/Observation-resultslab-eu-lab"
          ]
        },
        "performer": [
          {
            "display": "The Central European Lab"
          }
        ],
        "category": [
          {
            "coding": [
              {
                "system": "http://terminology.hl7.org/CodeSystem/observation-category",
                "code": "laboratory"
              }
            ]
          }
        ],
        "code": {
          "coding": [
            {
              "code": "5792-7",
              "system": "http://loinc.org",
              "display": "Glucose [Mass/volume] in Urine by Test strip"
            }
          ],
          "text": "Glucose [Mass/volume] in Urine by Test strip"
        },
        "valueQuantity": {
          "system": "http://unitsofmeasure.org",
          "value": 2.2,
          "unit": "mg/dL",
          "code": "mg/dL"
        },
        "referenceRange": [
          {
            "low": {
              "value": 0.8,
              "code": "mg/dL",
              "system": "http://unitsofmeasure.org"
            }
          },
          {
            "high": {
              "value": 0,
              "code": "mg/dL",
              "system": "http://unitsofmeasure.org"
            }
          }
        ],
        "interpretation": [
          {
            "coding": [
              {
                "code": "H",
                "system": "http://terminology.hl7.org/CodeSystem/v3-ObservationInterpretation",
                "display": "High"
              }
            ]
          }
        ],
        "text": {
          "status": "generated",
          "div": "<div xmlns=\"http://www.w3.org/1999/xhtml\"><table class=\"hl7__eu__lab__report\"><tr><th>Test</th><th>21-Sep-2023</th><th>Reference&#xA0;Range</th><th>Unit</th></tr><tr><td>Glucose [Mass/volume] in Urine by Test strip</td><td>2.2</td><td>0.8 - 0</td><td>H</td><td>mg/dL</td></tr></table></div>"
        },
        "status": "final",
        "subject": {
          "reference": "urn:uuid:646f9c6e-3f5e-4eba-bae6-376664d87d5c",
          "display": "Marthe Gallet"
        },
        "effectiveDateTime": "2023-09-21T19:05:43Z",
        "specimen": {
          "reference": "urn:uuid:4943d166-91fe-4798-ac4f-bca7fd6249ad"
        }
      }
    },
    {
      "fullUrl": "urn:uuid:7089eeb2-ccb5-4d38-bede-20bfe25dc77e",
      "resource": {
        "resourceType": "Observation",
        "id": "7089eeb2-ccb5-4d38-bede-20bfe25dc77e",
        "meta": {
          "profile": [
            "http://hl7.eu/fhir/laboratory/StructureDefinition/Observation-resultslab-eu-lab"
          ]
        },
        "performer": [
          {
            "display": "The Central European Lab"
          }
        ],
        "category": [
          {
            "coding": [
              {
                "system": "http://terminology.hl7.org/CodeSystem/observation-category",
                "code": "laboratory"
              }
            ]
          }
        ],
        "code": {
          "coding": [
            {
              "code": "25428-4",
              "system": "http://loinc.org",
              "display": "Glucose [Presence] in Urine by Test strip"
            }
          ],
          "text": "Glucose [Presence] in Urine by Test strip"
        },
        "text": {
          "status": "generated",
          "div": "<div xmlns=\"http://www.w3.org/1999/xhtml\"><table class=\"hl7__eu__lab__report\"><tr><th>Test</th><th>21-Sep-2023</th><th>Reference&#xA0;Range</th><th>Unit</th></tr><tr><td>Glucose [Presence] in Urine by Test strip</td></tr></table></div>"
        },
        "status": "final",
        "subject": {
          "reference": "urn:uuid:646f9c6e-3f5e-4eba-bae6-376664d87d5c",
          "display": "Marthe Gallet"
        },
        "effectiveDateTime": "2023-09-21T19:05:43Z",
        "specimen": {
          "reference": "urn:uuid:4943d166-91fe-4798-ac4f-bca7fd6249ad"
        }
      }
    },
    {
      "fullUrl": "urn:uuid:453ff501-b512-46c0-b5ec-db7b53500872",
      "resource": {
        "resourceType": "Observation",
        "id": "453ff501-b512-46c0-b5ec-db7b53500872",
        "meta": {
          "profile": [
            "http://hl7.eu/fhir/laboratory/StructureDefinition/Observation-resultslab-eu-lab"
          ]
        },
        "performer": [
          {
            "display": "The Central European Lab"
          }
        ],
        "category": [
          {
            "coding": [
              {
                "system": "http://terminology.hl7.org/CodeSystem/observation-category",
                "code": "laboratory"
              }
            ]
          }
        ],
        "code": {
          "coding": [
            {
              "code": "20505-4",
              "system": "http://loinc.org",
              "display": "Bilirubin.total [Mass/volume] in Urine by Test strip"
            }
          ],
          "text": "Bilirubin.total [Mass/volume] in Urine by Test strip"
        },
        "valueQuantity": {
          "system": "http://unitsofmeasure.org",
          "value": 0.7,
          "unit": "mg/dL",
          "code": "mg/dL"
        },
        "referenceRange": [
          {
            "low": {
              "value": 0,
              "code": "mg/dL",
              "system": "http://unitsofmeasure.org"
            }
          },
          {
            "high": {
              "value": 1,
              "code": "mg/dL",
              "system": "http://unitsofmeasure.org"
            }
          }
        ],
        "text": {
          "status": "generated",
          "div": "<div xmlns=\"http://www.w3.org/1999/xhtml\"><table class=\"hl7__eu__lab__report\"><tr><th>Test</th><th>21-Sep-2023</th><th>Reference&#xA0;Range</th><th>Unit</th></tr><tr><td>Bilirubin.total [Mass/volume] in Urine by Test strip</td><td>0.7</td><td>0 - 1</td><td></td><td>mg/dL</td></tr></table></div>"
        },
        "status": "final",
        "subject": {
          "reference": "urn:uuid:646f9c6e-3f5e-4eba-bae6-376664d87d5c",
          "display": "Marthe Gallet"
        },
        "effectiveDateTime": "2023-09-21T19:05:43Z",
        "specimen": {
          "reference": "urn:uuid:4943d166-91fe-4798-ac4f-bca7fd6249ad"
        }
      }
    },
    {
      "fullUrl": "urn:uuid:f2f43a60-eedc-40ae-b2ab-ad04d3da6a37",
      "resource": {
        "resourceType": "Observation",
        "id": "f2f43a60-eedc-40ae-b2ab-ad04d3da6a37",
        "meta": {
          "profile": [
            "http://hl7.eu/fhir/laboratory/StructureDefinition/Observation-resultslab-eu-lab"
          ]
        },
        "performer": [
          {
            "display": "The Central European Lab"
          }
        ],
        "category": [
          {
            "coding": [
              {
                "system": "http://terminology.hl7.org/CodeSystem/observation-category",
                "code": "laboratory"
              }
            ]
          }
        ],
        "code": {
          "coding": [
            {
              "code": "5770-3",
              "system": "http://loinc.org",
              "display": "Bilirubin.total [Presence] in Urine by Test strip"
            }
          ],
          "text": "Bilirubin.total [Presence] in Urine by Test strip"
        },
        "text": {
          "status": "generated",
          "div": "<div xmlns=\"http://www.w3.org/1999/xhtml\"><table class=\"hl7__eu__lab__report\"><tr><th>Test</th><th>21-Sep-2023</th><th>Reference&#xA0;Range</th><th>Unit</th></tr><tr><td>Bilirubin.total [Presence] in Urine by Test strip</td></tr></table></div>"
        },
        "status": "final",
        "subject": {
          "reference": "urn:uuid:646f9c6e-3f5e-4eba-bae6-376664d87d5c",
          "display": "Marthe Gallet"
        },
        "effectiveDateTime": "2023-09-21T19:05:43Z",
        "specimen": {
          "reference": "urn:uuid:4943d166-91fe-4798-ac4f-bca7fd6249ad"
        }
      }
    },
    {
      "fullUrl": "urn:uuid:2f31422a-5b16-4f1d-acb3-fa9bb2231667",
      "resource": {
        "resourceType": "Observation",
        "id": "2f31422a-5b16-4f1d-acb3-fa9bb2231667",
        "meta": {
          "profile": [
            "http://hl7.eu/fhir/laboratory/StructureDefinition/Observation-resultslab-eu-lab"
          ]
        },
        "performer": [
          {
            "display": "The Central European Lab"
          }
        ],
        "category": [
          {
            "coding": [
              {
                "system": "http://terminology.hl7.org/CodeSystem/observation-category",
                "code": "laboratory"
              }
            ]
          }
        ],
        "code": {
          "coding": [
            {
              "code": "5797-6",
              "system": "http://loinc.org",
              "display": "Ketones [Mass/volume] in Urine by Test strip"
            }
          ],
          "text": "Ketones [Mass/volume] in Urine by Test strip"
        },
        "valueQuantity": {
          "system": "http://unitsofmeasure.org",
          "value": 8.9,
          "unit": "mg/dL",
          "code": "mg/dL"
        },
        "referenceRange": [
          {
            "low": {
              "value": 0,
              "code": "mg/dL",
              "system": "http://unitsofmeasure.org"
            }
          },
          {
            "high": {
              "value": 20,
              "code": "mg/dL",
              "system": "http://unitsofmeasure.org"
            }
          }
        ],
        "text": {
          "status": "generated",
          "div": "<div xmlns=\"http://www.w3.org/1999/xhtml\"><table class=\"hl7__eu__lab__report\"><tr><th>Test</th><th>21-Sep-2023</th><th>Reference&#xA0;Range</th><th>Unit</th></tr><tr><td>Ketones [Mass/volume] in Urine by Test strip</td><td>8.9</td><td>0 - 20</td><td></td><td>mg/dL</td></tr></table></div>"
        },
        "status": "final",
        "subject": {
          "reference": "urn:uuid:646f9c6e-3f5e-4eba-bae6-376664d87d5c",
          "display": "Marthe Gallet"
        },
        "effectiveDateTime": "2023-09-21T19:05:43Z",
        "specimen": {
          "reference": "urn:uuid:4943d166-91fe-4798-ac4f-bca7fd6249ad"
        }
      }
    },
    {
      "fullUrl": "urn:uuid:25bf13f9-6cd5-4556-add1-07676a6dcc1c",
      "resource": {
        "resourceType": "Observation",
        "id": "25bf13f9-6cd5-4556-add1-07676a6dcc1c",
        "meta": {
          "profile": [
            "http://hl7.eu/fhir/laboratory/StructureDefinition/Observation-resultslab-eu-lab"
          ]
        },
        "performer": [
          {
            "display": "The Central European Lab"
          }
        ],
        "category": [
          {
            "coding": [
              {
                "system": "http://terminology.hl7.org/CodeSystem/observation-category",
                "code": "laboratory"
              }
            ]
          }
        ],
        "code": {
          "coding": [
            {
              "code": "2514-8",
              "system": "http://loinc.org",
              "display": "Ketones [Presence] in Urine by Test strip"
            }
          ],
          "text": "Ketones [Presence] in Urine by Test strip"
        },
        "text": {
          "status": "generated",
          "div": "<div xmlns=\"http://www.w3.org/1999/xhtml\"><table class=\"hl7__eu__lab__report\"><tr><th>Test</th><th>21-Sep-2023</th><th>Reference&#xA0;Range</th><th>Unit</th></tr><tr><td>Ketones [Presence] in Urine by Test strip</td></tr></table></div>"
        },
        "status": "final",
        "subject": {
          "reference": "urn:uuid:646f9c6e-3f5e-4eba-bae6-376664d87d5c",
          "display": "Marthe Gallet"
        },
        "effectiveDateTime": "2023-09-21T19:05:43Z",
        "specimen": {
          "reference": "urn:uuid:4943d166-91fe-4798-ac4f-bca7fd6249ad"
        }
      }
    },
    {
      "fullUrl": "urn:uuid:8b12d2ff-f194-4785-84c4-daa206f3cbb3",
      "resource": {
        "resourceType": "Observation",
        "id": "8b12d2ff-f194-4785-84c4-daa206f3cbb3",
        "meta": {
          "profile": [
            "http://hl7.eu/fhir/laboratory/StructureDefinition/Observation-resultslab-eu-lab"
          ]
        },
        "performer": [
          {
            "display": "The Central European Lab"
          }
        ],
        "category": [
          {
            "coding": [
              {
                "system": "http://terminology.hl7.org/CodeSystem/observation-category",
                "code": "laboratory"
              }
            ]
          }
        ],
        "code": {
          "coding": [
            {
              "code": "5811-5",
              "system": "http://loinc.org",
              "display": "Specific gravity of Urine by Test strip"
            }
          ],
          "text": "Specific gravity of Urine by Test strip"
        },
        "valueQuantity": {
          "system": "http://unitsofmeasure.org",
          "value": 1,
          "unit": "{nominal}",
          "code": "{nominal}"
        },
        "referenceRange": [
          {
            "low": {
              "value": 1.01,
              "code": "g/mL",
              "system": "http://unitsofmeasure.org"
            }
          },
          {
            "high": {
              "value": 1.03,
              "code": "g/mL",
              "system": "http://unitsofmeasure.org"
            }
          }
        ],
        "interpretation": [
          {
            "coding": [
              {
                "code": "L",
                "system": "http://terminology.hl7.org/CodeSystem/v3-ObservationInterpretation",
                "display": "Low"
              }
            ]
          }
        ],
        "text": {
          "status": "generated",
          "div": "<div xmlns=\"http://www.w3.org/1999/xhtml\"><table class=\"hl7__eu__lab__report\"><tr><th>Test</th><th>21-Sep-2023</th><th>Reference&#xA0;Range</th><th>Unit</th></tr><tr><td>Specific gravity of Urine by Test strip</td><td>1.0</td><td>1.01 - 1.03</td><td>L</td><td>{nominal}</td></tr></table></div>"
        },
        "status": "final",
        "subject": {
          "reference": "urn:uuid:646f9c6e-3f5e-4eba-bae6-376664d87d5c",
          "display": "Marthe Gallet"
        },
        "effectiveDateTime": "2023-09-21T19:05:43Z",
        "specimen": {
          "reference": "urn:uuid:4943d166-91fe-4798-ac4f-bca7fd6249ad"
        }
      }
    },
    {
      "fullUrl": "urn:uuid:e9a2cdda-d612-410c-8ff4-a7a0df391e94",
      "resource": {
        "resourceType": "Observation",
        "id": "e9a2cdda-d612-410c-8ff4-a7a0df391e94",
        "meta": {
          "profile": [
            "http://hl7.eu/fhir/laboratory/StructureDefinition/Observation-resultslab-eu-lab"
          ]
        },
        "performer": [
          {
            "display": "The Central European Lab"
          }
        ],
        "category": [
          {
            "coding": [
              {
                "system": "http://terminology.hl7.org/CodeSystem/observation-category",
                "code": "laboratory"
              }
            ]
          }
        ],
        "code": {
          "coding": [
            {
              "code": "5803-2",
              "system": "http://loinc.org",
              "display": "pH of Urine by Test strip"
            }
          ],
          "text": "pH of Urine by Test strip"
        },
        "valueQuantity": {
          "system": "http://unitsofmeasure.org",
          "value": 6.4,
          "unit": "pH",
          "code": "pH"
        },
        "referenceRange": [
          {
            "low": {
              "value": 4.6,
              "code": "pH",
              "system": "http://unitsofmeasure.org"
            }
          },
          {
            "high": {
              "value": 7,
              "code": "pH",
              "system": "http://unitsofmeasure.org"
            }
          }
        ],
        "text": {
          "status": "generated",
          "div": "<div xmlns=\"http://www.w3.org/1999/xhtml\"><table class=\"hl7__eu__lab__report\"><tr><th>Test</th><th>21-Sep-2023</th><th>Reference&#xA0;Range</th><th>Unit</th></tr><tr><td>pH of Urine by Test strip</td><td>6.4</td><td>4.6 - 7</td><td></td><td>pH</td></tr></table></div>"
        },
        "status": "final",
        "subject": {
          "reference": "urn:uuid:646f9c6e-3f5e-4eba-bae6-376664d87d5c",
          "display": "Marthe Gallet"
        },
        "effectiveDateTime": "2023-09-21T19:05:43Z",
        "specimen": {
          "reference": "urn:uuid:4943d166-91fe-4798-ac4f-bca7fd6249ad"
        }
      }
    },
    {
      "fullUrl": "urn:uuid:28c6d96a-ea2b-4df3-8140-d20dc93d5311",
      "resource": {
        "resourceType": "Observation",
        "id": "28c6d96a-ea2b-4df3-8140-d20dc93d5311",
        "meta": {
          "profile": [
            "http://hl7.eu/fhir/laboratory/StructureDefinition/Observation-resultslab-eu-lab"
          ]
        },
        "performer": [
          {
            "display": "The Central European Lab"
          }
        ],
        "category": [
          {
            "coding": [
              {
                "system": "http://terminology.hl7.org/CodeSystem/observation-category",
                "code": "laboratory"
              }
            ]
          }
        ],
        "code": {
          "coding": [
            {
              "code": "5804-0",
              "system": "http://loinc.org",
              "display": "Protein [Mass/volume] in Urine by Test strip"
            }
          ],
          "text": "Protein [Mass/volume] in Urine by Test strip"
        },
        "valueQuantity": {
          "system": "http://unitsofmeasure.org",
          "value": 341.3,
          "unit": "mg/dL",
          "code": "mg/dL"
        },
        "referenceRange": [
          {
            "low": {
              "value": 0,
              "code": "mg/dL",
              "system": "http://unitsofmeasure.org"
            }
          },
          {
            "high": {
              "value": 15,
              "code": "mg/dL",
              "system": "http://unitsofmeasure.org"
            }
          }
        ],
        "interpretation": [
          {
            "coding": [
              {
                "code": "H",
                "system": "http://terminology.hl7.org/CodeSystem/v3-ObservationInterpretation",
                "display": "High"
              }
            ]
          }
        ],
        "text": {
          "status": "generated",
          "div": "<div xmlns=\"http://www.w3.org/1999/xhtml\"><table class=\"hl7__eu__lab__report\"><tr><th>Test</th><th>21-Sep-2023</th><th>Reference&#xA0;Range</th><th>Unit</th></tr><tr><td>Protein [Mass/volume] in Urine by Test strip</td><td>341.3</td><td>0 - 15</td><td>H</td><td>mg/dL</td></tr></table></div>"
        },
        "status": "final",
        "subject": {
          "reference": "urn:uuid:646f9c6e-3f5e-4eba-bae6-376664d87d5c",
          "display": "Marthe Gallet"
        },
        "effectiveDateTime": "2023-09-21T19:05:43Z",
        "specimen": {
          "reference": "urn:uuid:4943d166-91fe-4798-ac4f-bca7fd6249ad"
        }
      }
    },
    {
      "fullUrl": "urn:uuid:8d7d34d2-7fd8-4654-83ab-def47dfd71ee",
      "resource": {
        "resourceType": "Observation",
        "id": "8d7d34d2-7fd8-4654-83ab-def47dfd71ee",
        "meta": {
          "profile": [
            "http://hl7.eu/fhir/laboratory/StructureDefinition/Observation-resultslab-eu-lab"
          ]
        },
        "performer": [
          {
            "display": "The Central European Lab"
          }
        ],
        "category": [
          {
            "coding": [
              {
                "system": "http://terminology.hl7.org/CodeSystem/observation-category",
                "code": "laboratory"
              }
            ]
          }
        ],
        "code": {
          "coding": [
            {
              "code": "20454-5",
              "system": "http://loinc.org",
              "display": "Protein [Presence] in Urine by Test strip"
            }
          ],
          "text": "Protein [Presence] in Urine by Test strip"
        },
        "text": {
          "status": "generated",
          "div": "<div xmlns=\"http://www.w3.org/1999/xhtml\"><table class=\"hl7__eu__lab__report\"><tr><th>Test</th><th>21-Sep-2023</th><th>Reference&#xA0;Range</th><th>Unit</th></tr><tr><td>Protein [Presence] in Urine by Test strip</td></tr></table></div>"
        },
        "status": "final",
        "subject": {
          "reference": "urn:uuid:646f9c6e-3f5e-4eba-bae6-376664d87d5c",
          "display": "Marthe Gallet"
        },
        "effectiveDateTime": "2023-09-21T19:05:43Z",
        "specimen": {
          "reference": "urn:uuid:4943d166-91fe-4798-ac4f-bca7fd6249ad"
        }
      }
    },
    {
      "fullUrl": "urn:uuid:d392ab54-c4ec-4225-b82f-af70a08d03ed",
      "resource": {
        "resourceType": "Observation",
        "id": "d392ab54-c4ec-4225-b82f-af70a08d03ed",
        "meta": {
          "profile": [
            "http://hl7.eu/fhir/laboratory/StructureDefinition/Observation-resultslab-eu-lab"
          ]
        },
        "performer": [
          {
            "display": "The Central European Lab"
          }
        ],
        "category": [
          {
            "coding": [
              {
                "system": "http://terminology.hl7.org/CodeSystem/observation-category",
                "code": "laboratory"
              }
            ]
          }
        ],
        "code": {
          "coding": [
            {
              "code": "5802-4",
              "system": "http://loinc.org",
              "display": "Nitrite [Presence] in Urine by Test strip"
            }
          ],
          "text": "Nitrite [Presence] in Urine by Test strip"
        },
        "text": {
          "status": "generated",
          "div": "<div xmlns=\"http://www.w3.org/1999/xhtml\"><table class=\"hl7__eu__lab__report\"><tr><th>Test</th><th>21-Sep-2023</th><th>Reference&#xA0;Range</th><th>Unit</th></tr><tr><td>Nitrite [Presence] in Urine by Test strip</td></tr></table></div>"
        },
        "status": "final",
        "subject": {
          "reference": "urn:uuid:646f9c6e-3f5e-4eba-bae6-376664d87d5c",
          "display": "Marthe Gallet"
        },
        "effectiveDateTime": "2023-09-21T19:05:43Z",
        "specimen": {
          "reference": "urn:uuid:4943d166-91fe-4798-ac4f-bca7fd6249ad"
        }
      }
    },
    {
      "fullUrl": "urn:uuid:355d2c40-573e-4d7c-b04b-c0b52712446e",
      "resource": {
        "resourceType": "Observation",
        "id": "355d2c40-573e-4d7c-b04b-c0b52712446e",
        "meta": {
          "profile": [
            "http://hl7.eu/fhir/laboratory/StructureDefinition/Observation-resultslab-eu-lab"
          ]
        },
        "performer": [
          {
            "display": "The Central European Lab"
          }
        ],
        "category": [
          {
            "coding": [
              {
                "system": "http://terminology.hl7.org/CodeSystem/observation-category",
                "code": "laboratory"
              }
            ]
          }
        ],
        "code": {
          "coding": [
            {
              "code": "5794-3",
              "system": "http://loinc.org",
              "display": "Hemoglobin [Presence] in Urine by Test strip"
            }
          ],
          "text": "Hemoglobin [Presence] in Urine by Test strip"
        },
        "text": {
          "status": "generated",
          "div": "<div xmlns=\"http://www.w3.org/1999/xhtml\"><table class=\"hl7__eu__lab__report\"><tr><th>Test</th><th>21-Sep-2023</th><th>Reference&#xA0;Range</th><th>Unit</th></tr><tr><td>Hemoglobin [Presence] in Urine by Test strip</td></tr></table></div>"
        },
        "status": "final",
        "subject": {
          "reference": "urn:uuid:646f9c6e-3f5e-4eba-bae6-376664d87d5c",
          "display": "Marthe Gallet"
        },
        "effectiveDateTime": "2023-09-21T19:05:43Z",
        "specimen": {
          "reference": "urn:uuid:4943d166-91fe-4798-ac4f-bca7fd6249ad"
        }
      }
    },
    {
      "fullUrl": "urn:uuid:29f04796-3df5-4473-8f1c-c5143d0eab41",
      "resource": {
        "resourceType": "Observation",
        "id": "29f04796-3df5-4473-8f1c-c5143d0eab41",
        "meta": {
          "profile": [
            "http://hl7.eu/fhir/laboratory/StructureDefinition/Observation-resultslab-eu-lab"
          ]
        },
        "performer": [
          {
            "display": "The Central European Lab"
          }
        ],
        "category": [
          {
            "coding": [
              {
                "system": "http://terminology.hl7.org/CodeSystem/observation-category",
                "code": "laboratory"
              }
            ]
          }
        ],
        "code": {
          "coding": [
            {
              "code": "5799-2",
              "system": "http://loinc.org",
              "display": "Leukocyte esterase [Presence] in Urine by Test strip"
            }
          ],
          "text": "Leukocyte esterase [Presence] in Urine by Test strip"
        },
        "text": {
          "status": "generated",
          "div": "<div xmlns=\"http://www.w3.org/1999/xhtml\"><table class=\"hl7__eu__lab__report\"><tr><th>Test</th><th>21-Sep-2023</th><th>Reference&#xA0;Range</th><th>Unit</th></tr><tr><td>Leukocyte esterase [Presence] in Urine by Test strip</td></tr></table></div>"
        },
        "status": "final",
        "subject": {
          "reference": "urn:uuid:646f9c6e-3f5e-4eba-bae6-376664d87d5c",
          "display": "Marthe Gallet"
        },
        "effectiveDateTime": "2023-09-21T19:05:43Z",
        "specimen": {
          "reference": "urn:uuid:4943d166-91fe-4798-ac4f-bca7fd6249ad"
        }
      }
    },
    {
      "fullUrl": "urn:uuid:42dabbc0-ef0c-4b2c-976f-0b0885004e1f",
      "resource": {
        "resourceType": "Device",
        "id": "42dabbc0-ef0c-4b2c-976f-0b0885004e1f",
        "deviceName": [
          {
            "name": "SYNDERAI Synthetic Generator",
            "type": "manufacturer-name"
          }
        ],
        "version": [
          {
            "value": "5.0"
          }
        ],
        "text": {
          "status": "generated",
          "div": "<div xmlns=\"http://www.w3.org/1999/xhtml\">SYNDERAI Synthetic Generator v5.0</div>"
        },
        "status": "active\"",
        "distinctIdentifier": "synderai-generator-50",
        "manufacturer": "SYNDERAI Project"
      }
    },
    {
      "fullUrl": "urn:uuid:19376259-8779-4f08-b238-a1a30e812a3f",
      "resource": {
        "resourceType": "Provenance",
        "id": "19376259-8779-4f08-b238-a1a30e812a3f",
        "target": [
          {
            "reference": "Patient/646f9c6e-3f5e-4eba-bae6-376664d87d5c"
          },
          {
            "reference": "Bundle/3a1532cf-cfe0-421d-9ac0-e99149cc6a06"
          },
          {
            "reference": "Composition/5264003c-3de4-430d-84d0-d2242c34fd4b"
          },
          {
            "reference": "PractitionerRole/beea20c4-54e3-4212-9d7c-5dca8b3ee6ae"
          },
          {
            "reference": "Practitioner/b6c992c5-dfb1-412e-a906-9f244add5e6a"
          },
          {
            "reference": "PractitionerRole/52e6e175-6439-4d87-92bc-871ca66525c7"
          },
          {
            "reference": "Organization/fb97ad5c-1890-47f7-945f-79812020906e"
          }
        ],
        "activity": {
          "text": "Synthetic Example Data Generation"
        },
        "policy": [
          "https://synderai.net/synderai-synthetic-data-policy"
        ],
        "agent": [
          {
            "type": {
              "text": "author"
            },
            "who": {
              "reference": "Device/42dabbc0-ef0c-4b2c-976f-0b0885004e1f"
            }
          }
        ],
        "reason": [
          {
            "text": "Interoperability Testing and Training (non-clinical use)"
          }
        ],
        "text": {
          "status": "generated",
          "div": "<div xmlns=\"http://www.w3.org/1999/xhtml\">Provenance for SYNDERAI Synthetic Example Data Resource</div>"
        },
        "recorded": "2023-09-21T21:05:43Z"
      }
    },
    {
      "fullUrl": "urn:uuid:beea20c4-54e3-4212-9d7c-5dca8b3ee6ae",
      "resource": {
        "resourceType": "PractitionerRole",
        "id": "beea20c4-54e3-4212-9d7c-5dca8b3ee6ae",
        "meta": {
          "profile": [
            "http://hl7.eu/fhir/base/StructureDefinition/practitionerRole-eu"
          ]
        },
        "text": {
          "status": "generated",
          "div": "<div xmlns=\"http://www.w3.org/1999/xhtml\">Laboratory Role Id: beea20c4-54e3-4212-9d7c-5dca8b3ee6ae</div>"
        },
        "practitioner": {
          "reference": "urn:uuid:b6c992c5-dfb1-412e-a906-9f244add5e6a"
        }
      }
    },
    {
      "fullUrl": "urn:uuid:b6c992c5-dfb1-412e-a906-9f244add5e6a",
      "resource": {
        "resourceType": "Practitioner",
        "id": "b6c992c5-dfb1-412e-a906-9f244add5e6a",
        "meta": {
          "profile": [
            "http://hl7.eu/fhir/base/StructureDefinition/practitioner-eu"
          ]
        },
        "identifier": [
          {
            "assigner": {
              "display": "HL7 Europe"
            },
            "system": "urn:oid:2.16.840.1.113883.2.51.999",
            "value": "127c128e-dbd2-47d3-b99b-530de95a0f2a"
          }
        ],
        "name": [
          {
            "prefix": [
              "dr"
            ],
            "given": [
              "Ex"
            ],
            "family": "Ample"
          }
        ],
        "address": [
          {
            "line": [
              "Laboratoire Central Europenne",
              "Boulevard du Jardin Botanique 32"
            ],
            "postalCode": "1000",
            "city": "Brussels",
            "country": "Belgium"
          }
        ],
        "text": {
          "status": "generated",
          "div": "<div xmlns=\"http://www.w3.org/1999/xhtml\">Laboratory: Laboratoire Central Europenne, 1000 Brussels, Belgium</div>"
        }
      }
    }
  ],
  "type": "document",
  "timestamp": "2023-09-21T21:05:43Z"
}
