<Bundle xmlns="http://hl7.org/fhir">
   <id value="4216912c-f9be-4619-8a7e-8fbc4c68aa22"/>
   <meta>
      <profile value="http://hl7.eu/fhir/laboratory/StructureDefinition/Bundle-eu-lab"/>
   </meta>
   <identifier>
      <system value="urn:oid:2.16.840.1.113883.2.51.999"/>
      <value value="8458885f-ec09-45d6-911a-3444dcfd2fb1"/>
      <assigner>
         <display value="HL7 Europe"/>
      </assigner>
   </identifier>
   <type value="document"/>
   <timestamp value="2017-06-19T17:32:25Z"/>
   <entry>
      <fullUrl value="urn:uuid:89f9deb2-bf6c-4e4d-8e20-de04fd050ca6"/>
      <resource>
         <Composition>
            <id value="89f9deb2-bf6c-4e4d-8e20-de04fd050ca6"/>
            <meta>
               <profile value="http://hl7.eu/fhir/laboratory/StructureDefinition/Composition-eu-lab"/>
            </meta>
            <identifier>
               <system value="urn:oid:2.16.840.1.113883.2.51.999"/>
               <value value="1c7fad36-ba2b-4996-b077-06b1625506e7"/>
               <assigner>
                  <display value="HL7 Europe"/>
               </assigner>
            </identifier>
            <status value="final"/>
            <type>
               <coding>
                  <system value="http://loinc.org"/>
                  <code value="11502-2"/>
                  <display value="Laboratory report"/>
               </coding>
               <text value="Laboratory Report"/>
            </type>
            <category>
               <coding>
                  <system value="http://loinc.org"/>
                  <code value="26436-6"/>
                  <display value="Laboratory studies (set)"/>
               </coding>
            </category>
            <subject>
               <reference value="urn:uuid:0528b881-9bea-4b75-9dc2-8e94cbf3f2b1"/>
               <display value="Magdolna Balog"/>
            </subject>
            <date value="2017-06-19T17:32:25Z"/>
            <author>
               <reference value="urn:uuid:d0780019-5d01-4820-a9e2-a8896b5a73e4"/>
            </author>
            <title value="Laboratory Report"/>
            <confidentiality value="N"/>
            <section>
               <title value="Laboratory Report"/>
               <code>
                  <coding>
                     <system value="http://loinc.org"/>
                     <code value="26436-6"/>
                     <display value="Laboratory studies (set)"/>
                  </coding>
                  <text value="Laboratory studies"/>
               </code>
               <section>
                  <title value="Hematology"/>
                  <code>
                     <coding>
                        <system value="http://loinc.org"/>
                        <code value="$18723-7"/>
                        <display value="Hematology studies (set)"/>
                     </coding>
                     <text value="Hematology"/>
                  </code>
                  <text>
                     <status value="generated"/>
                     <div xmlns="http://www.w3.org/1999/xhtml">
                        <h3>Hematology</h3>
                        <table class="hl7__eu__lab__report">
                           <thead>
                              <tr>
                                 <th>Test</th>
                                 <th>19-JUN-2017</th>
                                 <th>Reference Range</th>
                                 <th>Unit</th>
                              </tr>
                           </thead>
                           <tbody>
                              <tr>
                                 <td>Leukocytes [#/volume] in Blood by Automated count</td>
                                 <td>4.9</td>
                                 <td>4 - 11</td>
                                 <td>10*3/uL</td>
                              </tr>
                              <tr>
                                 <td>Erythrocytes [#/volume] in Blood by Automated count</td>
                                 <td>4.5</td>
                                 <td>4.2 - 5.8</td>
                                 <td>10*6/uL</td>
                              </tr>
                              <tr>
                                 <td>Hemoglobin [Mass/volume] in Blood</td>
                                 <td>16.0</td>
                                 <td>12 - 16</td>
                                 <td>g/dL</td>
                              </tr>
                              <tr>
                                 <td>Hematocrit [Volume Fraction] of Blood by Automated count</td>
                                 <td>45.9</td>
                                 <td>36 - 48</td>
                                 <td>%</td>
                              </tr>
                              <tr>
                                 <td>MCV [Entitic volume] by Automated count</td>
                                 <td>84.9</td>
                                 <td>78 - 98</td>
                                 <td>fL</td>
                              </tr>
                              <tr>
                                 <td>MCH [Entitic mass] by Automated count</td>
                                 <td>32.2</td>
                                 <td>27 - 34.5</td>
                                 <td>pg</td>
                              </tr>
                              <tr>
                                 <td>MCHC [Mass/volume] by Automated count</td>
                                 <td>32.9</td>
                                 <td>31.5 - 35.5</td>
                                 <td>g/dL</td>
                              </tr>
                              <tr>
                                 <td>Erythrocyte distribution width [Ratio] by Automated count</td>
                                 <td>13.3</td>
                                 <td>11.5 - 16</td>
                                 <td>%</td>
                              </tr>
                              <tr>
                                 <td>Platelets [#/volume] in Blood by Automated count</td>
                                 <td>296.5</td>
                                 <td>150 - 350</td>
                                 <td>10*3/uL</td>
                              </tr>
                           </tbody>
                        </table>
                     </div>
                  </text>
                  <entry>
                     <reference value="urn:uuid:b8fef19e-0190-4630-bdf2-5114cef03d1b"/>
                  </entry>
                  <entry>
                     <reference value="urn:uuid:04017ba4-0b4f-4985-97d6-0e941afb764c"/>
                  </entry>
                  <entry>
                     <reference value="urn:uuid:3f5d10d2-fe22-42b3-bbbf-346eb2f0112b"/>
                  </entry>
                  <entry>
                     <reference value="urn:uuid:ad5d5187-9e28-493a-97c7-6f4711ef89fa"/>
                  </entry>
                  <entry>
                     <reference value="urn:uuid:b0af697b-556a-4f58-a17c-0902f91ddd05"/>
                  </entry>
                  <entry>
                     <reference value="urn:uuid:413fc8f7-db96-44a3-a160-dc64a3a208bd"/>
                  </entry>
                  <entry>
                     <reference value="urn:uuid:1d9c47ba-bcec-4f98-bc73-7ade8ff263fc"/>
                  </entry>
                  <entry>
                     <reference value="urn:uuid:df872f57-f634-4c7a-8bd3-a5d9cb9f3647"/>
                  </entry>
                  <entry>
                     <reference value="urn:uuid:65bb2bdb-282d-40e0-8531-7647777bb94b"/>
                  </entry>
               </section>
               <section>
                  <title value="Chemistry"/>
                  <code>
                     <coding>
                        <system value="http://loinc.org"/>
                        <code value="$18719-5"/>
                        <display value="Chemistry studies (set)"/>
                     </coding>
                     <text value="Chemistry"/>
                  </code>
                  <text>
                     <status value="generated"/>
                     <div xmlns="http://www.w3.org/1999/xhtml">
                        <h3>Chemistry</h3>
                        <table class="hl7__eu__lab__report">
                           <thead>
                              <tr>
                                 <th>Test</th>
                                 <th>19-JUN-2017</th>
                                 <th>Reference Range</th>
                                 <th>Unit</th>
                              </tr>
                           </thead>
                           <tbody>
                              <tr>
                                 <td>Glucose [Mass/volume] in Serum or Plasma</td>
                                 <td>83.3</td>
                                 <td>70 - 140</td>
                                 <td>mg/dL</td>
                              </tr>
                              <tr>
                                 <td>Urea nitrogen [Mass/volume] in Serum or Plasma</td>
                                 <td>16.7</td>
                                 <td>7 - 25</td>
                                 <td>mg/dL</td>
                              </tr>
                              <tr>
                                 <td>Creatinine [Mass/volume] in Serum or Plasma</td>
                                 <td>
                                    <strong>2.8 H</strong>
                                 </td>
                                 <td>0.6 - 1.1</td>
                                 <td>mg/dL</td>
                              </tr>
                              <tr>
                                 <td>Calcium [Mass/volume] in Serum or Plasma</td>
                                 <td>10.2</td>
                                 <td>8.5 - 10.4</td>
                                 <td>mg/dL</td>
                              </tr>
                              <tr>
                                 <td>Sodium [Moles/volume] in Serum or Plasma</td>
                                 <td>142.6</td>
                                 <td>135 - 145</td>
                                 <td>mmol/L</td>
                              </tr>
                              <tr>
                                 <td>Potassium [Moles/volume] in Serum or Plasma</td>
                                 <td>4.0</td>
                                 <td>3.5 - 5.3</td>
                                 <td>mmol/L</td>
                              </tr>
                              <tr>
                                 <td>Chloride [Moles/volume] in Serum or Plasma</td>
                                 <td>105.7</td>
                                 <td>98 - 108</td>
                                 <td>mmol/L</td>
                              </tr>
                              <tr>
                                 <td>Carbon dioxide, total [Moles/volume] in Serum or Plasma</td>
                                 <td>25.6</td>
                                 <td>22 - 29</td>
                                 <td>mmol/L</td>
                              </tr>
                              <tr>
                                 <td>Protein [Mass/volume] in Serum or Plasma</td>
                                 <td>7.1</td>
                                 <td>6 - 8.3</td>
                                 <td>g/dL</td>
                              </tr>
                              <tr>
                                 <td>Albumin [Mass/volume] in Serum or Plasma</td>
                                 <td>4.5</td>
                                 <td>3.5 - 5.5</td>
                                 <td>g/dL</td>
                              </tr>
                              <tr>
                                 <td>Bilirubin.total [Mass/volume] in Serum or Plasma</td>
                                 <td>
                                    <strong>11.9 H</strong>
                                 </td>
                                 <td>0.3 - 1.2</td>
                                 <td>mg/dL</td>
                              </tr>
                              <tr>
                                 <td>Alkaline phosphatase [Enzymatic activity/volume] in Serum or Plasma</td>
                                 <td>46.4</td>
                                 <td>35 - 270</td>
                                 <td>U/L</td>
                              </tr>
                              <tr>
                                 <td>Alanine aminotransferase [Enzymatic activity/volume] in Serum or Plasma</td>
                                 <td>30.6</td>
                                 <td>7 - 60</td>
                                 <td>U/L</td>
                              </tr>
                              <tr>
                                 <td>Aspartate aminotransferase [Enzymatic activity/volume] in Serum or Plasma</td>
                                 <td>38.4</td>
                                 <td>10 - 40</td>
                                 <td>U/L</td>
                              </tr>
                              <tr>
                                 <td>Magnesium [Mass/volume] in Serum or Plasma</td>
                                 <td>1.9</td>
                                 <td>1.6 - 2.3</td>
                                 <td>mg/dL</td>
                              </tr>
                              <tr>
                                 <td>Phosphate [Mass/volume] in Serum or Plasma</td>
                                 <td>2.8</td>
                                 <td>2.5 - 4.5</td>
                                 <td>mg/dL</td>
                              </tr>
                              <tr>
                                 <td>pH of Arterial blood</td>
                                 <td>
                                    <strong>6.9 L</strong>
                                 </td>
                                 <td>7.35 - 7.45</td>
                                 <td>[pH]</td>
                              </tr>
                              <tr>
                                 <td>Carbon dioxide [Partial pressure] in Arterial blood</td>
                                 <td>42.5</td>
                                 <td>38 - 48</td>
                                 <td>mm[Hg]</td>
                              </tr>
                              <tr>
                                 <td>Oxygen [Partial pressure] in Arterial blood</td>
                                 <td>98.8</td>
                                 <td>75 - 100</td>
                                 <td>mm[Hg]</td>
                              </tr>
                              <tr>
                                 <td>Bicarbonate [Moles/volume] in Arterial blood</td>
                                 <td>25.4</td>
                                 <td>22 - 31</td>
                                 <td>mmol/L</td>
                              </tr>
                              <tr>
                                 <td>Oxygen saturation in Arterial blood</td>
                                 <td>
                                    <strong>94.0 L</strong>
                                 </td>
                                 <td>95 - 100</td>
                                 <td>%</td>
                              </tr>
                              <tr>
                                 <td>Cholesterol [Mass/volume] in Serum or Plasma</td>
                                 <td>159.4</td>
                                 <td>125 - 200</td>
                                 <td>mg/dL</td>
                              </tr>
                              <tr>
                                 <td>Triglyceride [Mass/volume] in Serum or Plasma</td>
                                 <td>126.3</td>
                                 <td>0 - 150</td>
                                 <td>mg/dL</td>
                              </tr>
                              <tr>
                                 <td>Cholesterol in LDL [Mass/volume] in Serum or Plasma by Direct assay</td>
                                 <td>79.3</td>
                                 <td>0 - 130</td>
                                 <td>mg/dL</td>
                              </tr>
                              <tr>
                                 <td>Cholesterol in HDL [Mass/volume] in Serum or Plasma</td>
                                 <td>54.9</td>
                                 <td>50 - 100</td>
                                 <td>mg/dL</td>
                              </tr>
                           </tbody>
                        </table>
                     </div>
                  </text>
                  <entry>
                     <reference value="urn:uuid:4e120ec7-0935-4f4b-85fc-5c6758c2856a"/>
                  </entry>
                  <entry>
                     <reference value="urn:uuid:31ea9d75-f1d8-4e91-8f0d-b3b5728febc6"/>
                  </entry>
                  <entry>
                     <reference value="urn:uuid:80b993bf-a775-4b75-baa5-bcb14db24934"/>
                  </entry>
                  <entry>
                     <reference value="urn:uuid:798f8cb8-2650-4284-8b0a-1f05b197b2cd"/>
                  </entry>
                  <entry>
                     <reference value="urn:uuid:a1e02e8c-a368-4361-ac0a-7bb2a7c36311"/>
                  </entry>
                  <entry>
                     <reference value="urn:uuid:65314fa4-277e-40b9-891c-28284b307ed1"/>
                  </entry>
                  <entry>
                     <reference value="urn:uuid:0f00b0c2-b1d7-4919-be9d-cf743b256a7f"/>
                  </entry>
                  <entry>
                     <reference value="urn:uuid:b6337aaf-2596-41bc-8af9-6f21da88f2d0"/>
                  </entry>
                  <entry>
                     <reference value="urn:uuid:ac6f9ceb-76f2-4705-acfa-89711bb346e9"/>
                  </entry>
                  <entry>
                     <reference value="urn:uuid:7b9f1901-4b70-4f2c-92e1-a0cd614e9958"/>
                  </entry>
                  <entry>
                     <reference value="urn:uuid:9e8d19a9-f5f7-44b3-b19a-af65ce975836"/>
                  </entry>
                  <entry>
                     <reference value="urn:uuid:e98d7d91-b205-49c9-9e43-4d647d9ac50d"/>
                  </entry>
                  <entry>
                     <reference value="urn:uuid:b8a2427d-9b53-4dc8-a27a-3e8706432c99"/>
                  </entry>
                  <entry>
                     <reference value="urn:uuid:3e555b2b-9d2d-4eef-ba9b-9974ae853863"/>
                  </entry>
                  <entry>
                     <reference value="urn:uuid:205ef295-aa84-4802-a8b8-860190c052df"/>
                  </entry>
                  <entry>
                     <reference value="urn:uuid:229913f2-fa45-4c27-b494-d3405a3b94f9"/>
                  </entry>
                  <entry>
                     <reference value="urn:uuid:001ca06c-dddc-4bc6-91d9-1b2ecadfeab3"/>
                  </entry>
                  <entry>
                     <reference value="urn:uuid:0a93ba9e-ef2a-4b92-9226-a5c0d6a6dfe2"/>
                  </entry>
                  <entry>
                     <reference value="urn:uuid:ca97838e-3ce3-4c51-ac0d-20574608810e"/>
                  </entry>
                  <entry>
                     <reference value="urn:uuid:03f04fb7-6c4f-4fb4-bfdb-4b5d518a4994"/>
                  </entry>
                  <entry>
                     <reference value="urn:uuid:a3cbad7c-ffbc-4bb3-b291-bd778bebeadd"/>
                  </entry>
                  <entry>
                     <reference value="urn:uuid:cbba7c69-51aa-4a59-8b32-64dc61c2ec93"/>
                  </entry>
                  <entry>
                     <reference value="urn:uuid:3509d7f3-f7d2-4560-8a66-b92cd959a732"/>
                  </entry>
                  <entry>
                     <reference value="urn:uuid:4b6137f3-26de-4518-a3ff-918cfa67b44c"/>
                  </entry>
                  <entry>
                     <reference value="urn:uuid:0b9ff3c5-d2fa-413f-a0e0-cf493abde878"/>
                  </entry>
               </section>
               <section>
                  <title value="Coagulation"/>
                  <code>
                     <coding>
                        <system value="http://loinc.org"/>
                        <code value="$18720-3"/>
                        <display value="Coagulation studies (set)"/>
                     </coding>
                     <text value="Coagulation"/>
                  </code>
                  <text>
                     <status value="generated"/>
                     <div xmlns="http://www.w3.org/1999/xhtml">
                        <h3>Coagulation</h3>
                        <table class="hl7__eu__lab__report">
                           <thead>
                              <tr>
                                 <th>Test</th>
                                 <th>19-JUN-2017</th>
                                 <th>Reference Range</th>
                                 <th>Unit</th>
                              </tr>
                           </thead>
                           <tbody>
                              <tr>
                                 <td>Prothrombin time (PT)</td>
                                 <td>11.3</td>
                                 <td>11 - 15</td>
                                 <td>s</td>
                              </tr>
                              <tr>
                                 <td>INR in Platelet poor plasma by Coagulation assay</td>
                                 <td>1.2</td>
                                 <td>0.9 - 3</td>
                                 <td>{INR}</td>
                              </tr>
                              <tr>
                                 <td>aPTT in Blood by Coagulation assay</td>
                                 <td>39.6</td>
                                 <td>25 - 40</td>
                                 <td>s</td>
                              </tr>
                           </tbody>
                        </table>
                     </div>
                  </text>
                  <entry>
                     <reference value="urn:uuid:4d618119-69d3-4380-b660-6259a50cf913"/>
                  </entry>
                  <entry>
                     <reference value="urn:uuid:88e19bb3-19d6-4c05-8661-6ffcb5f65d10"/>
                  </entry>
                  <entry>
                     <reference value="urn:uuid:3d19b7bf-f4f8-45b6-9da1-1c50b9cc63dc"/>
                  </entry>
               </section>
            </section>
            <section>
               <title value="Annotation comment"/>
               <code>
                  <coding>
                     <system value="http://loinc.org"/>
                     <code value="48767-8"/>
                     <display value="Annotation comment"/>
                  </coding>
               </code>
               <text>
                  <status value="generated"/>
                  <div xmlns="http://www.w3.org/1999/xhtml">
                     <h3>Annotation</h3>
                     <table class="hl7__eu__lab__report">
                        <tr>
                           <th>Conclusion and Recommendations based on this report and previous findings known to us</th>
                        </tr>
                        <tr>
                           <td>Most parameters are within normal limits. However, there is marked hyperbilirubinemia (total bilirubin 11.9 mg/dL) and significantly elevated creatinine (2.8 mg/dL), indicating possible hepatic dysfunction and acute or chronic renal impairment. Critically low arterial pH (6.9) suggests severe acidemia, and oxygen saturation is slightly reduced. These findings are concerning for multi-organ dysfunction and require urgent clinical evaluation and intervention.</td>
                        </tr>
                     </table>
                  </div>
               </text>
            </section>
         </Composition>
      </resource>
   </entry>
   <entry>
      <fullUrl value="urn:uuid:0f6c401b-7b6b-463f-9363-d6310f521622"/>
      <resource>
         <DiagnosticReport>
            <id value="0f6c401b-7b6b-463f-9363-d6310f521622"/>
            <meta>
               <profile value="http://hl7.eu/fhir/laboratory/StructureDefinition/DiagnosticReport-eu-lab"/>
            </meta>
            <extension url="http://hl7.org/fhir/5.0/StructureDefinition/extension-DiagnosticReport.composition">
               <valueReference>
                  <reference value="urn:uuid:1c7fad36-ba2b-4996-b077-06b1625506e7"/>
               </valueReference>
            </extension>
            <identifier>
               <system value="urn:oid:2.16.840.1.113883.2.51.999"/>
               <value value="0afd485c-e388-42f3-b517-12e9fc1116fb"/>
               <assigner>
                  <display value="HL7 Europe"/>
               </assigner>
            </identifier>
            <status value="registered"/>
            <category>
               <coding>
                  <system value="http://loinc.org"/>
                  <code value="26436-6"/>
                  <display value="Laboratory studies (set)"/>
               </coding>
            </category>
            <code>
               <coding>
                  <system value="http://loinc.org"/>
                  <code value="11502-2"/>
                  <display value="Laboratory report"/>
               </coding>
            </code>
            <subject>
               <reference value="urn:uuid:0528b881-9bea-4b75-9dc2-8e94cbf3f2b1"/>
               <display value="Magdolna Balog"/>
            </subject>
            <specimen>
               <reference value="urn:uuid:a59a597a-63c4-4f3e-a7a3-cd212b1d32ec"/>
            </specimen>
            <specimen>
               <reference value="urn:uuid:a59a597a-63c4-4f3e-a7a3-cd212b1d32ec"/>
            </specimen>
            <specimen>
               <reference value="urn:uuid:f4a36417-9a65-485e-8de3-88e5454d7fdc"/>
            </specimen>
            <specimen>
               <reference value="urn:uuid:4b0dd126-4d8b-476c-8ccf-9afb572e596b"/>
            </specimen>
            <specimen>
               <reference value="urn:uuid:ff4a2e18-6ce5-49e7-bd05-2b6216cfcdc9"/>
            </specimen>
            <result>
               <reference value="urn:uuid:b8fef19e-0190-4630-bdf2-5114cef03d1b"/>
            </result>
            <result>
               <reference value="urn:uuid:04017ba4-0b4f-4985-97d6-0e941afb764c"/>
            </result>
            <result>
               <reference value="urn:uuid:3f5d10d2-fe22-42b3-bbbf-346eb2f0112b"/>
            </result>
            <result>
               <reference value="urn:uuid:ad5d5187-9e28-493a-97c7-6f4711ef89fa"/>
            </result>
            <result>
               <reference value="urn:uuid:b0af697b-556a-4f58-a17c-0902f91ddd05"/>
            </result>
            <result>
               <reference value="urn:uuid:413fc8f7-db96-44a3-a160-dc64a3a208bd"/>
            </result>
            <result>
               <reference value="urn:uuid:1d9c47ba-bcec-4f98-bc73-7ade8ff263fc"/>
            </result>
            <result>
               <reference value="urn:uuid:df872f57-f634-4c7a-8bd3-a5d9cb9f3647"/>
            </result>
            <result>
               <reference value="urn:uuid:65bb2bdb-282d-40e0-8531-7647777bb94b"/>
            </result>
            <result>
               <reference value="urn:uuid:4e120ec7-0935-4f4b-85fc-5c6758c2856a"/>
            </result>
            <result>
               <reference value="urn:uuid:31ea9d75-f1d8-4e91-8f0d-b3b5728febc6"/>
            </result>
            <result>
               <reference value="urn:uuid:80b993bf-a775-4b75-baa5-bcb14db24934"/>
            </result>
            <result>
               <reference value="urn:uuid:798f8cb8-2650-4284-8b0a-1f05b197b2cd"/>
            </result>
            <result>
               <reference value="urn:uuid:a1e02e8c-a368-4361-ac0a-7bb2a7c36311"/>
            </result>
            <result>
               <reference value="urn:uuid:65314fa4-277e-40b9-891c-28284b307ed1"/>
            </result>
            <result>
               <reference value="urn:uuid:0f00b0c2-b1d7-4919-be9d-cf743b256a7f"/>
            </result>
            <result>
               <reference value="urn:uuid:b6337aaf-2596-41bc-8af9-6f21da88f2d0"/>
            </result>
            <result>
               <reference value="urn:uuid:ac6f9ceb-76f2-4705-acfa-89711bb346e9"/>
            </result>
            <result>
               <reference value="urn:uuid:7b9f1901-4b70-4f2c-92e1-a0cd614e9958"/>
            </result>
            <result>
               <reference value="urn:uuid:9e8d19a9-f5f7-44b3-b19a-af65ce975836"/>
            </result>
            <result>
               <reference value="urn:uuid:e98d7d91-b205-49c9-9e43-4d647d9ac50d"/>
            </result>
            <result>
               <reference value="urn:uuid:b8a2427d-9b53-4dc8-a27a-3e8706432c99"/>
            </result>
            <result>
               <reference value="urn:uuid:3e555b2b-9d2d-4eef-ba9b-9974ae853863"/>
            </result>
            <result>
               <reference value="urn:uuid:205ef295-aa84-4802-a8b8-860190c052df"/>
            </result>
            <result>
               <reference value="urn:uuid:229913f2-fa45-4c27-b494-d3405a3b94f9"/>
            </result>
            <result>
               <reference value="urn:uuid:4d618119-69d3-4380-b660-6259a50cf913"/>
            </result>
            <result>
               <reference value="urn:uuid:88e19bb3-19d6-4c05-8661-6ffcb5f65d10"/>
            </result>
            <result>
               <reference value="urn:uuid:3d19b7bf-f4f8-45b6-9da1-1c50b9cc63dc"/>
            </result>
            <result>
               <reference value="urn:uuid:001ca06c-dddc-4bc6-91d9-1b2ecadfeab3"/>
            </result>
            <result>
               <reference value="urn:uuid:0a93ba9e-ef2a-4b92-9226-a5c0d6a6dfe2"/>
            </result>
            <result>
               <reference value="urn:uuid:ca97838e-3ce3-4c51-ac0d-20574608810e"/>
            </result>
            <result>
               <reference value="urn:uuid:03f04fb7-6c4f-4fb4-bfdb-4b5d518a4994"/>
            </result>
            <result>
               <reference value="urn:uuid:a3cbad7c-ffbc-4bb3-b291-bd778bebeadd"/>
            </result>
            <result>
               <reference value="urn:uuid:cbba7c69-51aa-4a59-8b32-64dc61c2ec93"/>
            </result>
            <result>
               <reference value="urn:uuid:3509d7f3-f7d2-4560-8a66-b92cd959a732"/>
            </result>
            <result>
               <reference value="urn:uuid:4b6137f3-26de-4518-a3ff-918cfa67b44c"/>
            </result>
            <result>
               <reference value="urn:uuid:0b9ff3c5-d2fa-413f-a0e0-cf493abde878"/>
            </result>
         </DiagnosticReport>
      </resource>
   </entry>
   <entry>
      <fullUrl value="urn:uuid:0528b881-9bea-4b75-9dc2-8e94cbf3f2b1"/>
      <resource>
         <Patient>
            <id value="0528b881-9bea-4b75-9dc2-8e94cbf3f2b1"/>
            <meta>
               <profile value="http://hl7.eu/fhir/base/StructureDefinition/patient-eu-core"/>
               <security>
                  <system value="http://terminology.hl7.org/CodeSystem/v3-ActReason"/>
                  <code value="HTEST"/>
               </security>
               <security>
                  <system value="http://terminology.hl7.org/CodeSystem/v3-ActReason"/>
                  <code value="TRAIN"/>
               </security>
               <tag>
                  <system value="https://synderai.net/fhir/CodeSystem/tags"/>
                  <code value="synthetic"/>
                  <display value="SYNDERAI Synthetic data"/>
               </tag>
            </meta>
            <text>
               <status value="generated"/>
               <div xmlns="http://www.w3.org/1999/xhtml">
                  <table class="hl7__ips">
                     <tr>
                        <td>Magdolna Balog</td>
                        <td>female</td>
                        <td>21-May-1946</td>
                     </tr>
                  </table>
               </div>
            </text>
            <extension url="http://hl7.org/fhir/StructureDefinition/patient-nationality">
               <valueCodeableConcept>
                  <coding>
                     <system value="http://hl7.org/fhir/ValueSet/country"/>
                     <code value="HU"/>
                  </coding>
               </valueCodeableConcept>
            </extension>
            <identifier>
               <type>
                  <coding>
                     <system value="http://terminology.hl7.org/CodeSystem/v2-0203"/>
                     <code value="PT"/>
                  </coding>
               </type>
               <system value="http://ec.europa.eu/identifier/eci"/>
               <value value="2437-386280-4"/>
            </identifier>
            <identifier>
               <type>
                  <coding>
                     <system value="http://terminology.hl7.org/CodeSystem/v2-0203"/>
                     <code value="MR"/>
                  </coding>
               </type>
               <system value="http://local.setting.eu/identifier"/>
               <value value="1d8dc8c5-3a85-b1b5-4101-cca776d0be28"/>
            </identifier>
            <name>
               <family value="Balog"/>
            </name>
            <name>
               <given value="Magdolna"/>
            </name>
            <name>
               <text value="Magdolna Balog"/>
            </name>
            <telecom>
               <system value="phone"/>
               <value value="+36 46 091-2914"/>
            </telecom>
            <gender value="female"/>
            <birthDate value="1946-05-21"/>
            <address>
               <use value="home"/>
               <type value="physical"/>
               <line value="Ady endre utca 160."/>
               <city value="Némethídfa"/>
               <postalCode value="3989"/>
               <country value="Hungary"/>
            </address>
         </Patient>
      </resource>
   </entry>
   <entry>
      <fullUrl value="urn:uuid:95e140ab-6f6d-44de-bf9d-aa215834900c"/>
      <resource>
         <ServiceRequest>
            <id value="95e140ab-6f6d-44de-bf9d-aa215834900c"/>
            <meta>
               <profile value="http://hl7.eu/fhir/laboratory/StructureDefinition/ServiceRequest-eu-lab"/>
            </meta>
            <identifier>
               <system value="http://example.org"/>
               <value value="4aefc6e3-1ffd-40ba-93d5-25c75fadd833"/>
            </identifier>
            <status value="active"/>
            <intent value="order"/>
            <code>
               <coding>
                  <system value="http://snomed.info/sct"/>
                  <code value="108252007"/>
                  <display value="Laboratory procedure"/>
               </coding>
            </code>
            <subject>
               <reference value="urn:uuid:0528b881-9bea-4b75-9dc2-8e94cbf3f2b1"/>
               <display value="Magdolna Balog"/>
            </subject>
            <requester>
               <reference value="urn:uuid:10da4b47-6461-40ea-8473-7a2d2f461d45"/>
            </requester>
            <reasonCode>
               <coding>
                  <system value="http://snomed.info/sct"/>
                  <code value="26929004"/>
                  <display value="Alzheimer&amp;#039;s disease"/>
               </coding>
            </reasonCode>
            <reasonCode>
               <coding>
                  <system value="http://snomed.info/sct"/>
                  <code value="414545008"/>
                  <display value="Ischemic heart disease"/>
               </coding>
            </reasonCode>
            <reasonCode>
               <coding>
                  <system value="http://snomed.info/sct"/>
                  <code value="49436004"/>
                  <display value="Atrial fibrillation"/>
               </coding>
            </reasonCode>
            <reasonCode>
               <coding>
                  <system value="http://snomed.info/sct"/>
                  <code value="64859006"/>
                  <display value="Osteoporosis"/>
               </coding>
            </reasonCode>
            <reasonCode>
               <coding>
                  <system value="http://snomed.info/sct"/>
                  <code value="15777000"/>
                  <display value="Prediabetes"/>
               </coding>
            </reasonCode>
            <reasonCode>
               <coding>
                  <system value="http://snomed.info/sct"/>
                  <code value="271737000"/>
                  <display value="Anemia"/>
               </coding>
            </reasonCode>
            <specimen>
               <reference value="urn:uuid:a59a597a-63c4-4f3e-a7a3-cd212b1d32ec"/>
            </specimen>
            <specimen>
               <reference value="urn:uuid:f4a36417-9a65-485e-8de3-88e5454d7fdc"/>
            </specimen>
            <specimen>
               <reference value="urn:uuid:4b0dd126-4d8b-476c-8ccf-9afb572e596b"/>
            </specimen>
            <specimen>
               <reference value="urn:uuid:ff4a2e18-6ce5-49e7-bd05-2b6216cfcdc9"/>
            </specimen>
         </ServiceRequest>
      </resource>
   </entry>
   <entry>
      <fullUrl value="urn:uuid:10da4b47-6461-40ea-8473-7a2d2f461d45"/>
      <resource>
         <PractitionerRole>
            <id value="10da4b47-6461-40ea-8473-7a2d2f461d45"/>
            <meta>
               <profile value="http://hl7.eu/fhir/base/StructureDefinition/practitionerRole-eu"/>
            </meta>
            <text>
               <status value="generated"/>
               <div xmlns="http://www.w3.org/1999/xhtml">Provider Role Id: 10da4b47-6461-40ea-8473-7a2d2f461d45</div>
            </text>
            <organization>
               <reference value="urn:uuid:7abc572c-d489-4ec3-88b4-f3d06f3fe07c"/>
            </organization>
         </PractitionerRole>
      </resource>
   </entry>
   <entry>
      <fullUrl value="urn:uuid:7abc572c-d489-4ec3-88b4-f3d06f3fe07c"/>
      <resource>
         <Organization>
            <id value="7abc572c-d489-4ec3-88b4-f3d06f3fe07c"/>
            <meta>
               <profile value="http://hl7.eu/fhir/base/StructureDefinition/organization-eu"/>
            </meta>
            <text>
               <status value="generated"/>
               <div xmlns="http://www.w3.org/1999/xhtml">Provider Organization: Semmelweis Ignác Egészségügyi Központ és Egyetemi Oktató Kórház</div>
            </text>
            <identifier>
               <system value="urn:oid:2.16.840.1.113883.2.51.999"/>
               <value value="4790bcee-6a78-4b7b-aa86-bb28b8ff0f2c"/>
               <assigner>
                  <display value="HL7 Europe"/>
               </assigner>
            </identifier>
            <name value="Semmelweis Ignác Egészségügyi Központ és Egyetemi Oktató Kórház"/>
            <address>
               <line value="Csabai kapu 9-11"/>
               <city value="Miskolc"/>
               <postalCode value="3529"/>
               <country value="Hungary"/>
            </address>
         </Organization>
      </resource>
   </entry>
   <entry>
      <fullUrl value="urn:uuid:a59a597a-63c4-4f3e-a7a3-cd212b1d32ec"/>
      <resource>
         <Specimen>
            <id value="a59a597a-63c4-4f3e-a7a3-cd212b1d32ec"/>
            <meta>
               <profile value="http://hl7.eu/fhir/laboratory/StructureDefinition/Specimen-eu-lab"/>
            </meta>
            <text>
               <status value="generated"/>
               <div xmlns="http://www.w3.org/1999/xhtml">
                  <table class="hl7__eu__lab__report">
                     <tr>
                        <th>Specimen</th>
                        <th>Collection Date</th>
                     </tr>
                     <tr>
                        <td>Whole blood specimen (specimen)</td>
                        <td>
                           <span class="nb">19-Jun-2017</span>
                        </td>
                     </tr>
                  </table>
               </div>
            </text>
            <type>
               <coding>
                  <system value="http://snomed.info/sct"/>
                  <code value="258580003"/>
                  <display value="Whole blood specimen (specimen)"/>
               </coding>
            </type>
            <collection>
               <collectedDateTime value="2017-06-19"/>
            </collection>
         </Specimen>
      </resource>
   </entry>
   <entry>
      <fullUrl value="urn:uuid:a59a597a-63c4-4f3e-a7a3-cd212b1d32ec"/>
      <resource>
         <Specimen>
            <id value="a59a597a-63c4-4f3e-a7a3-cd212b1d32ec"/>
            <meta>
               <profile value="http://hl7.eu/fhir/laboratory/StructureDefinition/Specimen-eu-lab"/>
            </meta>
            <text>
               <status value="generated"/>
               <div xmlns="http://www.w3.org/1999/xhtml">
                  <table class="hl7__eu__lab__report">
                     <tr>
                        <th>Specimen</th>
                        <th>Collection Date</th>
                     </tr>
                     <tr>
                        <td>Whole blood specimen (specimen)</td>
                        <td>
                           <span class="nb">19-Jun-2017</span>
                        </td>
                     </tr>
                  </table>
               </div>
            </text>
            <type>
               <coding>
                  <system value="http://snomed.info/sct"/>
                  <code value="258580003"/>
                  <display value="Whole blood specimen (specimen)"/>
               </coding>
            </type>
            <collection>
               <collectedDateTime value="2017-06-19"/>
            </collection>
         </Specimen>
      </resource>
   </entry>
   <entry>
      <fullUrl value="urn:uuid:f4a36417-9a65-485e-8de3-88e5454d7fdc"/>
      <resource>
         <Specimen>
            <id value="f4a36417-9a65-485e-8de3-88e5454d7fdc"/>
            <meta>
               <profile value="http://hl7.eu/fhir/laboratory/StructureDefinition/Specimen-eu-lab"/>
            </meta>
            <text>
               <status value="generated"/>
               <div xmlns="http://www.w3.org/1999/xhtml">
                  <table class="hl7__eu__lab__report">
                     <tr>
                        <th>Specimen</th>
                        <th>Collection Date</th>
                     </tr>
                     <tr>
                        <td>Acellular blood (serum or plasma) specimen</td>
                        <td>
                           <span class="nb">19-Jun-2017</span>
                        </td>
                     </tr>
                  </table>
               </div>
            </text>
            <type>
               <coding>
                  <system value="http://snomed.info/sct"/>
                  <code value="122592007"/>
                  <display value="Acellular blood (serum or plasma) specimen"/>
               </coding>
            </type>
            <collection>
               <collectedDateTime value="2017-06-19"/>
            </collection>
         </Specimen>
      </resource>
   </entry>
   <entry>
      <fullUrl value="urn:uuid:4b0dd126-4d8b-476c-8ccf-9afb572e596b"/>
      <resource>
         <Specimen>
            <id value="4b0dd126-4d8b-476c-8ccf-9afb572e596b"/>
            <meta>
               <profile value="http://hl7.eu/fhir/laboratory/StructureDefinition/Specimen-eu-lab"/>
            </meta>
            <text>
               <status value="generated"/>
               <div xmlns="http://www.w3.org/1999/xhtml">
                  <table class="hl7__eu__lab__report">
                     <tr>
                        <th>Specimen</th>
                        <th>Collection Date</th>
                     </tr>
                     <tr>
                        <td>Platelet poor plasma specimen</td>
                        <td>
                           <span class="nb">19-Jun-2017</span>
                        </td>
                     </tr>
                  </table>
               </div>
            </text>
            <type>
               <coding>
                  <system value="http://snomed.info/sct"/>
                  <code value="119362004"/>
                  <display value="Platelet poor plasma specimen"/>
               </coding>
            </type>
            <collection>
               <collectedDateTime value="2017-06-19"/>
            </collection>
         </Specimen>
      </resource>
   </entry>
   <entry>
      <fullUrl value="urn:uuid:ff4a2e18-6ce5-49e7-bd05-2b6216cfcdc9"/>
      <resource>
         <Specimen>
            <id value="ff4a2e18-6ce5-49e7-bd05-2b6216cfcdc9"/>
            <meta>
               <profile value="http://hl7.eu/fhir/laboratory/StructureDefinition/Specimen-eu-lab"/>
            </meta>
            <text>
               <status value="generated"/>
               <div xmlns="http://www.w3.org/1999/xhtml">
                  <table class="hl7__eu__lab__report">
                     <tr>
                        <th>Specimen</th>
                        <th>Collection Date</th>
                     </tr>
                     <tr>
                        <td>Arterial blood specimen</td>
                        <td>
                           <span class="nb">19-Jun-2017</span>
                        </td>
                     </tr>
                  </table>
               </div>
            </text>
            <type>
               <coding>
                  <system value="http://snomed.info/sct"/>
                  <code value="122552005"/>
                  <display value="Arterial blood specimen"/>
               </coding>
            </type>
            <collection>
               <collectedDateTime value="2017-06-19"/>
            </collection>
         </Specimen>
      </resource>
   </entry>
   <entry>
      <fullUrl value="urn:uuid:b8fef19e-0190-4630-bdf2-5114cef03d1b"/>
      <resource>
         <Observation>
            <id value="b8fef19e-0190-4630-bdf2-5114cef03d1b"/>
            <meta>
               <profile value="http://hl7.eu/fhir/laboratory/StructureDefinition/Observation-resultslab-eu-lab"/>
            </meta>
            <text>
               <status value="generated"/>
               <div xmlns="http://www.w3.org/1999/xhtml">
                  <table class="hl7__eu__lab__report">
                     <tr>
                        <th>Test</th>
                        <th>19-Jun-2017</th>
                        <th>Reference Range</th>
                        <th>Unit</th>
                     </tr>
                     <tr>
                        <td>Leukocytes [#/volume] in Blood by Automated count</td>
                        <td>4.9</td>
                        <td>4 - 11</td>
                        <td/>
                        <td>10*3/uL</td>
                     </tr>
                  </table>
               </div>
            </text>
            <status value="final"/>
            <category>
               <coding>
                  <system value="http://terminology.hl7.org/CodeSystem/observation-category"/>
                  <code value="laboratory"/>
               </coding>
            </category>
            <code>
               <coding>
                  <system value="http://loinc.org"/>
                  <code value="6690-2"/>
                  <display value="Leukocytes [#/volume] in Blood by Automated count"/>
               </coding>
               <text value="Leukocytes [#/volume] in Blood by Automated count"/>
            </code>
            <subject>
               <reference value="urn:uuid:0528b881-9bea-4b75-9dc2-8e94cbf3f2b1"/>
               <display value="Magdolna Balog"/>
            </subject>
            <effectiveDateTime value="2017-06-19T15:32:25Z"/>
            <performer>
               <display value="The Central European Lab"/>
            </performer>
            <valueQuantity>
               <value value="4.9"/>
               <unit value="10*3/uL"/>
               <system value="http://unitsofmeasure.org"/>
               <code value="10*3/uL"/>
            </valueQuantity>
            <specimen>
               <reference value="urn:uuid:a59a597a-63c4-4f3e-a7a3-cd212b1d32ec"/>
            </specimen>
            <referenceRange>
               <low>
                  <value value="4"/>
                  <system value="http://unitsofmeasure.org"/>
                  <code value="10*3/uL"/>
               </low>
            </referenceRange>
            <referenceRange>
               <high>
                  <value value="11"/>
                  <system value="http://unitsofmeasure.org"/>
                  <code value="10*3/uL"/>
               </high>
            </referenceRange>
         </Observation>
      </resource>
   </entry>
   <entry>
      <fullUrl value="urn:uuid:04017ba4-0b4f-4985-97d6-0e941afb764c"/>
      <resource>
         <Observation>
            <id value="04017ba4-0b4f-4985-97d6-0e941afb764c"/>
            <meta>
               <profile value="http://hl7.eu/fhir/laboratory/StructureDefinition/Observation-resultslab-eu-lab"/>
            </meta>
            <text>
               <status value="generated"/>
               <div xmlns="http://www.w3.org/1999/xhtml">
                  <table class="hl7__eu__lab__report">
                     <tr>
                        <th>Test</th>
                        <th>19-Jun-2017</th>
                        <th>Reference Range</th>
                        <th>Unit</th>
                     </tr>
                     <tr>
                        <td>Erythrocytes [#/volume] in Blood by Automated count</td>
                        <td>4.5</td>
                        <td>4.2 - 5.8</td>
                        <td/>
                        <td>10*6/uL</td>
                     </tr>
                  </table>
               </div>
            </text>
            <status value="final"/>
            <category>
               <coding>
                  <system value="http://terminology.hl7.org/CodeSystem/observation-category"/>
                  <code value="laboratory"/>
               </coding>
            </category>
            <code>
               <coding>
                  <system value="http://loinc.org"/>
                  <code value="789-8"/>
                  <display value="Erythrocytes [#/volume] in Blood by Automated count"/>
               </coding>
               <text value="Erythrocytes [#/volume] in Blood by Automated count"/>
            </code>
            <subject>
               <reference value="urn:uuid:0528b881-9bea-4b75-9dc2-8e94cbf3f2b1"/>
               <display value="Magdolna Balog"/>
            </subject>
            <effectiveDateTime value="2017-06-19T15:32:25Z"/>
            <performer>
               <display value="The Central European Lab"/>
            </performer>
            <valueQuantity>
               <value value="4.5"/>
               <unit value="10*6/uL"/>
               <system value="http://unitsofmeasure.org"/>
               <code value="10*6/uL"/>
            </valueQuantity>
            <specimen>
               <reference value="urn:uuid:a59a597a-63c4-4f3e-a7a3-cd212b1d32ec"/>
            </specimen>
            <referenceRange>
               <low>
                  <value value="4.2"/>
                  <system value="http://unitsofmeasure.org"/>
                  <code value="10*6/uL"/>
               </low>
            </referenceRange>
            <referenceRange>
               <high>
                  <value value="5.8"/>
                  <system value="http://unitsofmeasure.org"/>
                  <code value="10*6/uL"/>
               </high>
            </referenceRange>
         </Observation>
      </resource>
   </entry>
   <entry>
      <fullUrl value="urn:uuid:3f5d10d2-fe22-42b3-bbbf-346eb2f0112b"/>
      <resource>
         <Observation>
            <id value="3f5d10d2-fe22-42b3-bbbf-346eb2f0112b"/>
            <meta>
               <profile value="http://hl7.eu/fhir/laboratory/StructureDefinition/Observation-resultslab-eu-lab"/>
            </meta>
            <text>
               <status value="generated"/>
               <div xmlns="http://www.w3.org/1999/xhtml">
                  <table class="hl7__eu__lab__report">
                     <tr>
                        <th>Test</th>
                        <th>19-Jun-2017</th>
                        <th>Reference Range</th>
                        <th>Unit</th>
                     </tr>
                     <tr>
                        <td>Hemoglobin [Mass/volume] in Blood</td>
                        <td>16.0</td>
                        <td>12 - 16</td>
                        <td/>
                        <td>g/dL</td>
                     </tr>
                  </table>
               </div>
            </text>
            <status value="final"/>
            <category>
               <coding>
                  <system value="http://terminology.hl7.org/CodeSystem/observation-category"/>
                  <code value="laboratory"/>
               </coding>
            </category>
            <code>
               <coding>
                  <system value="http://loinc.org"/>
                  <code value="718-7"/>
                  <display value="Hemoglobin [Mass/volume] in Blood"/>
               </coding>
               <text value="Hemoglobin [Mass/volume] in Blood"/>
            </code>
            <subject>
               <reference value="urn:uuid:0528b881-9bea-4b75-9dc2-8e94cbf3f2b1"/>
               <display value="Magdolna Balog"/>
            </subject>
            <effectiveDateTime value="2017-06-19T15:32:25Z"/>
            <performer>
               <display value="The Central European Lab"/>
            </performer>
            <valueQuantity>
               <value value="16"/>
               <unit value="g/dL"/>
               <system value="http://unitsofmeasure.org"/>
               <code value="g/dL"/>
            </valueQuantity>
            <specimen>
               <reference value="urn:uuid:a59a597a-63c4-4f3e-a7a3-cd212b1d32ec"/>
            </specimen>
            <referenceRange>
               <low>
                  <value value="12"/>
                  <system value="http://unitsofmeasure.org"/>
                  <code value="g/dL"/>
               </low>
            </referenceRange>
            <referenceRange>
               <high>
                  <value value="16"/>
                  <system value="http://unitsofmeasure.org"/>
                  <code value="g/dL"/>
               </high>
            </referenceRange>
         </Observation>
      </resource>
   </entry>
   <entry>
      <fullUrl value="urn:uuid:ad5d5187-9e28-493a-97c7-6f4711ef89fa"/>
      <resource>
         <Observation>
            <id value="ad5d5187-9e28-493a-97c7-6f4711ef89fa"/>
            <meta>
               <profile value="http://hl7.eu/fhir/laboratory/StructureDefinition/Observation-resultslab-eu-lab"/>
            </meta>
            <text>
               <status value="generated"/>
               <div xmlns="http://www.w3.org/1999/xhtml">
                  <table class="hl7__eu__lab__report">
                     <tr>
                        <th>Test</th>
                        <th>19-Jun-2017</th>
                        <th>Reference Range</th>
                        <th>Unit</th>
                     </tr>
                     <tr>
                        <td>Hematocrit [Volume Fraction] of Blood by Automated count</td>
                        <td>45.9</td>
                        <td>36 - 48</td>
                        <td/>
                        <td>%</td>
                     </tr>
                  </table>
               </div>
            </text>
            <status value="final"/>
            <category>
               <coding>
                  <system value="http://terminology.hl7.org/CodeSystem/observation-category"/>
                  <code value="laboratory"/>
               </coding>
            </category>
            <code>
               <coding>
                  <system value="http://loinc.org"/>
                  <code value="4544-3"/>
                  <display value="Hematocrit [Volume Fraction] of Blood by Automated count"/>
               </coding>
               <text value="Hematocrit [Volume Fraction] of Blood by Automated count"/>
            </code>
            <subject>
               <reference value="urn:uuid:0528b881-9bea-4b75-9dc2-8e94cbf3f2b1"/>
               <display value="Magdolna Balog"/>
            </subject>
            <effectiveDateTime value="2017-06-19T15:32:25Z"/>
            <performer>
               <display value="The Central European Lab"/>
            </performer>
            <valueQuantity>
               <value value="45.9"/>
               <unit value="%"/>
               <system value="http://unitsofmeasure.org"/>
               <code value="%"/>
            </valueQuantity>
            <specimen>
               <reference value="urn:uuid:a59a597a-63c4-4f3e-a7a3-cd212b1d32ec"/>
            </specimen>
            <referenceRange>
               <low>
                  <value value="36"/>
                  <system value="http://unitsofmeasure.org"/>
                  <code value="%"/>
               </low>
            </referenceRange>
            <referenceRange>
               <high>
                  <value value="48"/>
                  <system value="http://unitsofmeasure.org"/>
                  <code value="%"/>
               </high>
            </referenceRange>
         </Observation>
      </resource>
   </entry>
   <entry>
      <fullUrl value="urn:uuid:b0af697b-556a-4f58-a17c-0902f91ddd05"/>
      <resource>
         <Observation>
            <id value="b0af697b-556a-4f58-a17c-0902f91ddd05"/>
            <meta>
               <profile value="http://hl7.eu/fhir/laboratory/StructureDefinition/Observation-resultslab-eu-lab"/>
            </meta>
            <text>
               <status value="generated"/>
               <div xmlns="http://www.w3.org/1999/xhtml">
                  <table class="hl7__eu__lab__report">
                     <tr>
                        <th>Test</th>
                        <th>19-Jun-2017</th>
                        <th>Reference Range</th>
                        <th>Unit</th>
                     </tr>
                     <tr>
                        <td>MCV [Entitic volume] by Automated count</td>
                        <td>84.9</td>
                        <td>78 - 98</td>
                        <td/>
                        <td>fL</td>
                     </tr>
                  </table>
               </div>
            </text>
            <status value="final"/>
            <category>
               <coding>
                  <system value="http://terminology.hl7.org/CodeSystem/observation-category"/>
                  <code value="laboratory"/>
               </coding>
            </category>
            <code>
               <coding>
                  <system value="http://loinc.org"/>
                  <code value="787-2"/>
                  <display value="MCV [Entitic volume] by Automated count"/>
               </coding>
               <text value="MCV [Entitic volume] by Automated count"/>
            </code>
            <subject>
               <reference value="urn:uuid:0528b881-9bea-4b75-9dc2-8e94cbf3f2b1"/>
               <display value="Magdolna Balog"/>
            </subject>
            <effectiveDateTime value="2017-06-19T15:32:25Z"/>
            <performer>
               <display value="The Central European Lab"/>
            </performer>
            <valueQuantity>
               <value value="84.9"/>
               <unit value="fL"/>
               <system value="http://unitsofmeasure.org"/>
               <code value="fL"/>
            </valueQuantity>
            <specimen>
               <reference value="urn:uuid:a59a597a-63c4-4f3e-a7a3-cd212b1d32ec"/>
            </specimen>
            <referenceRange>
               <low>
                  <value value="78"/>
                  <system value="http://unitsofmeasure.org"/>
                  <code value="fL"/>
               </low>
            </referenceRange>
            <referenceRange>
               <high>
                  <value value="98"/>
                  <system value="http://unitsofmeasure.org"/>
                  <code value="fL"/>
               </high>
            </referenceRange>
         </Observation>
      </resource>
   </entry>
   <entry>
      <fullUrl value="urn:uuid:413fc8f7-db96-44a3-a160-dc64a3a208bd"/>
      <resource>
         <Observation>
            <id value="413fc8f7-db96-44a3-a160-dc64a3a208bd"/>
            <meta>
               <profile value="http://hl7.eu/fhir/laboratory/StructureDefinition/Observation-resultslab-eu-lab"/>
            </meta>
            <text>
               <status value="generated"/>
               <div xmlns="http://www.w3.org/1999/xhtml">
                  <table class="hl7__eu__lab__report">
                     <tr>
                        <th>Test</th>
                        <th>19-Jun-2017</th>
                        <th>Reference Range</th>
                        <th>Unit</th>
                     </tr>
                     <tr>
                        <td>MCH [Entitic mass] by Automated count</td>
                        <td>32.2</td>
                        <td>27 - 34.5</td>
                        <td/>
                        <td>pg</td>
                     </tr>
                  </table>
               </div>
            </text>
            <status value="final"/>
            <category>
               <coding>
                  <system value="http://terminology.hl7.org/CodeSystem/observation-category"/>
                  <code value="laboratory"/>
               </coding>
            </category>
            <code>
               <coding>
                  <system value="http://loinc.org"/>
                  <code value="785-6"/>
                  <display value="MCH [Entitic mass] by Automated count"/>
               </coding>
               <text value="MCH [Entitic mass] by Automated count"/>
            </code>
            <subject>
               <reference value="urn:uuid:0528b881-9bea-4b75-9dc2-8e94cbf3f2b1"/>
               <display value="Magdolna Balog"/>
            </subject>
            <effectiveDateTime value="2017-06-19T15:32:25Z"/>
            <performer>
               <display value="The Central European Lab"/>
            </performer>
            <valueQuantity>
               <value value="32.2"/>
               <unit value="pg"/>
               <system value="http://unitsofmeasure.org"/>
               <code value="pg"/>
            </valueQuantity>
            <specimen>
               <reference value="urn:uuid:a59a597a-63c4-4f3e-a7a3-cd212b1d32ec"/>
            </specimen>
            <referenceRange>
               <low>
                  <value value="27"/>
                  <system value="http://unitsofmeasure.org"/>
                  <code value="pg"/>
               </low>
            </referenceRange>
            <referenceRange>
               <high>
                  <value value="34.5"/>
                  <system value="http://unitsofmeasure.org"/>
                  <code value="pg"/>
               </high>
            </referenceRange>
         </Observation>
      </resource>
   </entry>
   <entry>
      <fullUrl value="urn:uuid:1d9c47ba-bcec-4f98-bc73-7ade8ff263fc"/>
      <resource>
         <Observation>
            <id value="1d9c47ba-bcec-4f98-bc73-7ade8ff263fc"/>
            <meta>
               <profile value="http://hl7.eu/fhir/laboratory/StructureDefinition/Observation-resultslab-eu-lab"/>
            </meta>
            <text>
               <status value="generated"/>
               <div xmlns="http://www.w3.org/1999/xhtml">
                  <table class="hl7__eu__lab__report">
                     <tr>
                        <th>Test</th>
                        <th>19-Jun-2017</th>
                        <th>Reference Range</th>
                        <th>Unit</th>
                     </tr>
                     <tr>
                        <td>MCHC [Mass/volume] by Automated count</td>
                        <td>32.9</td>
                        <td>31.5 - 35.5</td>
                        <td/>
                        <td>g/dL</td>
                     </tr>
                  </table>
               </div>
            </text>
            <status value="final"/>
            <category>
               <coding>
                  <system value="http://terminology.hl7.org/CodeSystem/observation-category"/>
                  <code value="laboratory"/>
               </coding>
            </category>
            <code>
               <coding>
                  <system value="http://loinc.org"/>
                  <code value="786-4"/>
                  <display value="MCHC [Mass/volume] by Automated count"/>
               </coding>
               <text value="MCHC [Mass/volume] by Automated count"/>
            </code>
            <subject>
               <reference value="urn:uuid:0528b881-9bea-4b75-9dc2-8e94cbf3f2b1"/>
               <display value="Magdolna Balog"/>
            </subject>
            <effectiveDateTime value="2017-06-19T15:32:25Z"/>
            <performer>
               <display value="The Central European Lab"/>
            </performer>
            <valueQuantity>
               <value value="32.9"/>
               <unit value="g/dL"/>
               <system value="http://unitsofmeasure.org"/>
               <code value="g/dL"/>
            </valueQuantity>
            <specimen>
               <reference value="urn:uuid:a59a597a-63c4-4f3e-a7a3-cd212b1d32ec"/>
            </specimen>
            <referenceRange>
               <low>
                  <value value="31.5"/>
                  <system value="http://unitsofmeasure.org"/>
                  <code value="g/dL"/>
               </low>
            </referenceRange>
            <referenceRange>
               <high>
                  <value value="35.5"/>
                  <system value="http://unitsofmeasure.org"/>
                  <code value="g/dL"/>
               </high>
            </referenceRange>
         </Observation>
      </resource>
   </entry>
   <entry>
      <fullUrl value="urn:uuid:df872f57-f634-4c7a-8bd3-a5d9cb9f3647"/>
      <resource>
         <Observation>
            <id value="df872f57-f634-4c7a-8bd3-a5d9cb9f3647"/>
            <meta>
               <profile value="http://hl7.eu/fhir/laboratory/StructureDefinition/Observation-resultslab-eu-lab"/>
            </meta>
            <text>
               <status value="generated"/>
               <div xmlns="http://www.w3.org/1999/xhtml">
                  <table class="hl7__eu__lab__report">
                     <tr>
                        <th>Test</th>
                        <th>19-Jun-2017</th>
                        <th>Reference Range</th>
                        <th>Unit</th>
                     </tr>
                     <tr>
                        <td>Erythrocyte distribution width [Ratio] by Automated count</td>
                        <td>13.3</td>
                        <td>11.5 - 16</td>
                        <td/>
                        <td>%</td>
                     </tr>
                  </table>
               </div>
            </text>
            <status value="final"/>
            <category>
               <coding>
                  <system value="http://terminology.hl7.org/CodeSystem/observation-category"/>
                  <code value="laboratory"/>
               </coding>
            </category>
            <code>
               <coding>
                  <system value="http://loinc.org"/>
                  <code value="788-0"/>
                  <display value="Erythrocyte distribution width [Ratio] by Automated count"/>
               </coding>
               <text value="Erythrocyte distribution width [Ratio] by Automated count"/>
            </code>
            <subject>
               <reference value="urn:uuid:0528b881-9bea-4b75-9dc2-8e94cbf3f2b1"/>
               <display value="Magdolna Balog"/>
            </subject>
            <effectiveDateTime value="2017-06-19T15:32:25Z"/>
            <performer>
               <display value="The Central European Lab"/>
            </performer>
            <valueQuantity>
               <value value="13.3"/>
               <unit value="%"/>
               <system value="http://unitsofmeasure.org"/>
               <code value="%"/>
            </valueQuantity>
            <specimen>
               <reference value="urn:uuid:a59a597a-63c4-4f3e-a7a3-cd212b1d32ec"/>
            </specimen>
            <referenceRange>
               <low>
                  <value value="11.5"/>
                  <system value="http://unitsofmeasure.org"/>
                  <code value="%"/>
               </low>
            </referenceRange>
            <referenceRange>
               <high>
                  <value value="16"/>
                  <system value="http://unitsofmeasure.org"/>
                  <code value="%"/>
               </high>
            </referenceRange>
         </Observation>
      </resource>
   </entry>
   <entry>
      <fullUrl value="urn:uuid:65bb2bdb-282d-40e0-8531-7647777bb94b"/>
      <resource>
         <Observation>
            <id value="65bb2bdb-282d-40e0-8531-7647777bb94b"/>
            <meta>
               <profile value="http://hl7.eu/fhir/laboratory/StructureDefinition/Observation-resultslab-eu-lab"/>
            </meta>
            <text>
               <status value="generated"/>
               <div xmlns="http://www.w3.org/1999/xhtml">
                  <table class="hl7__eu__lab__report">
                     <tr>
                        <th>Test</th>
                        <th>19-Jun-2017</th>
                        <th>Reference Range</th>
                        <th>Unit</th>
                     </tr>
                     <tr>
                        <td>Platelets [#/volume] in Blood by Automated count</td>
                        <td>296.5</td>
                        <td>150 - 350</td>
                        <td/>
                        <td>10*3/uL</td>
                     </tr>
                  </table>
               </div>
            </text>
            <status value="final"/>
            <category>
               <coding>
                  <system value="http://terminology.hl7.org/CodeSystem/observation-category"/>
                  <code value="laboratory"/>
               </coding>
            </category>
            <code>
               <coding>
                  <system value="http://loinc.org"/>
                  <code value="777-3"/>
                  <display value="Platelets [#/volume] in Blood by Automated count"/>
               </coding>
               <text value="Platelets [#/volume] in Blood by Automated count"/>
            </code>
            <subject>
               <reference value="urn:uuid:0528b881-9bea-4b75-9dc2-8e94cbf3f2b1"/>
               <display value="Magdolna Balog"/>
            </subject>
            <effectiveDateTime value="2017-06-19T15:32:25Z"/>
            <performer>
               <display value="The Central European Lab"/>
            </performer>
            <valueQuantity>
               <value value="296.5"/>
               <unit value="10*3/uL"/>
               <system value="http://unitsofmeasure.org"/>
               <code value="10*3/uL"/>
            </valueQuantity>
            <specimen>
               <reference value="urn:uuid:a59a597a-63c4-4f3e-a7a3-cd212b1d32ec"/>
            </specimen>
            <referenceRange>
               <low>
                  <value value="150"/>
                  <system value="http://unitsofmeasure.org"/>
                  <code value="10*3/uL"/>
               </low>
            </referenceRange>
            <referenceRange>
               <high>
                  <value value="350"/>
                  <system value="http://unitsofmeasure.org"/>
                  <code value="10*3/uL"/>
               </high>
            </referenceRange>
         </Observation>
      </resource>
   </entry>
   <entry>
      <fullUrl value="urn:uuid:4e120ec7-0935-4f4b-85fc-5c6758c2856a"/>
      <resource>
         <Observation>
            <id value="4e120ec7-0935-4f4b-85fc-5c6758c2856a"/>
            <meta>
               <profile value="http://hl7.eu/fhir/laboratory/StructureDefinition/Observation-resultslab-eu-lab"/>
            </meta>
            <text>
               <status value="generated"/>
               <div xmlns="http://www.w3.org/1999/xhtml">
                  <table class="hl7__eu__lab__report">
                     <tr>
                        <th>Test</th>
                        <th>19-Jun-2017</th>
                        <th>Reference Range</th>
                        <th>Unit</th>
                     </tr>
                     <tr>
                        <td>Glucose [Mass/volume] in Serum or Plasma</td>
                        <td>83.3</td>
                        <td>70 - 140</td>
                        <td/>
                        <td>mg/dL</td>
                     </tr>
                  </table>
               </div>
            </text>
            <status value="final"/>
            <category>
               <coding>
                  <system value="http://terminology.hl7.org/CodeSystem/observation-category"/>
                  <code value="laboratory"/>
               </coding>
            </category>
            <code>
               <coding>
                  <system value="http://loinc.org"/>
                  <code value="2345-7"/>
                  <display value="Glucose [Mass/volume] in Serum or Plasma"/>
               </coding>
               <text value="Glucose [Mass/volume] in Serum or Plasma"/>
            </code>
            <subject>
               <reference value="urn:uuid:0528b881-9bea-4b75-9dc2-8e94cbf3f2b1"/>
               <display value="Magdolna Balog"/>
            </subject>
            <effectiveDateTime value="2017-06-19T15:32:25Z"/>
            <performer>
               <display value="The Central European Lab"/>
            </performer>
            <valueQuantity>
               <value value="83.3"/>
               <unit value="mg/dL"/>
               <system value="http://unitsofmeasure.org"/>
               <code value="mg/dL"/>
            </valueQuantity>
            <specimen>
               <reference value="urn:uuid:f4a36417-9a65-485e-8de3-88e5454d7fdc"/>
            </specimen>
            <referenceRange>
               <low>
                  <value value="70"/>
                  <system value="http://unitsofmeasure.org"/>
                  <code value="mg/dL"/>
               </low>
            </referenceRange>
            <referenceRange>
               <high>
                  <value value="140"/>
                  <system value="http://unitsofmeasure.org"/>
                  <code value="mg/dL"/>
               </high>
            </referenceRange>
         </Observation>
      </resource>
   </entry>
   <entry>
      <fullUrl value="urn:uuid:31ea9d75-f1d8-4e91-8f0d-b3b5728febc6"/>
      <resource>
         <Observation>
            <id value="31ea9d75-f1d8-4e91-8f0d-b3b5728febc6"/>
            <meta>
               <profile value="http://hl7.eu/fhir/laboratory/StructureDefinition/Observation-resultslab-eu-lab"/>
            </meta>
            <text>
               <status value="generated"/>
               <div xmlns="http://www.w3.org/1999/xhtml">
                  <table class="hl7__eu__lab__report">
                     <tr>
                        <th>Test</th>
                        <th>19-Jun-2017</th>
                        <th>Reference Range</th>
                        <th>Unit</th>
                     </tr>
                     <tr>
                        <td>Urea nitrogen [Mass/volume] in Serum or Plasma</td>
                        <td>16.7</td>
                        <td>7 - 25</td>
                        <td/>
                        <td>mg/dL</td>
                     </tr>
                  </table>
               </div>
            </text>
            <status value="final"/>
            <category>
               <coding>
                  <system value="http://terminology.hl7.org/CodeSystem/observation-category"/>
                  <code value="laboratory"/>
               </coding>
            </category>
            <code>
               <coding>
                  <system value="http://loinc.org"/>
                  <code value="3094-0"/>
                  <display value="Urea nitrogen [Mass/volume] in Serum or Plasma"/>
               </coding>
               <text value="Urea nitrogen [Mass/volume] in Serum or Plasma"/>
            </code>
            <subject>
               <reference value="urn:uuid:0528b881-9bea-4b75-9dc2-8e94cbf3f2b1"/>
               <display value="Magdolna Balog"/>
            </subject>
            <effectiveDateTime value="2017-06-19T15:32:25Z"/>
            <performer>
               <display value="The Central European Lab"/>
            </performer>
            <valueQuantity>
               <value value="16.7"/>
               <unit value="mg/dL"/>
               <system value="http://unitsofmeasure.org"/>
               <code value="mg/dL"/>
            </valueQuantity>
            <specimen>
               <reference value="urn:uuid:f4a36417-9a65-485e-8de3-88e5454d7fdc"/>
            </specimen>
            <referenceRange>
               <low>
                  <value value="7"/>
                  <system value="http://unitsofmeasure.org"/>
                  <code value="mg/dL"/>
               </low>
            </referenceRange>
            <referenceRange>
               <high>
                  <value value="25"/>
                  <system value="http://unitsofmeasure.org"/>
                  <code value="mg/dL"/>
               </high>
            </referenceRange>
         </Observation>
      </resource>
   </entry>
   <entry>
      <fullUrl value="urn:uuid:80b993bf-a775-4b75-baa5-bcb14db24934"/>
      <resource>
         <Observation>
            <id value="80b993bf-a775-4b75-baa5-bcb14db24934"/>
            <meta>
               <profile value="http://hl7.eu/fhir/laboratory/StructureDefinition/Observation-resultslab-eu-lab"/>
            </meta>
            <text>
               <status value="generated"/>
               <div xmlns="http://www.w3.org/1999/xhtml">
                  <table class="hl7__eu__lab__report">
                     <tr>
                        <th>Test</th>
                        <th>19-Jun-2017</th>
                        <th>Reference Range</th>
                        <th>Unit</th>
                     </tr>
                     <tr>
                        <td>Creatinine [Mass/volume] in Serum or Plasma</td>
                        <td>2.8</td>
                        <td>0.6 - 1.1</td>
                        <td>H</td>
                        <td>mg/dL</td>
                     </tr>
                  </table>
               </div>
            </text>
            <status value="final"/>
            <category>
               <coding>
                  <system value="http://terminology.hl7.org/CodeSystem/observation-category"/>
                  <code value="laboratory"/>
               </coding>
            </category>
            <code>
               <coding>
                  <system value="http://loinc.org"/>
                  <code value="2160-0"/>
                  <display value="Creatinine [Mass/volume] in Serum or Plasma"/>
               </coding>
               <text value="Creatinine [Mass/volume] in Serum or Plasma"/>
            </code>
            <subject>
               <reference value="urn:uuid:0528b881-9bea-4b75-9dc2-8e94cbf3f2b1"/>
               <display value="Magdolna Balog"/>
            </subject>
            <effectiveDateTime value="2017-06-19T15:32:25Z"/>
            <performer>
               <display value="The Central European Lab"/>
            </performer>
            <valueQuantity>
               <value value="2.8"/>
               <unit value="mg/dL"/>
               <system value="http://unitsofmeasure.org"/>
               <code value="mg/dL"/>
            </valueQuantity>
            <interpretation>
               <coding>
                  <system value="http://terminology.hl7.org/CodeSystem/v3-ObservationInterpretation"/>
                  <code value="H"/>
                  <display value="High"/>
               </coding>
            </interpretation>
            <specimen>
               <reference value="urn:uuid:f4a36417-9a65-485e-8de3-88e5454d7fdc"/>
            </specimen>
            <referenceRange>
               <low>
                  <value value="0.6"/>
                  <system value="http://unitsofmeasure.org"/>
                  <code value="mg/dL"/>
               </low>
            </referenceRange>
            <referenceRange>
               <high>
                  <value value="1.1"/>
                  <system value="http://unitsofmeasure.org"/>
                  <code value="mg/dL"/>
               </high>
            </referenceRange>
         </Observation>
      </resource>
   </entry>
   <entry>
      <fullUrl value="urn:uuid:798f8cb8-2650-4284-8b0a-1f05b197b2cd"/>
      <resource>
         <Observation>
            <id value="798f8cb8-2650-4284-8b0a-1f05b197b2cd"/>
            <meta>
               <profile value="http://hl7.eu/fhir/laboratory/StructureDefinition/Observation-resultslab-eu-lab"/>
            </meta>
            <text>
               <status value="generated"/>
               <div xmlns="http://www.w3.org/1999/xhtml">
                  <table class="hl7__eu__lab__report">
                     <tr>
                        <th>Test</th>
                        <th>19-Jun-2017</th>
                        <th>Reference Range</th>
                        <th>Unit</th>
                     </tr>
                     <tr>
                        <td>Calcium [Mass/volume] in Serum or Plasma</td>
                        <td>10.2</td>
                        <td>8.5 - 10.4</td>
                        <td/>
                        <td>mg/dL</td>
                     </tr>
                  </table>
               </div>
            </text>
            <status value="final"/>
            <category>
               <coding>
                  <system value="http://terminology.hl7.org/CodeSystem/observation-category"/>
                  <code value="laboratory"/>
               </coding>
            </category>
            <code>
               <coding>
                  <system value="http://loinc.org"/>
                  <code value="17861-6"/>
                  <display value="Calcium [Mass/volume] in Serum or Plasma"/>
               </coding>
               <text value="Calcium [Mass/volume] in Serum or Plasma"/>
            </code>
            <subject>
               <reference value="urn:uuid:0528b881-9bea-4b75-9dc2-8e94cbf3f2b1"/>
               <display value="Magdolna Balog"/>
            </subject>
            <effectiveDateTime value="2017-06-19T15:32:25Z"/>
            <performer>
               <display value="The Central European Lab"/>
            </performer>
            <valueQuantity>
               <value value="10.2"/>
               <unit value="mg/dL"/>
               <system value="http://unitsofmeasure.org"/>
               <code value="mg/dL"/>
            </valueQuantity>
            <specimen>
               <reference value="urn:uuid:f4a36417-9a65-485e-8de3-88e5454d7fdc"/>
            </specimen>
            <referenceRange>
               <low>
                  <value value="8.5"/>
                  <system value="http://unitsofmeasure.org"/>
                  <code value="mg/dL"/>
               </low>
            </referenceRange>
            <referenceRange>
               <high>
                  <value value="10.4"/>
                  <system value="http://unitsofmeasure.org"/>
                  <code value="mg/dL"/>
               </high>
            </referenceRange>
         </Observation>
      </resource>
   </entry>
   <entry>
      <fullUrl value="urn:uuid:a1e02e8c-a368-4361-ac0a-7bb2a7c36311"/>
      <resource>
         <Observation>
            <id value="a1e02e8c-a368-4361-ac0a-7bb2a7c36311"/>
            <meta>
               <profile value="http://hl7.eu/fhir/laboratory/StructureDefinition/Observation-resultslab-eu-lab"/>
            </meta>
            <text>
               <status value="generated"/>
               <div xmlns="http://www.w3.org/1999/xhtml">
                  <table class="hl7__eu__lab__report">
                     <tr>
                        <th>Test</th>
                        <th>19-Jun-2017</th>
                        <th>Reference Range</th>
                        <th>Unit</th>
                     </tr>
                     <tr>
                        <td>Sodium [Moles/volume] in Serum or Plasma</td>
                        <td>142.6</td>
                        <td>135 - 145</td>
                        <td/>
                        <td>mmol/L</td>
                     </tr>
                  </table>
               </div>
            </text>
            <status value="final"/>
            <category>
               <coding>
                  <system value="http://terminology.hl7.org/CodeSystem/observation-category"/>
                  <code value="laboratory"/>
               </coding>
            </category>
            <code>
               <coding>
                  <system value="http://loinc.org"/>
                  <code value="2951-2"/>
                  <display value="Sodium [Moles/volume] in Serum or Plasma"/>
               </coding>
               <text value="Sodium [Moles/volume] in Serum or Plasma"/>
            </code>
            <subject>
               <reference value="urn:uuid:0528b881-9bea-4b75-9dc2-8e94cbf3f2b1"/>
               <display value="Magdolna Balog"/>
            </subject>
            <effectiveDateTime value="2017-06-19T15:32:25Z"/>
            <performer>
               <display value="The Central European Lab"/>
            </performer>
            <valueQuantity>
               <value value="142.6"/>
               <unit value="mmol/L"/>
               <system value="http://unitsofmeasure.org"/>
               <code value="mmol/L"/>
            </valueQuantity>
            <specimen>
               <reference value="urn:uuid:f4a36417-9a65-485e-8de3-88e5454d7fdc"/>
            </specimen>
            <referenceRange>
               <low>
                  <value value="135"/>
                  <system value="http://unitsofmeasure.org"/>
                  <code value="mmol/L"/>
               </low>
            </referenceRange>
            <referenceRange>
               <high>
                  <value value="145"/>
                  <system value="http://unitsofmeasure.org"/>
                  <code value="mmol/L"/>
               </high>
            </referenceRange>
         </Observation>
      </resource>
   </entry>
   <entry>
      <fullUrl value="urn:uuid:65314fa4-277e-40b9-891c-28284b307ed1"/>
      <resource>
         <Observation>
            <id value="65314fa4-277e-40b9-891c-28284b307ed1"/>
            <meta>
               <profile value="http://hl7.eu/fhir/laboratory/StructureDefinition/Observation-resultslab-eu-lab"/>
            </meta>
            <text>
               <status value="generated"/>
               <div xmlns="http://www.w3.org/1999/xhtml">
                  <table class="hl7__eu__lab__report">
                     <tr>
                        <th>Test</th>
                        <th>19-Jun-2017</th>
                        <th>Reference Range</th>
                        <th>Unit</th>
                     </tr>
                     <tr>
                        <td>Potassium [Moles/volume] in Serum or Plasma</td>
                        <td>4.0</td>
                        <td>3.5 - 5.3</td>
                        <td/>
                        <td>mmol/L</td>
                     </tr>
                  </table>
               </div>
            </text>
            <status value="final"/>
            <category>
               <coding>
                  <system value="http://terminology.hl7.org/CodeSystem/observation-category"/>
                  <code value="laboratory"/>
               </coding>
            </category>
            <code>
               <coding>
                  <system value="http://loinc.org"/>
                  <code value="2823-3"/>
                  <display value="Potassium [Moles/volume] in Serum or Plasma"/>
               </coding>
               <text value="Potassium [Moles/volume] in Serum or Plasma"/>
            </code>
            <subject>
               <reference value="urn:uuid:0528b881-9bea-4b75-9dc2-8e94cbf3f2b1"/>
               <display value="Magdolna Balog"/>
            </subject>
            <effectiveDateTime value="2017-06-19T15:32:25Z"/>
            <performer>
               <display value="The Central European Lab"/>
            </performer>
            <valueQuantity>
               <value value="4"/>
               <unit value="mmol/L"/>
               <system value="http://unitsofmeasure.org"/>
               <code value="mmol/L"/>
            </valueQuantity>
            <specimen>
               <reference value="urn:uuid:f4a36417-9a65-485e-8de3-88e5454d7fdc"/>
            </specimen>
            <referenceRange>
               <low>
                  <value value="3.5"/>
                  <system value="http://unitsofmeasure.org"/>
                  <code value="mmol/L"/>
               </low>
            </referenceRange>
            <referenceRange>
               <high>
                  <value value="5.3"/>
                  <system value="http://unitsofmeasure.org"/>
                  <code value="mmol/L"/>
               </high>
            </referenceRange>
         </Observation>
      </resource>
   </entry>
   <entry>
      <fullUrl value="urn:uuid:0f00b0c2-b1d7-4919-be9d-cf743b256a7f"/>
      <resource>
         <Observation>
            <id value="0f00b0c2-b1d7-4919-be9d-cf743b256a7f"/>
            <meta>
               <profile value="http://hl7.eu/fhir/laboratory/StructureDefinition/Observation-resultslab-eu-lab"/>
            </meta>
            <text>
               <status value="generated"/>
               <div xmlns="http://www.w3.org/1999/xhtml">
                  <table class="hl7__eu__lab__report">
                     <tr>
                        <th>Test</th>
                        <th>19-Jun-2017</th>
                        <th>Reference Range</th>
                        <th>Unit</th>
                     </tr>
                     <tr>
                        <td>Chloride [Moles/volume] in Serum or Plasma</td>
                        <td>105.7</td>
                        <td>98 - 108</td>
                        <td/>
                        <td>mmol/L</td>
                     </tr>
                  </table>
               </div>
            </text>
            <status value="final"/>
            <category>
               <coding>
                  <system value="http://terminology.hl7.org/CodeSystem/observation-category"/>
                  <code value="laboratory"/>
               </coding>
            </category>
            <code>
               <coding>
                  <system value="http://loinc.org"/>
                  <code value="2075-0"/>
                  <display value="Chloride [Moles/volume] in Serum or Plasma"/>
               </coding>
               <text value="Chloride [Moles/volume] in Serum or Plasma"/>
            </code>
            <subject>
               <reference value="urn:uuid:0528b881-9bea-4b75-9dc2-8e94cbf3f2b1"/>
               <display value="Magdolna Balog"/>
            </subject>
            <effectiveDateTime value="2017-06-19T15:32:25Z"/>
            <performer>
               <display value="The Central European Lab"/>
            </performer>
            <valueQuantity>
               <value value="105.7"/>
               <unit value="mmol/L"/>
               <system value="http://unitsofmeasure.org"/>
               <code value="mmol/L"/>
            </valueQuantity>
            <specimen>
               <reference value="urn:uuid:f4a36417-9a65-485e-8de3-88e5454d7fdc"/>
            </specimen>
            <referenceRange>
               <low>
                  <value value="98"/>
                  <system value="http://unitsofmeasure.org"/>
                  <code value="mmol/L"/>
               </low>
            </referenceRange>
            <referenceRange>
               <high>
                  <value value="108"/>
                  <system value="http://unitsofmeasure.org"/>
                  <code value="mmol/L"/>
               </high>
            </referenceRange>
         </Observation>
      </resource>
   </entry>
   <entry>
      <fullUrl value="urn:uuid:b6337aaf-2596-41bc-8af9-6f21da88f2d0"/>
      <resource>
         <Observation>
            <id value="b6337aaf-2596-41bc-8af9-6f21da88f2d0"/>
            <meta>
               <profile value="http://hl7.eu/fhir/laboratory/StructureDefinition/Observation-resultslab-eu-lab"/>
            </meta>
            <text>
               <status value="generated"/>
               <div xmlns="http://www.w3.org/1999/xhtml">
                  <table class="hl7__eu__lab__report">
                     <tr>
                        <th>Test</th>
                        <th>19-Jun-2017</th>
                        <th>Reference Range</th>
                        <th>Unit</th>
                     </tr>
                     <tr>
                        <td>Carbon dioxide, total [Moles/volume] in Serum or Plasma</td>
                        <td>25.6</td>
                        <td>22 - 29</td>
                        <td/>
                        <td>mmol/L</td>
                     </tr>
                  </table>
               </div>
            </text>
            <status value="final"/>
            <category>
               <coding>
                  <system value="http://terminology.hl7.org/CodeSystem/observation-category"/>
                  <code value="laboratory"/>
               </coding>
            </category>
            <code>
               <coding>
                  <system value="http://loinc.org"/>
                  <code value="2028-9"/>
                  <display value="Carbon dioxide, total [Moles/volume] in Serum or Plasma"/>
               </coding>
               <text value="Carbon dioxide, total [Moles/volume] in Serum or Plasma"/>
            </code>
            <subject>
               <reference value="urn:uuid:0528b881-9bea-4b75-9dc2-8e94cbf3f2b1"/>
               <display value="Magdolna Balog"/>
            </subject>
            <effectiveDateTime value="2017-06-19T15:32:25Z"/>
            <performer>
               <display value="The Central European Lab"/>
            </performer>
            <valueQuantity>
               <value value="25.6"/>
               <unit value="mmol/L"/>
               <system value="http://unitsofmeasure.org"/>
               <code value="mmol/L"/>
            </valueQuantity>
            <specimen>
               <reference value="urn:uuid:f4a36417-9a65-485e-8de3-88e5454d7fdc"/>
            </specimen>
            <referenceRange>
               <low>
                  <value value="22"/>
                  <system value="http://unitsofmeasure.org"/>
                  <code value="mmol/L"/>
               </low>
            </referenceRange>
            <referenceRange>
               <high>
                  <value value="29"/>
                  <system value="http://unitsofmeasure.org"/>
                  <code value="mmol/L"/>
               </high>
            </referenceRange>
         </Observation>
      </resource>
   </entry>
   <entry>
      <fullUrl value="urn:uuid:ac6f9ceb-76f2-4705-acfa-89711bb346e9"/>
      <resource>
         <Observation>
            <id value="ac6f9ceb-76f2-4705-acfa-89711bb346e9"/>
            <meta>
               <profile value="http://hl7.eu/fhir/laboratory/StructureDefinition/Observation-resultslab-eu-lab"/>
            </meta>
            <text>
               <status value="generated"/>
               <div xmlns="http://www.w3.org/1999/xhtml">
                  <table class="hl7__eu__lab__report">
                     <tr>
                        <th>Test</th>
                        <th>19-Jun-2017</th>
                        <th>Reference Range</th>
                        <th>Unit</th>
                     </tr>
                     <tr>
                        <td>Protein [Mass/volume] in Serum or Plasma</td>
                        <td>7.1</td>
                        <td>6 - 8.3</td>
                        <td/>
                        <td>g/dL</td>
                     </tr>
                  </table>
               </div>
            </text>
            <status value="final"/>
            <category>
               <coding>
                  <system value="http://terminology.hl7.org/CodeSystem/observation-category"/>
                  <code value="laboratory"/>
               </coding>
            </category>
            <code>
               <coding>
                  <system value="http://loinc.org"/>
                  <code value="2885-2"/>
                  <display value="Protein [Mass/volume] in Serum or Plasma"/>
               </coding>
               <text value="Protein [Mass/volume] in Serum or Plasma"/>
            </code>
            <subject>
               <reference value="urn:uuid:0528b881-9bea-4b75-9dc2-8e94cbf3f2b1"/>
               <display value="Magdolna Balog"/>
            </subject>
            <effectiveDateTime value="2017-06-19T15:32:25Z"/>
            <performer>
               <display value="The Central European Lab"/>
            </performer>
            <valueQuantity>
               <value value="7.1"/>
               <unit value="g/dL"/>
               <system value="http://unitsofmeasure.org"/>
               <code value="g/dL"/>
            </valueQuantity>
            <specimen>
               <reference value="urn:uuid:f4a36417-9a65-485e-8de3-88e5454d7fdc"/>
            </specimen>
            <referenceRange>
               <low>
                  <value value="6"/>
                  <system value="http://unitsofmeasure.org"/>
                  <code value="g/dL"/>
               </low>
            </referenceRange>
            <referenceRange>
               <high>
                  <value value="8.3"/>
                  <system value="http://unitsofmeasure.org"/>
                  <code value="g/dL"/>
               </high>
            </referenceRange>
         </Observation>
      </resource>
   </entry>
   <entry>
      <fullUrl value="urn:uuid:7b9f1901-4b70-4f2c-92e1-a0cd614e9958"/>
      <resource>
         <Observation>
            <id value="7b9f1901-4b70-4f2c-92e1-a0cd614e9958"/>
            <meta>
               <profile value="http://hl7.eu/fhir/laboratory/StructureDefinition/Observation-resultslab-eu-lab"/>
            </meta>
            <text>
               <status value="generated"/>
               <div xmlns="http://www.w3.org/1999/xhtml">
                  <table class="hl7__eu__lab__report">
                     <tr>
                        <th>Test</th>
                        <th>19-Jun-2017</th>
                        <th>Reference Range</th>
                        <th>Unit</th>
                     </tr>
                     <tr>
                        <td>Albumin [Mass/volume] in Serum or Plasma</td>
                        <td>4.5</td>
                        <td>3.5 - 5.5</td>
                        <td/>
                        <td>g/dL</td>
                     </tr>
                  </table>
               </div>
            </text>
            <status value="final"/>
            <category>
               <coding>
                  <system value="http://terminology.hl7.org/CodeSystem/observation-category"/>
                  <code value="laboratory"/>
               </coding>
            </category>
            <code>
               <coding>
                  <system value="http://loinc.org"/>
                  <code value="1751-7"/>
                  <display value="Albumin [Mass/volume] in Serum or Plasma"/>
               </coding>
               <text value="Albumin [Mass/volume] in Serum or Plasma"/>
            </code>
            <subject>
               <reference value="urn:uuid:0528b881-9bea-4b75-9dc2-8e94cbf3f2b1"/>
               <display value="Magdolna Balog"/>
            </subject>
            <effectiveDateTime value="2017-06-19T15:32:25Z"/>
            <performer>
               <display value="The Central European Lab"/>
            </performer>
            <valueQuantity>
               <value value="4.5"/>
               <unit value="g/dL"/>
               <system value="http://unitsofmeasure.org"/>
               <code value="g/dL"/>
            </valueQuantity>
            <specimen>
               <reference value="urn:uuid:f4a36417-9a65-485e-8de3-88e5454d7fdc"/>
            </specimen>
            <referenceRange>
               <low>
                  <value value="3.5"/>
                  <system value="http://unitsofmeasure.org"/>
                  <code value="g/dL"/>
               </low>
            </referenceRange>
            <referenceRange>
               <high>
                  <value value="5.5"/>
                  <system value="http://unitsofmeasure.org"/>
                  <code value="g/dL"/>
               </high>
            </referenceRange>
         </Observation>
      </resource>
   </entry>
   <entry>
      <fullUrl value="urn:uuid:9e8d19a9-f5f7-44b3-b19a-af65ce975836"/>
      <resource>
         <Observation>
            <id value="9e8d19a9-f5f7-44b3-b19a-af65ce975836"/>
            <meta>
               <profile value="http://hl7.eu/fhir/laboratory/StructureDefinition/Observation-resultslab-eu-lab"/>
            </meta>
            <text>
               <status value="generated"/>
               <div xmlns="http://www.w3.org/1999/xhtml">
                  <table class="hl7__eu__lab__report">
                     <tr>
                        <th>Test</th>
                        <th>19-Jun-2017</th>
                        <th>Reference Range</th>
                        <th>Unit</th>
                     </tr>
                     <tr>
                        <td>Bilirubin.total [Mass/volume] in Serum or Plasma</td>
                        <td>11.9</td>
                        <td>0.3 - 1.2</td>
                        <td>H</td>
                        <td>mg/dL</td>
                     </tr>
                  </table>
               </div>
            </text>
            <status value="final"/>
            <category>
               <coding>
                  <system value="http://terminology.hl7.org/CodeSystem/observation-category"/>
                  <code value="laboratory"/>
               </coding>
            </category>
            <code>
               <coding>
                  <system value="http://loinc.org"/>
                  <code value="1975-2"/>
                  <display value="Bilirubin.total [Mass/volume] in Serum or Plasma"/>
               </coding>
               <text value="Bilirubin.total [Mass/volume] in Serum or Plasma"/>
            </code>
            <subject>
               <reference value="urn:uuid:0528b881-9bea-4b75-9dc2-8e94cbf3f2b1"/>
               <display value="Magdolna Balog"/>
            </subject>
            <effectiveDateTime value="2017-06-19T15:32:25Z"/>
            <performer>
               <display value="The Central European Lab"/>
            </performer>
            <valueQuantity>
               <value value="11.9"/>
               <unit value="mg/dL"/>
               <system value="http://unitsofmeasure.org"/>
               <code value="mg/dL"/>
            </valueQuantity>
            <interpretation>
               <coding>
                  <system value="http://terminology.hl7.org/CodeSystem/v3-ObservationInterpretation"/>
                  <code value="H"/>
                  <display value="High"/>
               </coding>
            </interpretation>
            <specimen>
               <reference value="urn:uuid:f4a36417-9a65-485e-8de3-88e5454d7fdc"/>
            </specimen>
            <referenceRange>
               <low>
                  <value value="0.3"/>
                  <system value="http://unitsofmeasure.org"/>
                  <code value="mg/dL"/>
               </low>
            </referenceRange>
            <referenceRange>
               <high>
                  <value value="1.2"/>
                  <system value="http://unitsofmeasure.org"/>
                  <code value="mg/dL"/>
               </high>
            </referenceRange>
         </Observation>
      </resource>
   </entry>
   <entry>
      <fullUrl value="urn:uuid:e98d7d91-b205-49c9-9e43-4d647d9ac50d"/>
      <resource>
         <Observation>
            <id value="e98d7d91-b205-49c9-9e43-4d647d9ac50d"/>
            <meta>
               <profile value="http://hl7.eu/fhir/laboratory/StructureDefinition/Observation-resultslab-eu-lab"/>
            </meta>
            <text>
               <status value="generated"/>
               <div xmlns="http://www.w3.org/1999/xhtml">
                  <table class="hl7__eu__lab__report">
                     <tr>
                        <th>Test</th>
                        <th>19-Jun-2017</th>
                        <th>Reference Range</th>
                        <th>Unit</th>
                     </tr>
                     <tr>
                        <td>Alkaline phosphatase [Enzymatic activity/volume] in Serum or Plasma</td>
                        <td>46.4</td>
                        <td>35 - 270</td>
                        <td/>
                        <td>U/L</td>
                     </tr>
                  </table>
               </div>
            </text>
            <status value="final"/>
            <category>
               <coding>
                  <system value="http://terminology.hl7.org/CodeSystem/observation-category"/>
                  <code value="laboratory"/>
               </coding>
            </category>
            <code>
               <coding>
                  <system value="http://loinc.org"/>
                  <code value="6768-6"/>
                  <display value="Alkaline phosphatase [Enzymatic activity/volume] in Serum or Plasma"/>
               </coding>
               <text value="Alkaline phosphatase [Enzymatic activity/volume] in Serum or Plasma"/>
            </code>
            <subject>
               <reference value="urn:uuid:0528b881-9bea-4b75-9dc2-8e94cbf3f2b1"/>
               <display value="Magdolna Balog"/>
            </subject>
            <effectiveDateTime value="2017-06-19T15:32:25Z"/>
            <performer>
               <display value="The Central European Lab"/>
            </performer>
            <valueQuantity>
               <value value="46.4"/>
               <unit value="U/L"/>
               <system value="http://unitsofmeasure.org"/>
               <code value="U/L"/>
            </valueQuantity>
            <specimen>
               <reference value="urn:uuid:f4a36417-9a65-485e-8de3-88e5454d7fdc"/>
            </specimen>
            <referenceRange>
               <low>
                  <value value="35"/>
                  <system value="http://unitsofmeasure.org"/>
                  <code value="U/L"/>
               </low>
            </referenceRange>
            <referenceRange>
               <high>
                  <value value="270"/>
                  <system value="http://unitsofmeasure.org"/>
                  <code value="U/L"/>
               </high>
            </referenceRange>
         </Observation>
      </resource>
   </entry>
   <entry>
      <fullUrl value="urn:uuid:b8a2427d-9b53-4dc8-a27a-3e8706432c99"/>
      <resource>
         <Observation>
            <id value="b8a2427d-9b53-4dc8-a27a-3e8706432c99"/>
            <meta>
               <profile value="http://hl7.eu/fhir/laboratory/StructureDefinition/Observation-resultslab-eu-lab"/>
            </meta>
            <text>
               <status value="generated"/>
               <div xmlns="http://www.w3.org/1999/xhtml">
                  <table class="hl7__eu__lab__report">
                     <tr>
                        <th>Test</th>
                        <th>19-Jun-2017</th>
                        <th>Reference Range</th>
                        <th>Unit</th>
                     </tr>
                     <tr>
                        <td>Alanine aminotransferase [Enzymatic activity/volume] in Serum or Plasma</td>
                        <td>30.6</td>
                        <td>7 - 60</td>
                        <td/>
                        <td>U/L</td>
                     </tr>
                  </table>
               </div>
            </text>
            <status value="final"/>
            <category>
               <coding>
                  <system value="http://terminology.hl7.org/CodeSystem/observation-category"/>
                  <code value="laboratory"/>
               </coding>
            </category>
            <code>
               <coding>
                  <system value="http://loinc.org"/>
                  <code value="1742-6"/>
                  <display value="Alanine aminotransferase [Enzymatic activity/volume] in Serum or Plasma"/>
               </coding>
               <text value="Alanine aminotransferase [Enzymatic activity/volume] in Serum or Plasma"/>
            </code>
            <subject>
               <reference value="urn:uuid:0528b881-9bea-4b75-9dc2-8e94cbf3f2b1"/>
               <display value="Magdolna Balog"/>
            </subject>
            <effectiveDateTime value="2017-06-19T15:32:25Z"/>
            <performer>
               <display value="The Central European Lab"/>
            </performer>
            <valueQuantity>
               <value value="30.6"/>
               <unit value="U/L"/>
               <system value="http://unitsofmeasure.org"/>
               <code value="U/L"/>
            </valueQuantity>
            <specimen>
               <reference value="urn:uuid:f4a36417-9a65-485e-8de3-88e5454d7fdc"/>
            </specimen>
            <referenceRange>
               <low>
                  <value value="7"/>
                  <system value="http://unitsofmeasure.org"/>
                  <code value="U/L"/>
               </low>
            </referenceRange>
            <referenceRange>
               <high>
                  <value value="60"/>
                  <system value="http://unitsofmeasure.org"/>
                  <code value="U/L"/>
               </high>
            </referenceRange>
         </Observation>
      </resource>
   </entry>
   <entry>
      <fullUrl value="urn:uuid:3e555b2b-9d2d-4eef-ba9b-9974ae853863"/>
      <resource>
         <Observation>
            <id value="3e555b2b-9d2d-4eef-ba9b-9974ae853863"/>
            <meta>
               <profile value="http://hl7.eu/fhir/laboratory/StructureDefinition/Observation-resultslab-eu-lab"/>
            </meta>
            <text>
               <status value="generated"/>
               <div xmlns="http://www.w3.org/1999/xhtml">
                  <table class="hl7__eu__lab__report">
                     <tr>
                        <th>Test</th>
                        <th>19-Jun-2017</th>
                        <th>Reference Range</th>
                        <th>Unit</th>
                     </tr>
                     <tr>
                        <td>Aspartate aminotransferase [Enzymatic activity/volume] in Serum or Plasma</td>
                        <td>38.4</td>
                        <td>10 - 40</td>
                        <td/>
                        <td>U/L</td>
                     </tr>
                  </table>
               </div>
            </text>
            <status value="final"/>
            <category>
               <coding>
                  <system value="http://terminology.hl7.org/CodeSystem/observation-category"/>
                  <code value="laboratory"/>
               </coding>
            </category>
            <code>
               <coding>
                  <system value="http://loinc.org"/>
                  <code value="1920-8"/>
                  <display value="Aspartate aminotransferase [Enzymatic activity/volume] in Serum or Plasma"/>
               </coding>
               <text value="Aspartate aminotransferase [Enzymatic activity/volume] in Serum or Plasma"/>
            </code>
            <subject>
               <reference value="urn:uuid:0528b881-9bea-4b75-9dc2-8e94cbf3f2b1"/>
               <display value="Magdolna Balog"/>
            </subject>
            <effectiveDateTime value="2017-06-19T15:32:25Z"/>
            <performer>
               <display value="The Central European Lab"/>
            </performer>
            <valueQuantity>
               <value value="38.4"/>
               <unit value="U/L"/>
               <system value="http://unitsofmeasure.org"/>
               <code value="U/L"/>
            </valueQuantity>
            <specimen>
               <reference value="urn:uuid:f4a36417-9a65-485e-8de3-88e5454d7fdc"/>
            </specimen>
            <referenceRange>
               <low>
                  <value value="10"/>
                  <system value="http://unitsofmeasure.org"/>
                  <code value="U/L"/>
               </low>
            </referenceRange>
            <referenceRange>
               <high>
                  <value value="40"/>
                  <system value="http://unitsofmeasure.org"/>
                  <code value="U/L"/>
               </high>
            </referenceRange>
         </Observation>
      </resource>
   </entry>
   <entry>
      <fullUrl value="urn:uuid:205ef295-aa84-4802-a8b8-860190c052df"/>
      <resource>
         <Observation>
            <id value="205ef295-aa84-4802-a8b8-860190c052df"/>
            <meta>
               <profile value="http://hl7.eu/fhir/laboratory/StructureDefinition/Observation-resultslab-eu-lab"/>
            </meta>
            <text>
               <status value="generated"/>
               <div xmlns="http://www.w3.org/1999/xhtml">
                  <table class="hl7__eu__lab__report">
                     <tr>
                        <th>Test</th>
                        <th>19-Jun-2017</th>
                        <th>Reference Range</th>
                        <th>Unit</th>
                     </tr>
                     <tr>
                        <td>Magnesium [Mass/volume] in Serum or Plasma</td>
                        <td>1.9</td>
                        <td>1.6 - 2.3</td>
                        <td/>
                        <td>mg/dL</td>
                     </tr>
                  </table>
               </div>
            </text>
            <status value="final"/>
            <category>
               <coding>
                  <system value="http://terminology.hl7.org/CodeSystem/observation-category"/>
                  <code value="laboratory"/>
               </coding>
            </category>
            <code>
               <coding>
                  <system value="http://loinc.org"/>
                  <code value="19123-9"/>
                  <display value="Magnesium [Mass/volume] in Serum or Plasma"/>
               </coding>
               <text value="Magnesium [Mass/volume] in Serum or Plasma"/>
            </code>
            <subject>
               <reference value="urn:uuid:0528b881-9bea-4b75-9dc2-8e94cbf3f2b1"/>
               <display value="Magdolna Balog"/>
            </subject>
            <effectiveDateTime value="2017-06-19T15:32:25Z"/>
            <performer>
               <display value="The Central European Lab"/>
            </performer>
            <valueQuantity>
               <value value="1.9"/>
               <unit value="mg/dL"/>
               <system value="http://unitsofmeasure.org"/>
               <code value="mg/dL"/>
            </valueQuantity>
            <specimen>
               <reference value="urn:uuid:f4a36417-9a65-485e-8de3-88e5454d7fdc"/>
            </specimen>
            <referenceRange>
               <low>
                  <value value="1.6"/>
                  <system value="http://unitsofmeasure.org"/>
                  <code value="mg/dL"/>
               </low>
            </referenceRange>
            <referenceRange>
               <high>
                  <value value="2.3"/>
                  <system value="http://unitsofmeasure.org"/>
                  <code value="mg/dL"/>
               </high>
            </referenceRange>
         </Observation>
      </resource>
   </entry>
   <entry>
      <fullUrl value="urn:uuid:229913f2-fa45-4c27-b494-d3405a3b94f9"/>
      <resource>
         <Observation>
            <id value="229913f2-fa45-4c27-b494-d3405a3b94f9"/>
            <meta>
               <profile value="http://hl7.eu/fhir/laboratory/StructureDefinition/Observation-resultslab-eu-lab"/>
            </meta>
            <text>
               <status value="generated"/>
               <div xmlns="http://www.w3.org/1999/xhtml">
                  <table class="hl7__eu__lab__report">
                     <tr>
                        <th>Test</th>
                        <th>19-Jun-2017</th>
                        <th>Reference Range</th>
                        <th>Unit</th>
                     </tr>
                     <tr>
                        <td>Phosphate [Mass/volume] in Serum or Plasma</td>
                        <td>2.8</td>
                        <td>2.5 - 4.5</td>
                        <td/>
                        <td>mg/dL</td>
                     </tr>
                  </table>
               </div>
            </text>
            <status value="final"/>
            <category>
               <coding>
                  <system value="http://terminology.hl7.org/CodeSystem/observation-category"/>
                  <code value="laboratory"/>
               </coding>
            </category>
            <code>
               <coding>
                  <system value="http://loinc.org"/>
                  <code value="2777-1"/>
                  <display value="Phosphate [Mass/volume] in Serum or Plasma"/>
               </coding>
               <text value="Phosphate [Mass/volume] in Serum or Plasma"/>
            </code>
            <subject>
               <reference value="urn:uuid:0528b881-9bea-4b75-9dc2-8e94cbf3f2b1"/>
               <display value="Magdolna Balog"/>
            </subject>
            <effectiveDateTime value="2017-06-19T15:32:25Z"/>
            <performer>
               <display value="The Central European Lab"/>
            </performer>
            <valueQuantity>
               <value value="2.8"/>
               <unit value="mg/dL"/>
               <system value="http://unitsofmeasure.org"/>
               <code value="mg/dL"/>
            </valueQuantity>
            <specimen>
               <reference value="urn:uuid:f4a36417-9a65-485e-8de3-88e5454d7fdc"/>
            </specimen>
            <referenceRange>
               <low>
                  <value value="2.5"/>
                  <system value="http://unitsofmeasure.org"/>
                  <code value="mg/dL"/>
               </low>
            </referenceRange>
            <referenceRange>
               <high>
                  <value value="4.5"/>
                  <system value="http://unitsofmeasure.org"/>
                  <code value="mg/dL"/>
               </high>
            </referenceRange>
         </Observation>
      </resource>
   </entry>
   <entry>
      <fullUrl value="urn:uuid:4d618119-69d3-4380-b660-6259a50cf913"/>
      <resource>
         <Observation>
            <id value="4d618119-69d3-4380-b660-6259a50cf913"/>
            <meta>
               <profile value="http://hl7.eu/fhir/laboratory/StructureDefinition/Observation-resultslab-eu-lab"/>
            </meta>
            <text>
               <status value="generated"/>
               <div xmlns="http://www.w3.org/1999/xhtml">
                  <table class="hl7__eu__lab__report">
                     <tr>
                        <th>Test</th>
                        <th>19-Jun-2017</th>
                        <th>Reference Range</th>
                        <th>Unit</th>
                     </tr>
                     <tr>
                        <td>Prothrombin time (PT)</td>
                        <td>11.3</td>
                        <td>11 - 15</td>
                        <td/>
                        <td>s</td>
                     </tr>
                  </table>
               </div>
            </text>
            <status value="final"/>
            <category>
               <coding>
                  <system value="http://terminology.hl7.org/CodeSystem/observation-category"/>
                  <code value="laboratory"/>
               </coding>
            </category>
            <code>
               <coding>
                  <system value="http://loinc.org"/>
                  <code value="5902-2"/>
                  <display value="Prothrombin time (PT)"/>
               </coding>
               <text value="Prothrombin time (PT)"/>
            </code>
            <subject>
               <reference value="urn:uuid:0528b881-9bea-4b75-9dc2-8e94cbf3f2b1"/>
               <display value="Magdolna Balog"/>
            </subject>
            <effectiveDateTime value="2017-06-19T15:32:25Z"/>
            <performer>
               <display value="The Central European Lab"/>
            </performer>
            <valueQuantity>
               <value value="11.3"/>
               <unit value="s"/>
               <system value="http://unitsofmeasure.org"/>
               <code value="s"/>
            </valueQuantity>
            <specimen>
               <reference value="urn:uuid:4b0dd126-4d8b-476c-8ccf-9afb572e596b"/>
            </specimen>
            <referenceRange>
               <low>
                  <value value="11"/>
                  <system value="http://unitsofmeasure.org"/>
                  <code value="s"/>
               </low>
            </referenceRange>
            <referenceRange>
               <high>
                  <value value="15"/>
                  <system value="http://unitsofmeasure.org"/>
                  <code value="s"/>
               </high>
            </referenceRange>
         </Observation>
      </resource>
   </entry>
   <entry>
      <fullUrl value="urn:uuid:88e19bb3-19d6-4c05-8661-6ffcb5f65d10"/>
      <resource>
         <Observation>
            <id value="88e19bb3-19d6-4c05-8661-6ffcb5f65d10"/>
            <meta>
               <profile value="http://hl7.eu/fhir/laboratory/StructureDefinition/Observation-resultslab-eu-lab"/>
            </meta>
            <text>
               <status value="generated"/>
               <div xmlns="http://www.w3.org/1999/xhtml">
                  <table class="hl7__eu__lab__report">
                     <tr>
                        <th>Test</th>
                        <th>19-Jun-2017</th>
                        <th>Reference Range</th>
                        <th>Unit</th>
                     </tr>
                     <tr>
                        <td>INR in Platelet poor plasma by Coagulation assay</td>
                        <td>1.2</td>
                        <td>0.9 - 3</td>
                        <td/>
                        <td>{INR}</td>
                     </tr>
                  </table>
               </div>
            </text>
            <status value="final"/>
            <category>
               <coding>
                  <system value="http://terminology.hl7.org/CodeSystem/observation-category"/>
                  <code value="laboratory"/>
               </coding>
            </category>
            <code>
               <coding>
                  <system value="http://loinc.org"/>
                  <code value="6301-6"/>
                  <display value="INR in Platelet poor plasma by Coagulation assay"/>
               </coding>
               <text value="INR in Platelet poor plasma by Coagulation assay"/>
            </code>
            <subject>
               <reference value="urn:uuid:0528b881-9bea-4b75-9dc2-8e94cbf3f2b1"/>
               <display value="Magdolna Balog"/>
            </subject>
            <effectiveDateTime value="2017-06-19T15:32:25Z"/>
            <performer>
               <display value="The Central European Lab"/>
            </performer>
            <valueQuantity>
               <value value="1.2"/>
               <unit value="{INR}"/>
               <system value="http://unitsofmeasure.org"/>
               <code value="{INR}"/>
            </valueQuantity>
            <specimen>
               <reference value="urn:uuid:4b0dd126-4d8b-476c-8ccf-9afb572e596b"/>
            </specimen>
            <referenceRange>
               <low>
                  <value value="0.9"/>
                  <system value="http://unitsofmeasure.org"/>
                  <code value="INR"/>
               </low>
            </referenceRange>
            <referenceRange>
               <high>
                  <value value="3"/>
                  <system value="http://unitsofmeasure.org"/>
                  <code value="INR"/>
               </high>
            </referenceRange>
         </Observation>
      </resource>
   </entry>
   <entry>
      <fullUrl value="urn:uuid:3d19b7bf-f4f8-45b6-9da1-1c50b9cc63dc"/>
      <resource>
         <Observation>
            <id value="3d19b7bf-f4f8-45b6-9da1-1c50b9cc63dc"/>
            <meta>
               <profile value="http://hl7.eu/fhir/laboratory/StructureDefinition/Observation-resultslab-eu-lab"/>
            </meta>
            <text>
               <status value="generated"/>
               <div xmlns="http://www.w3.org/1999/xhtml">
                  <table class="hl7__eu__lab__report">
                     <tr>
                        <th>Test</th>
                        <th>19-Jun-2017</th>
                        <th>Reference Range</th>
                        <th>Unit</th>
                     </tr>
                     <tr>
                        <td>aPTT in Blood by Coagulation assay</td>
                        <td>39.6</td>
                        <td>25 - 40</td>
                        <td/>
                        <td>s</td>
                     </tr>
                  </table>
               </div>
            </text>
            <status value="final"/>
            <category>
               <coding>
                  <system value="http://terminology.hl7.org/CodeSystem/observation-category"/>
                  <code value="laboratory"/>
               </coding>
            </category>
            <code>
               <coding>
                  <system value="http://loinc.org"/>
                  <code value="3173-2"/>
                  <display value="aPTT in Blood by Coagulation assay"/>
               </coding>
               <text value="aPTT in Blood by Coagulation assay"/>
            </code>
            <subject>
               <reference value="urn:uuid:0528b881-9bea-4b75-9dc2-8e94cbf3f2b1"/>
               <display value="Magdolna Balog"/>
            </subject>
            <effectiveDateTime value="2017-06-19T15:32:25Z"/>
            <performer>
               <display value="The Central European Lab"/>
            </performer>
            <valueQuantity>
               <value value="39.6"/>
               <unit value="s"/>
               <system value="http://unitsofmeasure.org"/>
               <code value="s"/>
            </valueQuantity>
            <specimen>
               <reference value="urn:uuid:a59a597a-63c4-4f3e-a7a3-cd212b1d32ec"/>
            </specimen>
            <referenceRange>
               <low>
                  <value value="25"/>
                  <system value="http://unitsofmeasure.org"/>
                  <code value="seconds"/>
               </low>
            </referenceRange>
            <referenceRange>
               <high>
                  <value value="40"/>
                  <system value="http://unitsofmeasure.org"/>
                  <code value="seconds"/>
               </high>
            </referenceRange>
         </Observation>
      </resource>
   </entry>
   <entry>
      <fullUrl value="urn:uuid:001ca06c-dddc-4bc6-91d9-1b2ecadfeab3"/>
      <resource>
         <Observation>
            <id value="001ca06c-dddc-4bc6-91d9-1b2ecadfeab3"/>
            <meta>
               <profile value="http://hl7.eu/fhir/laboratory/StructureDefinition/Observation-resultslab-eu-lab"/>
            </meta>
            <text>
               <status value="generated"/>
               <div xmlns="http://www.w3.org/1999/xhtml">
                  <table class="hl7__eu__lab__report">
                     <tr>
                        <th>Test</th>
                        <th>19-Jun-2017</th>
                        <th>Reference Range</th>
                        <th>Unit</th>
                     </tr>
                     <tr>
                        <td>pH of Arterial blood</td>
                        <td>6.9</td>
                        <td>7.35 - 7.45</td>
                        <td>L</td>
                        <td>[pH]</td>
                     </tr>
                  </table>
               </div>
            </text>
            <status value="final"/>
            <category>
               <coding>
                  <system value="http://terminology.hl7.org/CodeSystem/observation-category"/>
                  <code value="laboratory"/>
               </coding>
            </category>
            <code>
               <coding>
                  <system value="http://loinc.org"/>
                  <code value="2744-1"/>
                  <display value="pH of Arterial blood"/>
               </coding>
               <text value="pH of Arterial blood"/>
            </code>
            <subject>
               <reference value="urn:uuid:0528b881-9bea-4b75-9dc2-8e94cbf3f2b1"/>
               <display value="Magdolna Balog"/>
            </subject>
            <effectiveDateTime value="2017-06-19T15:32:25Z"/>
            <performer>
               <display value="The Central European Lab"/>
            </performer>
            <valueQuantity>
               <value value="6.9"/>
               <unit value="[pH]"/>
               <system value="http://unitsofmeasure.org"/>
               <code value="[pH]"/>
            </valueQuantity>
            <interpretation>
               <coding>
                  <system value="http://terminology.hl7.org/CodeSystem/v3-ObservationInterpretation"/>
                  <code value="L"/>
                  <display value="Low"/>
               </coding>
            </interpretation>
            <specimen>
               <reference value="urn:uuid:ff4a2e18-6ce5-49e7-bd05-2b6216cfcdc9"/>
            </specimen>
            <referenceRange>
               <low>
                  <value value="7.35"/>
                  <system value="http://unitsofmeasure.org"/>
                  <code value="pH"/>
               </low>
            </referenceRange>
            <referenceRange>
               <high>
                  <value value="7.45"/>
                  <system value="http://unitsofmeasure.org"/>
                  <code value="pH"/>
               </high>
            </referenceRange>
         </Observation>
      </resource>
   </entry>
   <entry>
      <fullUrl value="urn:uuid:0a93ba9e-ef2a-4b92-9226-a5c0d6a6dfe2"/>
      <resource>
         <Observation>
            <id value="0a93ba9e-ef2a-4b92-9226-a5c0d6a6dfe2"/>
            <meta>
               <profile value="http://hl7.eu/fhir/laboratory/StructureDefinition/Observation-resultslab-eu-lab"/>
            </meta>
            <text>
               <status value="generated"/>
               <div xmlns="http://www.w3.org/1999/xhtml">
                  <table class="hl7__eu__lab__report">
                     <tr>
                        <th>Test</th>
                        <th>19-Jun-2017</th>
                        <th>Reference Range</th>
                        <th>Unit</th>
                     </tr>
                     <tr>
                        <td>Carbon dioxide [Partial pressure] in Arterial blood</td>
                        <td>42.5</td>
                        <td>38 - 48</td>
                        <td/>
                        <td>mm[Hg]</td>
                     </tr>
                  </table>
               </div>
            </text>
            <status value="final"/>
            <category>
               <coding>
                  <system value="http://terminology.hl7.org/CodeSystem/observation-category"/>
                  <code value="laboratory"/>
               </coding>
            </category>
            <code>
               <coding>
                  <system value="http://loinc.org"/>
                  <code value="2019-8"/>
                  <display value="Carbon dioxide [Partial pressure] in Arterial blood"/>
               </coding>
               <text value="Carbon dioxide [Partial pressure] in Arterial blood"/>
            </code>
            <subject>
               <reference value="urn:uuid:0528b881-9bea-4b75-9dc2-8e94cbf3f2b1"/>
               <display value="Magdolna Balog"/>
            </subject>
            <effectiveDateTime value="2017-06-19T15:32:25Z"/>
            <performer>
               <display value="The Central European Lab"/>
            </performer>
            <valueQuantity>
               <value value="42.5"/>
               <unit value="mm[Hg]"/>
               <system value="http://unitsofmeasure.org"/>
               <code value="mm[Hg]"/>
            </valueQuantity>
            <specimen>
               <reference value="urn:uuid:ff4a2e18-6ce5-49e7-bd05-2b6216cfcdc9"/>
            </specimen>
            <referenceRange>
               <low>
                  <value value="38"/>
                  <system value="http://unitsofmeasure.org"/>
                  <code value="mm[Hg]"/>
               </low>
            </referenceRange>
            <referenceRange>
               <high>
                  <value value="48"/>
                  <system value="http://unitsofmeasure.org"/>
                  <code value="mm[Hg]"/>
               </high>
            </referenceRange>
         </Observation>
      </resource>
   </entry>
   <entry>
      <fullUrl value="urn:uuid:ca97838e-3ce3-4c51-ac0d-20574608810e"/>
      <resource>
         <Observation>
            <id value="ca97838e-3ce3-4c51-ac0d-20574608810e"/>
            <meta>
               <profile value="http://hl7.eu/fhir/laboratory/StructureDefinition/Observation-resultslab-eu-lab"/>
            </meta>
            <text>
               <status value="generated"/>
               <div xmlns="http://www.w3.org/1999/xhtml">
                  <table class="hl7__eu__lab__report">
                     <tr>
                        <th>Test</th>
                        <th>19-Jun-2017</th>
                        <th>Reference Range</th>
                        <th>Unit</th>
                     </tr>
                     <tr>
                        <td>Oxygen [Partial pressure] in Arterial blood</td>
                        <td>98.8</td>
                        <td>75 - 100</td>
                        <td/>
                        <td>mm[Hg]</td>
                     </tr>
                  </table>
               </div>
            </text>
            <status value="final"/>
            <category>
               <coding>
                  <system value="http://terminology.hl7.org/CodeSystem/observation-category"/>
                  <code value="laboratory"/>
               </coding>
            </category>
            <code>
               <coding>
                  <system value="http://loinc.org"/>
                  <code value="2703-7"/>
                  <display value="Oxygen [Partial pressure] in Arterial blood"/>
               </coding>
               <text value="Oxygen [Partial pressure] in Arterial blood"/>
            </code>
            <subject>
               <reference value="urn:uuid:0528b881-9bea-4b75-9dc2-8e94cbf3f2b1"/>
               <display value="Magdolna Balog"/>
            </subject>
            <effectiveDateTime value="2017-06-19T15:32:25Z"/>
            <performer>
               <display value="The Central European Lab"/>
            </performer>
            <valueQuantity>
               <value value="98.8"/>
               <unit value="mm[Hg]"/>
               <system value="http://unitsofmeasure.org"/>
               <code value="mm[Hg]"/>
            </valueQuantity>
            <specimen>
               <reference value="urn:uuid:ff4a2e18-6ce5-49e7-bd05-2b6216cfcdc9"/>
            </specimen>
            <referenceRange>
               <low>
                  <value value="75"/>
                  <system value="http://unitsofmeasure.org"/>
                  <code value="mm[Hg]"/>
               </low>
            </referenceRange>
            <referenceRange>
               <high>
                  <value value="100"/>
                  <system value="http://unitsofmeasure.org"/>
                  <code value="mm[Hg]"/>
               </high>
            </referenceRange>
         </Observation>
      </resource>
   </entry>
   <entry>
      <fullUrl value="urn:uuid:03f04fb7-6c4f-4fb4-bfdb-4b5d518a4994"/>
      <resource>
         <Observation>
            <id value="03f04fb7-6c4f-4fb4-bfdb-4b5d518a4994"/>
            <meta>
               <profile value="http://hl7.eu/fhir/laboratory/StructureDefinition/Observation-resultslab-eu-lab"/>
            </meta>
            <text>
               <status value="generated"/>
               <div xmlns="http://www.w3.org/1999/xhtml">
                  <table class="hl7__eu__lab__report">
                     <tr>
                        <th>Test</th>
                        <th>19-Jun-2017</th>
                        <th>Reference Range</th>
                        <th>Unit</th>
                     </tr>
                     <tr>
                        <td>Bicarbonate [Moles/volume] in Arterial blood</td>
                        <td>25.4</td>
                        <td>22 - 31</td>
                        <td/>
                        <td>mmol/L</td>
                     </tr>
                  </table>
               </div>
            </text>
            <status value="final"/>
            <category>
               <coding>
                  <system value="http://terminology.hl7.org/CodeSystem/observation-category"/>
                  <code value="laboratory"/>
               </coding>
            </category>
            <code>
               <coding>
                  <system value="http://loinc.org"/>
                  <code value="1960-4"/>
                  <display value="Bicarbonate [Moles/volume] in Arterial blood"/>
               </coding>
               <text value="Bicarbonate [Moles/volume] in Arterial blood"/>
            </code>
            <subject>
               <reference value="urn:uuid:0528b881-9bea-4b75-9dc2-8e94cbf3f2b1"/>
               <display value="Magdolna Balog"/>
            </subject>
            <effectiveDateTime value="2017-06-19T15:32:25Z"/>
            <performer>
               <display value="The Central European Lab"/>
            </performer>
            <valueQuantity>
               <value value="25.4"/>
               <unit value="mmol/L"/>
               <system value="http://unitsofmeasure.org"/>
               <code value="mmol/L"/>
            </valueQuantity>
            <specimen>
               <reference value="urn:uuid:ff4a2e18-6ce5-49e7-bd05-2b6216cfcdc9"/>
            </specimen>
            <referenceRange>
               <low>
                  <value value="22"/>
                  <system value="http://unitsofmeasure.org"/>
                  <code value="mmol/L"/>
               </low>
            </referenceRange>
            <referenceRange>
               <high>
                  <value value="31"/>
                  <system value="http://unitsofmeasure.org"/>
                  <code value="mmol/L"/>
               </high>
            </referenceRange>
         </Observation>
      </resource>
   </entry>
   <entry>
      <fullUrl value="urn:uuid:a3cbad7c-ffbc-4bb3-b291-bd778bebeadd"/>
      <resource>
         <Observation>
            <id value="a3cbad7c-ffbc-4bb3-b291-bd778bebeadd"/>
            <meta>
               <profile value="http://hl7.eu/fhir/laboratory/StructureDefinition/Observation-resultslab-eu-lab"/>
            </meta>
            <text>
               <status value="generated"/>
               <div xmlns="http://www.w3.org/1999/xhtml">
                  <table class="hl7__eu__lab__report">
                     <tr>
                        <th>Test</th>
                        <th>19-Jun-2017</th>
                        <th>Reference Range</th>
                        <th>Unit</th>
                     </tr>
                     <tr>
                        <td>Oxygen saturation in Arterial blood</td>
                        <td>94.0</td>
                        <td>95 - 100</td>
                        <td>L</td>
                        <td>%</td>
                     </tr>
                  </table>
               </div>
            </text>
            <status value="final"/>
            <category>
               <coding>
                  <system value="http://terminology.hl7.org/CodeSystem/observation-category"/>
                  <code value="laboratory"/>
               </coding>
            </category>
            <code>
               <coding>
                  <system value="http://loinc.org"/>
                  <code value="2708-6"/>
                  <display value="Oxygen saturation in Arterial blood"/>
               </coding>
               <text value="Oxygen saturation in Arterial blood"/>
            </code>
            <subject>
               <reference value="urn:uuid:0528b881-9bea-4b75-9dc2-8e94cbf3f2b1"/>
               <display value="Magdolna Balog"/>
            </subject>
            <effectiveDateTime value="2017-06-19T15:32:25Z"/>
            <performer>
               <display value="The Central European Lab"/>
            </performer>
            <valueQuantity>
               <value value="94"/>
               <unit value="%"/>
               <system value="http://unitsofmeasure.org"/>
               <code value="%"/>
            </valueQuantity>
            <interpretation>
               <coding>
                  <system value="http://terminology.hl7.org/CodeSystem/v3-ObservationInterpretation"/>
                  <code value="L"/>
                  <display value="Low"/>
               </coding>
            </interpretation>
            <specimen>
               <reference value="urn:uuid:ff4a2e18-6ce5-49e7-bd05-2b6216cfcdc9"/>
            </specimen>
            <referenceRange>
               <low>
                  <value value="95"/>
                  <system value="http://unitsofmeasure.org"/>
                  <code value="%"/>
               </low>
            </referenceRange>
            <referenceRange>
               <high>
                  <value value="100"/>
                  <system value="http://unitsofmeasure.org"/>
                  <code value="%"/>
               </high>
            </referenceRange>
         </Observation>
      </resource>
   </entry>
   <entry>
      <fullUrl value="urn:uuid:cbba7c69-51aa-4a59-8b32-64dc61c2ec93"/>
      <resource>
         <Observation>
            <id value="cbba7c69-51aa-4a59-8b32-64dc61c2ec93"/>
            <meta>
               <profile value="http://hl7.eu/fhir/laboratory/StructureDefinition/Observation-resultslab-eu-lab"/>
            </meta>
            <text>
               <status value="generated"/>
               <div xmlns="http://www.w3.org/1999/xhtml">
                  <table class="hl7__eu__lab__report">
                     <tr>
                        <th>Test</th>
                        <th>19-Jun-2017</th>
                        <th>Reference Range</th>
                        <th>Unit</th>
                     </tr>
                     <tr>
                        <td>Cholesterol [Mass/volume] in Serum or Plasma</td>
                        <td>159.4</td>
                        <td>125 - 200</td>
                        <td/>
                        <td>mg/dL</td>
                     </tr>
                  </table>
               </div>
            </text>
            <status value="final"/>
            <category>
               <coding>
                  <system value="http://terminology.hl7.org/CodeSystem/observation-category"/>
                  <code value="laboratory"/>
               </coding>
            </category>
            <code>
               <coding>
                  <system value="http://loinc.org"/>
                  <code value="2093-3"/>
                  <display value="Cholesterol [Mass/volume] in Serum or Plasma"/>
               </coding>
               <text value="Cholesterol [Mass/volume] in Serum or Plasma"/>
            </code>
            <subject>
               <reference value="urn:uuid:0528b881-9bea-4b75-9dc2-8e94cbf3f2b1"/>
               <display value="Magdolna Balog"/>
            </subject>
            <effectiveDateTime value="2017-06-19T15:32:25Z"/>
            <performer>
               <display value="The Central European Lab"/>
            </performer>
            <valueQuantity>
               <value value="159.4"/>
               <unit value="mg/dL"/>
               <system value="http://unitsofmeasure.org"/>
               <code value="mg/dL"/>
            </valueQuantity>
            <specimen>
               <reference value="urn:uuid:f4a36417-9a65-485e-8de3-88e5454d7fdc"/>
            </specimen>
            <referenceRange>
               <low>
                  <value value="125"/>
                  <system value="http://unitsofmeasure.org"/>
                  <code value="mg/dL"/>
               </low>
            </referenceRange>
            <referenceRange>
               <high>
                  <value value="200"/>
                  <system value="http://unitsofmeasure.org"/>
                  <code value="mg/dL"/>
               </high>
            </referenceRange>
         </Observation>
      </resource>
   </entry>
   <entry>
      <fullUrl value="urn:uuid:3509d7f3-f7d2-4560-8a66-b92cd959a732"/>
      <resource>
         <Observation>
            <id value="3509d7f3-f7d2-4560-8a66-b92cd959a732"/>
            <meta>
               <profile value="http://hl7.eu/fhir/laboratory/StructureDefinition/Observation-resultslab-eu-lab"/>
            </meta>
            <text>
               <status value="generated"/>
               <div xmlns="http://www.w3.org/1999/xhtml">
                  <table class="hl7__eu__lab__report">
                     <tr>
                        <th>Test</th>
                        <th>19-Jun-2017</th>
                        <th>Reference Range</th>
                        <th>Unit</th>
                     </tr>
                     <tr>
                        <td>Triglyceride [Mass/volume] in Serum or Plasma</td>
                        <td>126.3</td>
                        <td>0 - 150</td>
                        <td/>
                        <td>mg/dL</td>
                     </tr>
                  </table>
               </div>
            </text>
            <status value="final"/>
            <category>
               <coding>
                  <system value="http://terminology.hl7.org/CodeSystem/observation-category"/>
                  <code value="laboratory"/>
               </coding>
            </category>
            <code>
               <coding>
                  <system value="http://loinc.org"/>
                  <code value="2571-8"/>
                  <display value="Triglyceride [Mass/volume] in Serum or Plasma"/>
               </coding>
               <text value="Triglyceride [Mass/volume] in Serum or Plasma"/>
            </code>
            <subject>
               <reference value="urn:uuid:0528b881-9bea-4b75-9dc2-8e94cbf3f2b1"/>
               <display value="Magdolna Balog"/>
            </subject>
            <effectiveDateTime value="2017-06-19T15:32:25Z"/>
            <performer>
               <display value="The Central European Lab"/>
            </performer>
            <valueQuantity>
               <value value="126.3"/>
               <unit value="mg/dL"/>
               <system value="http://unitsofmeasure.org"/>
               <code value="mg/dL"/>
            </valueQuantity>
            <specimen>
               <reference value="urn:uuid:f4a36417-9a65-485e-8de3-88e5454d7fdc"/>
            </specimen>
            <referenceRange>
               <low>
                  <value value="0"/>
                  <system value="http://unitsofmeasure.org"/>
                  <code value="mg/dL"/>
               </low>
            </referenceRange>
            <referenceRange>
               <high>
                  <value value="150"/>
                  <system value="http://unitsofmeasure.org"/>
                  <code value="mg/dL"/>
               </high>
            </referenceRange>
         </Observation>
      </resource>
   </entry>
   <entry>
      <fullUrl value="urn:uuid:4b6137f3-26de-4518-a3ff-918cfa67b44c"/>
      <resource>
         <Observation>
            <id value="4b6137f3-26de-4518-a3ff-918cfa67b44c"/>
            <meta>
               <profile value="http://hl7.eu/fhir/laboratory/StructureDefinition/Observation-resultslab-eu-lab"/>
            </meta>
            <text>
               <status value="generated"/>
               <div xmlns="http://www.w3.org/1999/xhtml">
                  <table class="hl7__eu__lab__report">
                     <tr>
                        <th>Test</th>
                        <th>19-Jun-2017</th>
                        <th>Reference Range</th>
                        <th>Unit</th>
                     </tr>
                     <tr>
                        <td>Cholesterol in LDL [Mass/volume] in Serum or Plasma by Direct assay</td>
                        <td>79.3</td>
                        <td>0 - 130</td>
                        <td/>
                        <td>mg/dL</td>
                     </tr>
                  </table>
               </div>
            </text>
            <status value="final"/>
            <category>
               <coding>
                  <system value="http://terminology.hl7.org/CodeSystem/observation-category"/>
                  <code value="laboratory"/>
               </coding>
            </category>
            <code>
               <coding>
                  <system value="http://loinc.org"/>
                  <code value="18262-6"/>
                  <display value="Cholesterol in LDL [Mass/volume] in Serum or Plasma by Direct assay"/>
               </coding>
               <text value="Cholesterol in LDL [Mass/volume] in Serum or Plasma by Direct assay"/>
            </code>
            <subject>
               <reference value="urn:uuid:0528b881-9bea-4b75-9dc2-8e94cbf3f2b1"/>
               <display value="Magdolna Balog"/>
            </subject>
            <effectiveDateTime value="2017-06-19T15:32:25Z"/>
            <performer>
               <display value="The Central European Lab"/>
            </performer>
            <valueQuantity>
               <value value="79.3"/>
               <unit value="mg/dL"/>
               <system value="http://unitsofmeasure.org"/>
               <code value="mg/dL"/>
            </valueQuantity>
            <specimen>
               <reference value="urn:uuid:f4a36417-9a65-485e-8de3-88e5454d7fdc"/>
            </specimen>
            <referenceRange>
               <low>
                  <value value="0"/>
                  <system value="http://unitsofmeasure.org"/>
                  <code value="mg/dL"/>
               </low>
            </referenceRange>
            <referenceRange>
               <high>
                  <value value="130"/>
                  <system value="http://unitsofmeasure.org"/>
                  <code value="mg/dL"/>
               </high>
            </referenceRange>
         </Observation>
      </resource>
   </entry>
   <entry>
      <fullUrl value="urn:uuid:0b9ff3c5-d2fa-413f-a0e0-cf493abde878"/>
      <resource>
         <Observation>
            <id value="0b9ff3c5-d2fa-413f-a0e0-cf493abde878"/>
            <meta>
               <profile value="http://hl7.eu/fhir/laboratory/StructureDefinition/Observation-resultslab-eu-lab"/>
            </meta>
            <text>
               <status value="generated"/>
               <div xmlns="http://www.w3.org/1999/xhtml">
                  <table class="hl7__eu__lab__report">
                     <tr>
                        <th>Test</th>
                        <th>19-Jun-2017</th>
                        <th>Reference Range</th>
                        <th>Unit</th>
                     </tr>
                     <tr>
                        <td>Cholesterol in HDL [Mass/volume] in Serum or Plasma</td>
                        <td>54.9</td>
                        <td>50 - 100</td>
                        <td/>
                        <td>mg/dL</td>
                     </tr>
                  </table>
               </div>
            </text>
            <status value="final"/>
            <category>
               <coding>
                  <system value="http://terminology.hl7.org/CodeSystem/observation-category"/>
                  <code value="laboratory"/>
               </coding>
            </category>
            <code>
               <coding>
                  <system value="http://loinc.org"/>
                  <code value="2085-9"/>
                  <display value="Cholesterol in HDL [Mass/volume] in Serum or Plasma"/>
               </coding>
               <text value="Cholesterol in HDL [Mass/volume] in Serum or Plasma"/>
            </code>
            <subject>
               <reference value="urn:uuid:0528b881-9bea-4b75-9dc2-8e94cbf3f2b1"/>
               <display value="Magdolna Balog"/>
            </subject>
            <effectiveDateTime value="2017-06-19T15:32:25Z"/>
            <performer>
               <display value="The Central European Lab"/>
            </performer>
            <valueQuantity>
               <value value="54.9"/>
               <unit value="mg/dL"/>
               <system value="http://unitsofmeasure.org"/>
               <code value="mg/dL"/>
            </valueQuantity>
            <specimen>
               <reference value="urn:uuid:f4a36417-9a65-485e-8de3-88e5454d7fdc"/>
            </specimen>
            <referenceRange>
               <low>
                  <value value="50"/>
                  <system value="http://unitsofmeasure.org"/>
                  <code value="mg/dL"/>
               </low>
            </referenceRange>
            <referenceRange>
               <high>
                  <value value="100"/>
                  <system value="http://unitsofmeasure.org"/>
                  <code value="mg/dL"/>
               </high>
            </referenceRange>
         </Observation>
      </resource>
   </entry>
   <entry>
      <fullUrl value="urn:uuid:ced34d81-7207-4da5-b0a0-02b685cb665a"/>
      <resource>
         <Device>
            <id value="ced34d81-7207-4da5-b0a0-02b685cb665a"/>
            <text>
               <status value="generated"/>
               <div xmlns="http://www.w3.org/1999/xhtml">SYNDERAI Synthetic Generator v5.0</div>
            </text>
            <status value="active&#34;"/>
            <distinctIdentifier value="synderai-generator-50"/>
            <manufacturer value="SYNDERAI Project"/>
            <deviceName>
               <name value="SYNDERAI Synthetic Generator"/>
               <type value="manufacturer-name"/>
            </deviceName>
            <version>
               <value value="5.0"/>
            </version>
         </Device>
      </resource>
   </entry>
   <entry>
      <fullUrl value="urn:uuid:7ea838dd-842e-48c2-a02f-c6e1a95049b6"/>
      <resource>
         <Provenance>
            <id value="7ea838dd-842e-48c2-a02f-c6e1a95049b6"/>
            <text>
               <status value="generated"/>
               <div xmlns="http://www.w3.org/1999/xhtml">Provenance for SYNDERAI Synthetic Example Data Resource</div>
            </text>
            <target>
               <reference value="Patient/0528b881-9bea-4b75-9dc2-8e94cbf3f2b1"/>
            </target>
            <target>
               <reference value="Bundle/4216912c-f9be-4619-8a7e-8fbc4c68aa22"/>
            </target>
            <target>
               <reference value="Composition/89f9deb2-bf6c-4e4d-8e20-de04fd050ca6"/>
            </target>
            <target>
               <reference value="PractitionerRole/d0780019-5d01-4820-a9e2-a8896b5a73e4"/>
            </target>
            <target>
               <reference value="Practitioner/6e945192-85eb-462f-802d-97d112f291da"/>
            </target>
            <target>
               <reference value="PractitionerRole/10da4b47-6461-40ea-8473-7a2d2f461d45"/>
            </target>
            <target>
               <reference value="Organization/7abc572c-d489-4ec3-88b4-f3d06f3fe07c"/>
            </target>
            <recorded value="2017-06-19T17:32:25Z"/>
            <policy value="https://synderai.net/synderai-synthetic-data-policy"/>
            <reason>
               <text value="Interoperability Testing and Training (non-clinical use)"/>
            </reason>
            <activity>
               <text value="Synthetic Example Data Generation"/>
            </activity>
            <agent>
               <type>
                  <text value="author"/>
               </type>
               <who>
                  <reference value="Device/ced34d81-7207-4da5-b0a0-02b685cb665a"/>
               </who>
            </agent>
         </Provenance>
      </resource>
   </entry>
   <entry>
      <fullUrl value="urn:uuid:d0780019-5d01-4820-a9e2-a8896b5a73e4"/>
      <resource>
         <PractitionerRole>
            <id value="d0780019-5d01-4820-a9e2-a8896b5a73e4"/>
            <meta>
               <profile value="http://hl7.eu/fhir/base/StructureDefinition/practitionerRole-eu"/>
            </meta>
            <text>
               <status value="generated"/>
               <div xmlns="http://www.w3.org/1999/xhtml">Laboratory Role Id: d0780019-5d01-4820-a9e2-a8896b5a73e4</div>
            </text>
            <practitioner>
               <reference value="urn:uuid:6e945192-85eb-462f-802d-97d112f291da"/>
            </practitioner>
         </PractitionerRole>
      </resource>
   </entry>
   <entry>
      <fullUrl value="urn:uuid:6e945192-85eb-462f-802d-97d112f291da"/>
      <resource>
         <Practitioner>
            <id value="6e945192-85eb-462f-802d-97d112f291da"/>
            <meta>
               <profile value="http://hl7.eu/fhir/base/StructureDefinition/practitioner-eu"/>
            </meta>
            <text>
               <status value="generated"/>
               <div xmlns="http://www.w3.org/1999/xhtml">Laboratory: Laboratoire Central Européenne, 1000 Brussels, Belgium</div>
            </text>
            <identifier>
               <system value="urn:oid:2.16.840.1.113883.2.51.999"/>
               <value value="4d70d4ee-614c-4aa2-9664-5c1b684e77da"/>
               <assigner>
                  <display value="HL7 Europe"/>
               </assigner>
            </identifier>
            <name>
               <family value="Ample"/>
               <given value="Ex"/>
               <prefix value="dr"/>
            </name>
            <address>
               <line value="Laboratoire Central Européenne"/>
               <line value="Boulevard du Jardin Botanique 32"/>
               <city value="Brussels"/>
               <postalCode value="1000"/>
               <country value="Belgium"/>
            </address>
         </Practitioner>
      </resource>
   </entry>
</Bundle>