{
  "resourceType": "Bundle",
  "id": "8c81b0f0-ac1f-432d-b77a-51072befb742",
  "meta": {
    "profile": [
      "http://hl7.eu/fhir/laboratory/StructureDefinition/Bundle-eu-lab"
    ]
  },
  "identifier": {
    "assigner": {
      "display": "HL7 Europe"
    },
    "system": "urn:oid:2.16.840.1.113883.2.51.999",
    "value": "f9cec477-94b4-475f-af18-2b7d8d8a2858"
  },
  "entry": [
    {
      "fullUrl": "urn:uuid:848ec3f3-d57b-497c-ba52-ef819c80054f",
      "resource": {
        "resourceType": "Composition",
        "id": "848ec3f3-d57b-497c-ba52-ef819c80054f",
        "meta": {
          "profile": [
            "http://hl7.eu/fhir/laboratory/StructureDefinition/Composition-eu-lab"
          ]
        },
        "identifier": {
          "assigner": {
            "display": "HL7 Europe"
          },
          "system": "urn:oid:2.16.840.1.113883.2.51.999",
          "value": "7ac51208-fcf7-4163-9cec-21c9a85a48b5"
        },
        "author": [
          {
            "reference": "urn:uuid:982bcc25-8754-4771-a4fe-30b0306cc978"
          }
        ],
        "category": [
          {
            "coding": [
              {
                "code": "26436-6",
                "system": "http://loinc.org",
                "display": "Laboratory studies (set)"
              }
            ]
          }
        ],
        "type": {
          "coding": [
            {
              "code": "11502-2",
              "system": "http://loinc.org",
              "display": "Laboratory report"
            }
          ],
          "text": "Laboratory Report"
        },
        "section": [
          {
            "code": {
              "coding": [
                {
                  "code": "26436-6",
                  "system": "http://loinc.org",
                  "display": "Laboratory studies (set)"
                }
              ],
              "text": "Laboratory studies"
            },
            "section": [
              {
                "code": {
                  "coding": [
                    {
                      "code": "$18719-5",
                      "system": "http://loinc.org",
                      "display": "Chemistry studies (set)"
                    }
                  ],
                  "text": "Chemistry"
                },
                "entry": [
                  {
                    "reference": "urn:uuid:ef79ce07-2877-48f9-bb10-e8e6dabb9ba0"
                  },
                  {
                    "reference": "urn:uuid:4d60885c-4ad6-4c0e-b2f1-0e319968539b"
                  },
                  {
                    "reference": "urn:uuid:15404bc1-b170-4997-8445-c92b2ca186a1"
                  },
                  {
                    "reference": "urn:uuid:974dc31b-12d6-4398-95ec-6828b6230204"
                  },
                  {
                    "reference": "urn:uuid:c52c27fd-f984-46bd-9fa8-e8082a89e89e"
                  },
                  {
                    "reference": "urn:uuid:1703eced-930f-46b7-84f2-fd01c5db98bc"
                  },
                  {
                    "reference": "urn:uuid:a5f18e43-45a3-4239-8583-836ea1476eea"
                  },
                  {
                    "reference": "urn:uuid:057ab7fa-e6cb-422d-b3a1-c16ae846446c"
                  },
                  {
                    "reference": "urn:uuid:3631196c-108e-4d75-a682-b461e080a746"
                  },
                  {
                    "reference": "urn:uuid:af79f022-7316-41d1-9e99-dca22c89e53a"
                  },
                  {
                    "reference": "urn:uuid:4d24982c-1090-4d43-aa02-9e2334ac1e66"
                  },
                  {
                    "reference": "urn:uuid:32f21370-2f11-435c-ba23-b45e87691982"
                  },
                  {
                    "reference": "urn:uuid:e729f7ac-ad12-4a53-aa2f-9d47188870cf"
                  },
                  {
                    "reference": "urn:uuid:9bf36657-dcd5-41e6-86de-281ae2562d24"
                  },
                  {
                    "reference": "urn:uuid:910ed0d0-46cb-4886-94fa-db3be39da94d"
                  },
                  {
                    "reference": "urn:uuid:070cfaf2-ef43-4ea3-803a-f5fcc33ed03f"
                  },
                  {
                    "reference": "urn:uuid:47b1d659-7ad7-4362-b8ac-815af9e3152b"
                  },
                  {
                    "reference": "urn:uuid:dcd00e56-f6ea-4e22-80d6-1aed33d0d598"
                  },
                  {
                    "reference": "urn:uuid:940d3cf5-0333-4426-a6de-adfc508c5f0b"
                  },
                  {
                    "reference": "urn:uuid:9026d976-4785-46c1-836d-9e72dc355e98"
                  },
                  {
                    "reference": "urn:uuid:05d4db0b-7569-4d1a-8bcc-a91079a6ea9a"
                  },
                  {
                    "reference": "urn:uuid:5ff1dc3f-ed1f-4fe2-ae56-29545cceabb1"
                  }
                ],
                "text": {
                  "status": "generated",
                  "div": "<div xmlns=\"http://www.w3.org/1999/xhtml\"><h3>Chemistry</h3><table class=\"hl7__eu__lab__report\"><thead><tr><th>Test</th><th>31-JAN-2016</th><th>Reference&#xA0;Range</th><th>Unit</th></tr></thead><tbody><tr><td>Glucose [Mass/volume] in Serum or Plasma</td><td>79.2</td><td>70 - 99</td><td>mg/dL</td></tr><tr><td>Urea nitrogen [Mass/volume] in Serum or Plasma</td><td>10.8</td><td>7 - 20</td><td>mg/dL</td></tr><tr><td>Creatinine [Mass/volume] in Serum or Plasma</td><td><strong>2.4 H</strong></td><td>0.6 - 1.3</td><td>mg/dL</td></tr><tr><td>Calcium [Mass/volume] in Serum or Plasma</td><td>9.0</td><td>8.6 - 10.4</td><td>mg/dL</td></tr><tr><td>Sodium [Moles/volume] in Serum or Plasma</td><td>141.3</td><td>135 - 145</td><td>mmol/L</td></tr><tr><td>Potassium [Moles/volume] in Serum or Plasma</td><td>4.7</td><td>3.5 - 5</td><td>mmol/L</td></tr><tr><td>Chloride [Moles/volume] in Serum or Plasma</td><td>105.4</td><td>98 - 106</td><td>mmol/L</td></tr><tr><td>Carbon dioxide, total [Moles/volume] in Serum or Plasma</td><td>24.6</td><td>22 - 29</td><td>mmol/L</td></tr><tr><td>Ketones [Presence] in Urine by Test strip</td><td>Urine ketone test = +++</td><td></td><td></td></tr><tr><td>Hemoglobin A1c/Hemoglobin.total in Blood</td><td><strong>3.2 L</strong></td><td>4 - 6</td><td>%</td></tr><tr><td>Glucose [Mass/volume] in Blood</td><td>79.2</td><td>70 - 140</td><td>mg/dL</td></tr><tr><td>Urea nitrogen [Mass/volume] in Blood</td><td>10.8</td><td>7 - 25</td><td>mg/dL</td></tr><tr><td>Creatinine [Mass/volume] in Blood</td><td><strong>6.6 H</strong></td><td>0.6 - 1.1</td><td>mg/dL</td></tr><tr><td>Calcium [Mass/volume] in Blood</td><td>9.0</td><td>8.6 - 10.4</td><td>mg/dL</td></tr><tr><td>Sodium [Moles/volume] in Blood</td><td>141.3</td><td>135 - 145</td><td>mmol/L</td></tr><tr><td>Potassium [Moles/volume] in Blood</td><td>4.7</td><td>3.5 - 5.1</td><td>mmol/L</td></tr><tr><td>Chloride [Moles/volume] in Blood</td><td>105.4</td><td>98 - 110</td><td>mmol/L</td></tr><tr><td>Carbon dioxide, total [Moles/volume] in Blood</td><td>24.6</td><td>22 - 29</td><td>mmol/L</td></tr><tr><td>Cholesterol [Mass/volume] in Serum or Plasma</td><td><strong>125.0 L</strong></td><td>130 - 200</td><td>mg/dL</td></tr><tr><td>Triglyceride [Mass/volume] in Serum or Plasma</td><td>106.4</td><td>35 - 150</td><td>mg/dL</td></tr><tr><td>Cholesterol in LDL [Mass/volume] in Serum or Plasma by Direct assay</td><td>56.8</td><td>0 - 130</td><td>mg/dL</td></tr><tr><td>Cholesterol in HDL [Mass/volume] in Serum or Plasma</td><td><strong>47.0 L</strong></td><td>50 - 100</td><td>mg/dL</td></tr></tbody></table></div>"
                },
                "title": "Chemistry"
              },
              {
                "code": {
                  "coding": [
                    {
                      "code": "$18729-4",
                      "system": "http://loinc.org",
                      "display": "Urinalysis studies (set)"
                    }
                  ],
                  "text": "Urinalysis"
                },
                "entry": [
                  {
                    "reference": "urn:uuid:2dd13bda-7d5b-4b25-a631-7d12e9610057"
                  },
                  {
                    "reference": "urn:uuid:68633287-7655-4a33-94ae-c64a5466f017"
                  },
                  {
                    "reference": "urn:uuid:18a40530-381b-4567-9fa9-900993fa00d4"
                  },
                  {
                    "reference": "urn:uuid:0b26be9d-0041-4013-9ad2-4a15fd7ec7ef"
                  },
                  {
                    "reference": "urn:uuid:2db8b785-6d03-466c-b071-10fa78884091"
                  },
                  {
                    "reference": "urn:uuid:1a58281d-6d00-44f7-9883-bc805090da36"
                  },
                  {
                    "reference": "urn:uuid:990defa8-d97f-4815-a83e-edf712a14854"
                  },
                  {
                    "reference": "urn:uuid:032cb058-fc30-4c6a-8659-ef70ed555369"
                  },
                  {
                    "reference": "urn:uuid:d9681d39-2447-4621-8452-47df8f388acc"
                  },
                  {
                    "reference": "urn:uuid:114ad974-aabf-44be-be33-3d3bba551da2"
                  },
                  {
                    "reference": "urn:uuid:2da8a339-6ef4-4d6c-823e-b07aa486c0ec"
                  },
                  {
                    "reference": "urn:uuid:b2f4e60e-bfde-4bc9-9c20-0918ac8acb35"
                  }
                ],
                "text": {
                  "status": "generated",
                  "div": "<div xmlns=\"http://www.w3.org/1999/xhtml\"><h3>Urinalysis</h3><table class=\"hl7__eu__lab__report\"><thead><tr><th>Test</th><th>31-JAN-2016</th><th>Reference&#xA0;Range</th><th>Unit</th></tr></thead><tbody><tr><td>Glucose [Mass/volume] in Urine by Test strip</td><td><strong>1.6 H</strong></td><td>0 - 0.8</td><td>mg/dL</td></tr><tr><td>Glucose [Presence] in Urine by Test strip</td><td>++</td><td></td><td></td></tr><tr><td>Bilirubin.total [Mass/volume] in Urine by Test strip</td><td>0.3</td><td>0 - 1</td><td>mg/dL</td></tr><tr><td>Bilirubin.total [Presence] in Urine by Test strip</td><td>Finding of bilirubin in urine</td><td></td><td></td></tr><tr><td>Ketones [Mass/volume] in Urine by Test strip</td><td><strong>8.8 H</strong></td><td>0 - 4</td><td>mg/dL</td></tr><tr><td>Specific gravity of Urine by Test strip</td><td><strong>1.0 L</strong></td><td>1.005 - 1.03</td><td>{nominal}</td></tr><tr><td>pH of Urine by Test strip</td><td>6.2</td><td>4.5 - 7</td><td>pH</td></tr><tr><td>Protein [Mass/volume] in Urine by Test strip</td><td><strong>280.7 H</strong></td><td>0 - 145</td><td>mg/dL</td></tr><tr><td>Protein [Presence] in Urine by Test strip</td><td>Urine protein test = +++</td><td></td><td></td></tr><tr><td>Nitrite [Presence] in Urine by Test strip</td><td>Urine nitrite negative</td><td></td><td></td></tr><tr><td>Hemoglobin [Presence] in Urine by Test strip</td><td>Urine blood test = negative</td><td></td><td></td></tr><tr><td>Leukocyte esterase [Presence] in Urine by Test strip</td><td>Urine leukocyte test negative</td><td></td><td></td></tr></tbody></table></div>"
                },
                "title": "Urinalysis"
              },
              {
                "code": {
                  "coding": [
                    {
                      "code": "$LP7846-1",
                      "system": "http://loinc.org",
                      "display": "Specimen information"
                    }
                  ],
                  "text": "Specimen information"
                },
                "entry": [
                  {
                    "reference": "urn:uuid:076b4108-da0a-43a0-ad19-c77f22e949e7"
                  },
                  {
                    "reference": "urn:uuid:5591f0fb-40fa-4ce7-998c-740ad45c3329"
                  },
                  {
                    "reference": "urn:uuid:783a35a5-d059-4327-8929-19f362818c1d"
                  },
                  {
                    "reference": "urn:uuid:2643c48c-9df0-4109-b4de-a15c1a9c9898"
                  }
                ],
                "text": {
                  "status": "generated",
                  "div": "<div xmlns=\"http://www.w3.org/1999/xhtml\"><h3>Specimen information</h3><table class=\"hl7__eu__lab__report\"><thead><tr><th>Test</th><th>31-JAN-2016</th><th>Specimen</th><th></th></tr></thead><tbody><tr><td>Appearance of Urine</td><td>Cloudy urine</td><td>Urine</td><td></td></tr><tr><td>Odor of Urine</td><td>Urine smell ammoniacal</td><td>Urine</td><td></td></tr><tr><td>Clarity of Urine</td><td>Translucent</td><td>Urine</td><td></td></tr><tr><td>Color of Urine</td><td>Brown color</td><td>Urine</td><td></td></tr></tbody></table></div>"
                },
                "title": "Specimen information"
              }
            ],
            "title": "Laboratory Report"
          },
          {
            "text": {
              "status": "generated",
              "div": "<div xmlns=\"http://www.w3.org/1999/xhtml\"><h3>Annotation</h3><table class=\"hl7__eu__lab__report\"><tr><th>Conclusion and Recommendations based on this report and previous findings known to us</th></tr><tr><td>The patient shows markedly elevated creatinine in both serum and blood, indicating significant renal impairment. Urinalysis reveals proteinuria, glucosuria, ketonuria, low specific gravity, and abnormal urine appearance, suggesting possible nephrotic syndrome or diabetic ketoacidosis, though HbA1c is low. Lipid profile shows low total and HDL cholesterol. Immediate clinical evaluation for acute or chronic kidney disease and metabolic disturbances is recommended.</td></tr></table></div>"
            },
            "code": {
              "coding": [
                {
                  "system": "http://loinc.org",
                  "code": "48767-8",
                  "display": "Annotation comment"
                }
              ]
            },
            "title": "Annotation comment"
          }
        ],
        "status": "final",
        "subject": {
          "reference": "urn:uuid:f3e98dd6-21e9-4cae-a9e9-50425a539574",
          "display": "Iva Kratochvílová"
        },
        "date": "2016-01-31T17:10:29Z",
        "title": "Laboratory Report",
        "confidentiality": "N"
      }
    },
    {
      "fullUrl": "urn:uuid:bc77352f-f19c-4809-89a2-82f6862cf1fa",
      "resource": {
        "resourceType": "DiagnosticReport",
        "id": "bc77352f-f19c-4809-89a2-82f6862cf1fa",
        "meta": {
          "profile": [
            "http://hl7.eu/fhir/laboratory/StructureDefinition/DiagnosticReport-eu-lab"
          ]
        },
        "identifier": [
          {
            "assigner": {
              "display": "HL7 Europe"
            },
            "system": "urn:oid:2.16.840.1.113883.2.51.999",
            "value": "e02d663c-0f2e-40b0-a0d3-de73ee4a54b9"
          }
        ],
        "extension": [
          {
            "url": "http://hl7.org/fhir/5.0/StructureDefinition/extension-DiagnosticReport.composition",
            "valueReference": {
              "reference": "urn:uuid:7ac51208-fcf7-4163-9cec-21c9a85a48b5"
            }
          }
        ],
        "category": [
          {
            "coding": [
              {
                "code": "26436-6",
                "system": "http://loinc.org",
                "display": "Laboratory studies (set)"
              }
            ]
          }
        ],
        "specimen": [
          {
            "reference": "urn:uuid:71ff6e95-6770-4a78-af1f-a4e08952dda3"
          },
          {
            "reference": "urn:uuid:1f23800d-d56b-41b1-817e-1fda04a3f38b"
          },
          {
            "reference": "urn:uuid:1f37e0b4-f38d-43d1-8d47-2de1dae96c2d"
          }
        ],
        "result": [
          {
            "reference": "urn:uuid:ef79ce07-2877-48f9-bb10-e8e6dabb9ba0"
          },
          {
            "reference": "urn:uuid:4d60885c-4ad6-4c0e-b2f1-0e319968539b"
          },
          {
            "reference": "urn:uuid:15404bc1-b170-4997-8445-c92b2ca186a1"
          },
          {
            "reference": "urn:uuid:974dc31b-12d6-4398-95ec-6828b6230204"
          },
          {
            "reference": "urn:uuid:c52c27fd-f984-46bd-9fa8-e8082a89e89e"
          },
          {
            "reference": "urn:uuid:1703eced-930f-46b7-84f2-fd01c5db98bc"
          },
          {
            "reference": "urn:uuid:a5f18e43-45a3-4239-8583-836ea1476eea"
          },
          {
            "reference": "urn:uuid:057ab7fa-e6cb-422d-b3a1-c16ae846446c"
          },
          {
            "reference": "urn:uuid:076b4108-da0a-43a0-ad19-c77f22e949e7"
          },
          {
            "reference": "urn:uuid:5591f0fb-40fa-4ce7-998c-740ad45c3329"
          },
          {
            "reference": "urn:uuid:783a35a5-d059-4327-8929-19f362818c1d"
          },
          {
            "reference": "urn:uuid:2643c48c-9df0-4109-b4de-a15c1a9c9898"
          },
          {
            "reference": "urn:uuid:2dd13bda-7d5b-4b25-a631-7d12e9610057"
          },
          {
            "reference": "urn:uuid:68633287-7655-4a33-94ae-c64a5466f017"
          },
          {
            "reference": "urn:uuid:18a40530-381b-4567-9fa9-900993fa00d4"
          },
          {
            "reference": "urn:uuid:0b26be9d-0041-4013-9ad2-4a15fd7ec7ef"
          },
          {
            "reference": "urn:uuid:2db8b785-6d03-466c-b071-10fa78884091"
          },
          {
            "reference": "urn:uuid:3631196c-108e-4d75-a682-b461e080a746"
          },
          {
            "reference": "urn:uuid:1a58281d-6d00-44f7-9883-bc805090da36"
          },
          {
            "reference": "urn:uuid:990defa8-d97f-4815-a83e-edf712a14854"
          },
          {
            "reference": "urn:uuid:032cb058-fc30-4c6a-8659-ef70ed555369"
          },
          {
            "reference": "urn:uuid:d9681d39-2447-4621-8452-47df8f388acc"
          },
          {
            "reference": "urn:uuid:114ad974-aabf-44be-be33-3d3bba551da2"
          },
          {
            "reference": "urn:uuid:2da8a339-6ef4-4d6c-823e-b07aa486c0ec"
          },
          {
            "reference": "urn:uuid:b2f4e60e-bfde-4bc9-9c20-0918ac8acb35"
          },
          {
            "reference": "urn:uuid:af79f022-7316-41d1-9e99-dca22c89e53a"
          },
          {
            "reference": "urn:uuid:4d24982c-1090-4d43-aa02-9e2334ac1e66"
          },
          {
            "reference": "urn:uuid:32f21370-2f11-435c-ba23-b45e87691982"
          },
          {
            "reference": "urn:uuid:e729f7ac-ad12-4a53-aa2f-9d47188870cf"
          },
          {
            "reference": "urn:uuid:9bf36657-dcd5-41e6-86de-281ae2562d24"
          },
          {
            "reference": "urn:uuid:910ed0d0-46cb-4886-94fa-db3be39da94d"
          },
          {
            "reference": "urn:uuid:070cfaf2-ef43-4ea3-803a-f5fcc33ed03f"
          },
          {
            "reference": "urn:uuid:47b1d659-7ad7-4362-b8ac-815af9e3152b"
          },
          {
            "reference": "urn:uuid:dcd00e56-f6ea-4e22-80d6-1aed33d0d598"
          },
          {
            "reference": "urn:uuid:940d3cf5-0333-4426-a6de-adfc508c5f0b"
          },
          {
            "reference": "urn:uuid:9026d976-4785-46c1-836d-9e72dc355e98"
          },
          {
            "reference": "urn:uuid:05d4db0b-7569-4d1a-8bcc-a91079a6ea9a"
          },
          {
            "reference": "urn:uuid:5ff1dc3f-ed1f-4fe2-ae56-29545cceabb1"
          }
        ],
        "status": "registered",
        "code": {
          "coding": [
            {
              "code": "11502-2",
              "system": "http://loinc.org",
              "display": "Laboratory report"
            }
          ]
        },
        "subject": {
          "reference": "urn:uuid:f3e98dd6-21e9-4cae-a9e9-50425a539574",
          "display": "Iva Kratochvílová"
        }
      }
    },
    {
      "fullUrl": "urn:uuid:f3e98dd6-21e9-4cae-a9e9-50425a539574",
      "resource": {
        "resourceType": "Patient",
        "id": "f3e98dd6-21e9-4cae-a9e9-50425a539574",
        "meta": {
          "security": [
            {
              "system": "http://terminology.hl7.org/CodeSystem/v3-ActReason",
              "code": "HTEST"
            },
            {
              "system": "http://terminology.hl7.org/CodeSystem/v3-ActReason",
              "code": "TRAIN"
            }
          ],
          "tag": [
            {
              "system": "https://synderai.net/fhir/CodeSystem/tags",
              "code": "synthetic",
              "display": "SYNDERAI Synthetic data"
            }
          ],
          "profile": [
            "http://hl7.eu/fhir/base/StructureDefinition/patient-eu-core"
          ]
        },
        "identifier": [
          {
            "type": {
              "coding": [
                {
                  "code": "PT",
                  "system": "http://terminology.hl7.org/CodeSystem/v2-0203"
                }
              ]
            },
            "system": "http://ec.europa.eu/identifier/eci",
            "value": "4380-389488-0"
          },
          {
            "type": {
              "coding": [
                {
                  "code": "MR",
                  "system": "http://terminology.hl7.org/CodeSystem/v2-0203"
                }
              ]
            },
            "system": "http://local.setting.eu/identifier",
            "value": "f8f9ebdc-03dd-2fc0-819c-affa4ffd7f67"
          }
        ],
        "name": [
          {
            "family": "Kratochvílová"
          },
          {
            "given": [
              "Iva"
            ]
          },
          {
            "text": "Iva Kratochvílová"
          }
        ],
        "address": [
          {
            "line": [
              "Žofie Podlipské 4"
            ],
            "use": "home",
            "type": "physical",
            "postalCode": "27324",
            "city": "Postoloprty",
            "country": "Czechia"
          }
        ],
        "telecom": [
          {
            "system": "phone",
            "value": "00420 607 985 072"
          }
        ],
        "extension": [
          {
            "url": "http://hl7.org/fhir/StructureDefinition/patient-nationality",
            "valueCodeableConcept": {
              "coding": [
                {
                  "code": "CZ",
                  "system": "http://hl7.org/fhir/ValueSet/country"
                }
              ]
            }
          }
        ],
        "text": {
          "status": "generated",
          "div": "<div xmlns=\"http://www.w3.org/1999/xhtml\"><table class=\"hl7__ips\"><tr><td>Iva Kratochvílová</td><td>female</td><td>17-Sep-1964</td></tr></table></div>"
        },
        "gender": "female",
        "birthDate": "1964-09-17"
      }
    },
    {
      "fullUrl": "urn:uuid:c7991a88-708f-4e77-a461-0a97bb01926d",
      "resource": {
        "resourceType": "ServiceRequest",
        "id": "c7991a88-708f-4e77-a461-0a97bb01926d",
        "meta": {
          "profile": [
            "http://hl7.eu/fhir/laboratory/StructureDefinition/ServiceRequest-eu-lab"
          ]
        },
        "identifier": [
          {
            "system": "http://example.org",
            "value": "ee0484ad-9418-4c31-a6b4-9ef95f7d77b2"
          }
        ],
        "specimen": [
          {
            "reference": "urn:uuid:71ff6e95-6770-4a78-af1f-a4e08952dda3"
          },
          {
            "reference": "urn:uuid:1f23800d-d56b-41b1-817e-1fda04a3f38b"
          },
          {
            "reference": "urn:uuid:1f37e0b4-f38d-43d1-8d47-2de1dae96c2d"
          }
        ],
        "reasonCode": [
          {
            "coding": [
              {
                "code": "431856006",
                "system": "http://snomed.info/sct",
                "display": "Chronic kidney disease stage 2"
              }
            ]
          },
          {
            "coding": [
              {
                "code": "431855005",
                "system": "http://snomed.info/sct",
                "display": "Chronic kidney disease stage 1"
              }
            ]
          },
          {
            "coding": [
              {
                "code": "237602007",
                "system": "http://snomed.info/sct",
                "display": "Metabolic syndrome X"
              }
            ]
          },
          {
            "coding": [
              {
                "code": "91302008",
                "system": "http://snomed.info/sct",
                "display": "Sepsis"
              }
            ]
          },
          {
            "coding": [
              {
                "code": "271737000",
                "system": "http://snomed.info/sct",
                "display": "Anemia"
              }
            ]
          },
          {
            "coding": [
              {
                "code": "15777000",
                "system": "http://snomed.info/sct",
                "display": "Prediabetes"
              }
            ]
          },
          {
            "coding": [
              {
                "code": "157141000119108",
                "system": "http://snomed.info/sct",
                "display": "Proteinuria due to type 2 diabetes mellitus"
              }
            ]
          },
          {
            "coding": [
              {
                "code": "90781000119102",
                "system": "http://snomed.info/sct",
                "display": "Microalbuminuria due to type 2 diabetes mellitus"
              }
            ]
          },
          {
            "coding": [
              {
                "code": "239872002",
                "system": "http://snomed.info/sct",
                "display": "Osteoarthritis of hip"
              }
            ]
          },
          {
            "coding": [
              {
                "code": "40055000",
                "system": "http://snomed.info/sct",
                "display": "Chronic sinusitis"
              }
            ]
          },
          {
            "coding": [
              {
                "code": "127013003",
                "system": "http://snomed.info/sct",
                "display": "Disorder of kidney due to diabetes mellitus"
              }
            ]
          },
          {
            "coding": [
              {
                "code": "59621000",
                "system": "http://snomed.info/sct",
                "display": "Essential hypertension"
              }
            ]
          }
        ],
        "status": "active",
        "intent": "order",
        "code": {
          "coding": [
            {
              "code": "108252007",
              "system": "http://snomed.info/sct",
              "display": "Laboratory procedure"
            }
          ]
        },
        "subject": {
          "reference": "urn:uuid:f3e98dd6-21e9-4cae-a9e9-50425a539574",
          "display": "Iva Kratochvílová"
        },
        "requester": {
          "reference": "urn:uuid:8c970481-e0af-4bac-a5d5-1b674387fb3e"
        }
      }
    },
    {
      "fullUrl": "urn:uuid:8c970481-e0af-4bac-a5d5-1b674387fb3e",
      "resource": {
        "resourceType": "PractitionerRole",
        "id": "8c970481-e0af-4bac-a5d5-1b674387fb3e",
        "meta": {
          "profile": [
            "http://hl7.eu/fhir/base/StructureDefinition/practitionerRole-eu"
          ]
        },
        "text": {
          "status": "generated",
          "div": "<div xmlns=\"http://www.w3.org/1999/xhtml\">Provider Role Id: 8c970481-e0af-4bac-a5d5-1b674387fb3e</div>"
        },
        "organization": {
          "reference": "urn:uuid:19a030e9-7bb7-4616-8bf9-bc9682a2c757"
        }
      }
    },
    {
      "fullUrl": "urn:uuid:19a030e9-7bb7-4616-8bf9-bc9682a2c757",
      "resource": {
        "resourceType": "Organization",
        "id": "19a030e9-7bb7-4616-8bf9-bc9682a2c757",
        "meta": {
          "profile": [
            "http://hl7.eu/fhir/base/StructureDefinition/organization-eu"
          ]
        },
        "identifier": [
          {
            "assigner": {
              "display": "HL7 Europe"
            },
            "system": "urn:oid:2.16.840.1.113883.2.51.999",
            "value": "3a882453-8304-42b8-b136-4cd4981d7262"
          }
        ],
        "address": [
          {
            "city": "Kadaň",
            "postalCode": "432 01",
            "country": "Czechia"
          }
        ],
        "text": {
          "status": "generated",
          "div": "<div xmlns=\"http://www.w3.org/1999/xhtml\">Provider Organization: Nemocnice s poliklinikou Kadaň</div>"
        },
        "name": "Nemocnice s poliklinikou Kadaň"
      }
    },
    {
      "fullUrl": "urn:uuid:71ff6e95-6770-4a78-af1f-a4e08952dda3",
      "resource": {
        "resourceType": "Specimen",
        "id": "71ff6e95-6770-4a78-af1f-a4e08952dda3",
        "meta": {
          "profile": [
            "http://hl7.eu/fhir/laboratory/StructureDefinition/Specimen-eu-lab"
          ]
        },
        "collection": {
          "collectedDateTime": "2016-01-31"
        },
        "text": {
          "status": "generated",
          "div": "<div xmlns=\"http://www.w3.org/1999/xhtml\"><table class=\"hl7__eu__lab__report\"><tr><th>Specimen</th><th>Collection Date</th></tr><tr><td>Acellular blood (serum or plasma) specimen</td><td><span class=\"nb\">31-Jan-2016</span></td></tr></table></div>"
        },
        "type": {
          "coding": [
            {
              "code": "122592007",
              "system": "http://snomed.info/sct",
              "display": "Acellular blood (serum or plasma) specimen"
            }
          ]
        }
      }
    },
    {
      "fullUrl": "urn:uuid:1f23800d-d56b-41b1-817e-1fda04a3f38b",
      "resource": {
        "resourceType": "Specimen",
        "id": "1f23800d-d56b-41b1-817e-1fda04a3f38b",
        "meta": {
          "profile": [
            "http://hl7.eu/fhir/laboratory/StructureDefinition/Specimen-eu-lab"
          ]
        },
        "collection": {
          "collectedDateTime": "2016-01-31"
        },
        "text": {
          "status": "generated",
          "div": "<div xmlns=\"http://www.w3.org/1999/xhtml\"><table class=\"hl7__eu__lab__report\"><tr><th>Specimen</th><th>Collection Date</th></tr><tr><td>Urine specimen</td><td><span class=\"nb\">31-Jan-2016</span></td></tr></table></div>"
        },
        "type": {
          "coding": [
            {
              "code": "122575003",
              "system": "http://snomed.info/sct",
              "display": "Urine specimen"
            }
          ]
        }
      }
    },
    {
      "fullUrl": "urn:uuid:1f37e0b4-f38d-43d1-8d47-2de1dae96c2d",
      "resource": {
        "resourceType": "Specimen",
        "id": "1f37e0b4-f38d-43d1-8d47-2de1dae96c2d",
        "meta": {
          "profile": [
            "http://hl7.eu/fhir/laboratory/StructureDefinition/Specimen-eu-lab"
          ]
        },
        "collection": {
          "collectedDateTime": "2016-01-31"
        },
        "text": {
          "status": "generated",
          "div": "<div xmlns=\"http://www.w3.org/1999/xhtml\"><table class=\"hl7__eu__lab__report\"><tr><th>Specimen</th><th>Collection Date</th></tr><tr><td>Whole blood specimen (specimen)</td><td><span class=\"nb\">31-Jan-2016</span></td></tr></table></div>"
        },
        "type": {
          "coding": [
            {
              "code": "258580003",
              "system": "http://snomed.info/sct",
              "display": "Whole blood specimen (specimen)"
            }
          ]
        }
      }
    },
    {
      "fullUrl": "urn:uuid:ef79ce07-2877-48f9-bb10-e8e6dabb9ba0",
      "resource": {
        "resourceType": "Observation",
        "id": "ef79ce07-2877-48f9-bb10-e8e6dabb9ba0",
        "meta": {
          "profile": [
            "http://hl7.eu/fhir/laboratory/StructureDefinition/Observation-resultslab-eu-lab"
          ]
        },
        "performer": [
          {
            "display": "The Central European Lab"
          }
        ],
        "category": [
          {
            "coding": [
              {
                "system": "http://terminology.hl7.org/CodeSystem/observation-category",
                "code": "laboratory"
              }
            ]
          }
        ],
        "code": {
          "coding": [
            {
              "code": "2345-7",
              "system": "http://loinc.org",
              "display": "Glucose [Mass/volume] in Serum or Plasma"
            }
          ],
          "text": "Glucose [Mass/volume] in Serum or Plasma"
        },
        "valueQuantity": {
          "system": "http://unitsofmeasure.org",
          "value": 79.2,
          "unit": "mg/dL",
          "code": "mg/dL"
        },
        "referenceRange": [
          {
            "low": {
              "value": 70,
              "code": "mg/dL",
              "system": "http://unitsofmeasure.org"
            }
          },
          {
            "high": {
              "value": 99,
              "code": "mg/dL",
              "system": "http://unitsofmeasure.org"
            }
          }
        ],
        "text": {
          "status": "generated",
          "div": "<div xmlns=\"http://www.w3.org/1999/xhtml\"><table class=\"hl7__eu__lab__report\"><tr><th>Test</th><th>31-Jan-2016</th><th>Reference&#xA0;Range</th><th>Unit</th></tr><tr><td>Glucose [Mass/volume] in Serum or Plasma</td><td>79.2</td><td>70 - 99</td><td></td><td>mg/dL</td></tr></table></div>"
        },
        "status": "final",
        "subject": {
          "reference": "urn:uuid:f3e98dd6-21e9-4cae-a9e9-50425a539574",
          "display": "Iva Kratochvílová"
        },
        "effectiveDateTime": "2016-01-31T16:10:29Z",
        "specimen": {
          "reference": "urn:uuid:71ff6e95-6770-4a78-af1f-a4e08952dda3"
        }
      }
    },
    {
      "fullUrl": "urn:uuid:4d60885c-4ad6-4c0e-b2f1-0e319968539b",
      "resource": {
        "resourceType": "Observation",
        "id": "4d60885c-4ad6-4c0e-b2f1-0e319968539b",
        "meta": {
          "profile": [
            "http://hl7.eu/fhir/laboratory/StructureDefinition/Observation-resultslab-eu-lab"
          ]
        },
        "performer": [
          {
            "display": "The Central European Lab"
          }
        ],
        "category": [
          {
            "coding": [
              {
                "system": "http://terminology.hl7.org/CodeSystem/observation-category",
                "code": "laboratory"
              }
            ]
          }
        ],
        "code": {
          "coding": [
            {
              "code": "3094-0",
              "system": "http://loinc.org",
              "display": "Urea nitrogen [Mass/volume] in Serum or Plasma"
            }
          ],
          "text": "Urea nitrogen [Mass/volume] in Serum or Plasma"
        },
        "valueQuantity": {
          "system": "http://unitsofmeasure.org",
          "value": 10.8,
          "unit": "mg/dL",
          "code": "mg/dL"
        },
        "referenceRange": [
          {
            "low": {
              "value": 7,
              "code": "mg/dL",
              "system": "http://unitsofmeasure.org"
            }
          },
          {
            "high": {
              "value": 20,
              "code": "mg/dL",
              "system": "http://unitsofmeasure.org"
            }
          }
        ],
        "text": {
          "status": "generated",
          "div": "<div xmlns=\"http://www.w3.org/1999/xhtml\"><table class=\"hl7__eu__lab__report\"><tr><th>Test</th><th>31-Jan-2016</th><th>Reference&#xA0;Range</th><th>Unit</th></tr><tr><td>Urea nitrogen [Mass/volume] in Serum or Plasma</td><td>10.8</td><td>7 - 20</td><td></td><td>mg/dL</td></tr></table></div>"
        },
        "status": "final",
        "subject": {
          "reference": "urn:uuid:f3e98dd6-21e9-4cae-a9e9-50425a539574",
          "display": "Iva Kratochvílová"
        },
        "effectiveDateTime": "2016-01-31T16:10:29Z",
        "specimen": {
          "reference": "urn:uuid:71ff6e95-6770-4a78-af1f-a4e08952dda3"
        }
      }
    },
    {
      "fullUrl": "urn:uuid:15404bc1-b170-4997-8445-c92b2ca186a1",
      "resource": {
        "resourceType": "Observation",
        "id": "15404bc1-b170-4997-8445-c92b2ca186a1",
        "meta": {
          "profile": [
            "http://hl7.eu/fhir/laboratory/StructureDefinition/Observation-resultslab-eu-lab"
          ]
        },
        "performer": [
          {
            "display": "The Central European Lab"
          }
        ],
        "category": [
          {
            "coding": [
              {
                "system": "http://terminology.hl7.org/CodeSystem/observation-category",
                "code": "laboratory"
              }
            ]
          }
        ],
        "code": {
          "coding": [
            {
              "code": "2160-0",
              "system": "http://loinc.org",
              "display": "Creatinine [Mass/volume] in Serum or Plasma"
            }
          ],
          "text": "Creatinine [Mass/volume] in Serum or Plasma"
        },
        "valueQuantity": {
          "system": "http://unitsofmeasure.org",
          "value": 2.4,
          "unit": "mg/dL",
          "code": "mg/dL"
        },
        "referenceRange": [
          {
            "low": {
              "value": 0.6,
              "code": "mg/dL",
              "system": "http://unitsofmeasure.org"
            }
          },
          {
            "high": {
              "value": 1.3,
              "code": "mg/dL",
              "system": "http://unitsofmeasure.org"
            }
          }
        ],
        "interpretation": [
          {
            "coding": [
              {
                "code": "H",
                "system": "http://terminology.hl7.org/CodeSystem/v3-ObservationInterpretation",
                "display": "High"
              }
            ]
          }
        ],
        "text": {
          "status": "generated",
          "div": "<div xmlns=\"http://www.w3.org/1999/xhtml\"><table class=\"hl7__eu__lab__report\"><tr><th>Test</th><th>31-Jan-2016</th><th>Reference&#xA0;Range</th><th>Unit</th></tr><tr><td>Creatinine [Mass/volume] in Serum or Plasma</td><td>2.4</td><td>0.6 - 1.3</td><td>H</td><td>mg/dL</td></tr></table></div>"
        },
        "status": "final",
        "subject": {
          "reference": "urn:uuid:f3e98dd6-21e9-4cae-a9e9-50425a539574",
          "display": "Iva Kratochvílová"
        },
        "effectiveDateTime": "2016-01-31T16:10:29Z",
        "specimen": {
          "reference": "urn:uuid:71ff6e95-6770-4a78-af1f-a4e08952dda3"
        }
      }
    },
    {
      "fullUrl": "urn:uuid:974dc31b-12d6-4398-95ec-6828b6230204",
      "resource": {
        "resourceType": "Observation",
        "id": "974dc31b-12d6-4398-95ec-6828b6230204",
        "meta": {
          "profile": [
            "http://hl7.eu/fhir/laboratory/StructureDefinition/Observation-resultslab-eu-lab"
          ]
        },
        "performer": [
          {
            "display": "The Central European Lab"
          }
        ],
        "category": [
          {
            "coding": [
              {
                "system": "http://terminology.hl7.org/CodeSystem/observation-category",
                "code": "laboratory"
              }
            ]
          }
        ],
        "code": {
          "coding": [
            {
              "code": "17861-6",
              "system": "http://loinc.org",
              "display": "Calcium [Mass/volume] in Serum or Plasma"
            }
          ],
          "text": "Calcium [Mass/volume] in Serum or Plasma"
        },
        "valueQuantity": {
          "system": "http://unitsofmeasure.org",
          "value": 9,
          "unit": "mg/dL",
          "code": "mg/dL"
        },
        "referenceRange": [
          {
            "low": {
              "value": 8.6,
              "code": "mg/dL",
              "system": "http://unitsofmeasure.org"
            }
          },
          {
            "high": {
              "value": 10.4,
              "code": "mg/dL",
              "system": "http://unitsofmeasure.org"
            }
          }
        ],
        "text": {
          "status": "generated",
          "div": "<div xmlns=\"http://www.w3.org/1999/xhtml\"><table class=\"hl7__eu__lab__report\"><tr><th>Test</th><th>31-Jan-2016</th><th>Reference&#xA0;Range</th><th>Unit</th></tr><tr><td>Calcium [Mass/volume] in Serum or Plasma</td><td>9.0</td><td>8.6 - 10.4</td><td></td><td>mg/dL</td></tr></table></div>"
        },
        "status": "final",
        "subject": {
          "reference": "urn:uuid:f3e98dd6-21e9-4cae-a9e9-50425a539574",
          "display": "Iva Kratochvílová"
        },
        "effectiveDateTime": "2016-01-31T16:10:29Z",
        "specimen": {
          "reference": "urn:uuid:71ff6e95-6770-4a78-af1f-a4e08952dda3"
        }
      }
    },
    {
      "fullUrl": "urn:uuid:c52c27fd-f984-46bd-9fa8-e8082a89e89e",
      "resource": {
        "resourceType": "Observation",
        "id": "c52c27fd-f984-46bd-9fa8-e8082a89e89e",
        "meta": {
          "profile": [
            "http://hl7.eu/fhir/laboratory/StructureDefinition/Observation-resultslab-eu-lab"
          ]
        },
        "performer": [
          {
            "display": "The Central European Lab"
          }
        ],
        "category": [
          {
            "coding": [
              {
                "system": "http://terminology.hl7.org/CodeSystem/observation-category",
                "code": "laboratory"
              }
            ]
          }
        ],
        "code": {
          "coding": [
            {
              "code": "2951-2",
              "system": "http://loinc.org",
              "display": "Sodium [Moles/volume] in Serum or Plasma"
            }
          ],
          "text": "Sodium [Moles/volume] in Serum or Plasma"
        },
        "valueQuantity": {
          "system": "http://unitsofmeasure.org",
          "value": 141.3,
          "unit": "mmol/L",
          "code": "mmol/L"
        },
        "referenceRange": [
          {
            "low": {
              "value": 135,
              "code": "mmol/L",
              "system": "http://unitsofmeasure.org"
            }
          },
          {
            "high": {
              "value": 145,
              "code": "mmol/L",
              "system": "http://unitsofmeasure.org"
            }
          }
        ],
        "text": {
          "status": "generated",
          "div": "<div xmlns=\"http://www.w3.org/1999/xhtml\"><table class=\"hl7__eu__lab__report\"><tr><th>Test</th><th>31-Jan-2016</th><th>Reference&#xA0;Range</th><th>Unit</th></tr><tr><td>Sodium [Moles/volume] in Serum or Plasma</td><td>141.3</td><td>135 - 145</td><td></td><td>mmol/L</td></tr></table></div>"
        },
        "status": "final",
        "subject": {
          "reference": "urn:uuid:f3e98dd6-21e9-4cae-a9e9-50425a539574",
          "display": "Iva Kratochvílová"
        },
        "effectiveDateTime": "2016-01-31T16:10:29Z",
        "specimen": {
          "reference": "urn:uuid:71ff6e95-6770-4a78-af1f-a4e08952dda3"
        }
      }
    },
    {
      "fullUrl": "urn:uuid:1703eced-930f-46b7-84f2-fd01c5db98bc",
      "resource": {
        "resourceType": "Observation",
        "id": "1703eced-930f-46b7-84f2-fd01c5db98bc",
        "meta": {
          "profile": [
            "http://hl7.eu/fhir/laboratory/StructureDefinition/Observation-resultslab-eu-lab"
          ]
        },
        "performer": [
          {
            "display": "The Central European Lab"
          }
        ],
        "category": [
          {
            "coding": [
              {
                "system": "http://terminology.hl7.org/CodeSystem/observation-category",
                "code": "laboratory"
              }
            ]
          }
        ],
        "code": {
          "coding": [
            {
              "code": "2823-3",
              "system": "http://loinc.org",
              "display": "Potassium [Moles/volume] in Serum or Plasma"
            }
          ],
          "text": "Potassium [Moles/volume] in Serum or Plasma"
        },
        "valueQuantity": {
          "system": "http://unitsofmeasure.org",
          "value": 4.7,
          "unit": "mmol/L",
          "code": "mmol/L"
        },
        "referenceRange": [
          {
            "low": {
              "value": 3.5,
              "code": "mmol/L",
              "system": "http://unitsofmeasure.org"
            }
          },
          {
            "high": {
              "value": 5,
              "code": "mmol/L",
              "system": "http://unitsofmeasure.org"
            }
          }
        ],
        "text": {
          "status": "generated",
          "div": "<div xmlns=\"http://www.w3.org/1999/xhtml\"><table class=\"hl7__eu__lab__report\"><tr><th>Test</th><th>31-Jan-2016</th><th>Reference&#xA0;Range</th><th>Unit</th></tr><tr><td>Potassium [Moles/volume] in Serum or Plasma</td><td>4.7</td><td>3.5 - 5</td><td></td><td>mmol/L</td></tr></table></div>"
        },
        "status": "final",
        "subject": {
          "reference": "urn:uuid:f3e98dd6-21e9-4cae-a9e9-50425a539574",
          "display": "Iva Kratochvílová"
        },
        "effectiveDateTime": "2016-01-31T16:10:29Z",
        "specimen": {
          "reference": "urn:uuid:71ff6e95-6770-4a78-af1f-a4e08952dda3"
        }
      }
    },
    {
      "fullUrl": "urn:uuid:a5f18e43-45a3-4239-8583-836ea1476eea",
      "resource": {
        "resourceType": "Observation",
        "id": "a5f18e43-45a3-4239-8583-836ea1476eea",
        "meta": {
          "profile": [
            "http://hl7.eu/fhir/laboratory/StructureDefinition/Observation-resultslab-eu-lab"
          ]
        },
        "performer": [
          {
            "display": "The Central European Lab"
          }
        ],
        "category": [
          {
            "coding": [
              {
                "system": "http://terminology.hl7.org/CodeSystem/observation-category",
                "code": "laboratory"
              }
            ]
          }
        ],
        "code": {
          "coding": [
            {
              "code": "2075-0",
              "system": "http://loinc.org",
              "display": "Chloride [Moles/volume] in Serum or Plasma"
            }
          ],
          "text": "Chloride [Moles/volume] in Serum or Plasma"
        },
        "valueQuantity": {
          "system": "http://unitsofmeasure.org",
          "value": 105.4,
          "unit": "mmol/L",
          "code": "mmol/L"
        },
        "referenceRange": [
          {
            "low": {
              "value": 98,
              "code": "mmol/L",
              "system": "http://unitsofmeasure.org"
            }
          },
          {
            "high": {
              "value": 106,
              "code": "mmol/L",
              "system": "http://unitsofmeasure.org"
            }
          }
        ],
        "text": {
          "status": "generated",
          "div": "<div xmlns=\"http://www.w3.org/1999/xhtml\"><table class=\"hl7__eu__lab__report\"><tr><th>Test</th><th>31-Jan-2016</th><th>Reference&#xA0;Range</th><th>Unit</th></tr><tr><td>Chloride [Moles/volume] in Serum or Plasma</td><td>105.4</td><td>98 - 106</td><td></td><td>mmol/L</td></tr></table></div>"
        },
        "status": "final",
        "subject": {
          "reference": "urn:uuid:f3e98dd6-21e9-4cae-a9e9-50425a539574",
          "display": "Iva Kratochvílová"
        },
        "effectiveDateTime": "2016-01-31T16:10:29Z",
        "specimen": {
          "reference": "urn:uuid:71ff6e95-6770-4a78-af1f-a4e08952dda3"
        }
      }
    },
    {
      "fullUrl": "urn:uuid:057ab7fa-e6cb-422d-b3a1-c16ae846446c",
      "resource": {
        "resourceType": "Observation",
        "id": "057ab7fa-e6cb-422d-b3a1-c16ae846446c",
        "meta": {
          "profile": [
            "http://hl7.eu/fhir/laboratory/StructureDefinition/Observation-resultslab-eu-lab"
          ]
        },
        "performer": [
          {
            "display": "The Central European Lab"
          }
        ],
        "category": [
          {
            "coding": [
              {
                "system": "http://terminology.hl7.org/CodeSystem/observation-category",
                "code": "laboratory"
              }
            ]
          }
        ],
        "code": {
          "coding": [
            {
              "code": "2028-9",
              "system": "http://loinc.org",
              "display": "Carbon dioxide, total [Moles/volume] in Serum or Plasma"
            }
          ],
          "text": "Carbon dioxide, total [Moles/volume] in Serum or Plasma"
        },
        "valueQuantity": {
          "system": "http://unitsofmeasure.org",
          "value": 24.6,
          "unit": "mmol/L",
          "code": "mmol/L"
        },
        "referenceRange": [
          {
            "low": {
              "value": 22,
              "code": "mmol/L",
              "system": "http://unitsofmeasure.org"
            }
          },
          {
            "high": {
              "value": 29,
              "code": "mmol/L",
              "system": "http://unitsofmeasure.org"
            }
          }
        ],
        "text": {
          "status": "generated",
          "div": "<div xmlns=\"http://www.w3.org/1999/xhtml\"><table class=\"hl7__eu__lab__report\"><tr><th>Test</th><th>31-Jan-2016</th><th>Reference&#xA0;Range</th><th>Unit</th></tr><tr><td>Carbon dioxide, total [Moles/volume] in Serum or Plasma</td><td>24.6</td><td>22 - 29</td><td></td><td>mmol/L</td></tr></table></div>"
        },
        "status": "final",
        "subject": {
          "reference": "urn:uuid:f3e98dd6-21e9-4cae-a9e9-50425a539574",
          "display": "Iva Kratochvílová"
        },
        "effectiveDateTime": "2016-01-31T16:10:29Z",
        "specimen": {
          "reference": "urn:uuid:71ff6e95-6770-4a78-af1f-a4e08952dda3"
        }
      }
    },
    {
      "fullUrl": "urn:uuid:076b4108-da0a-43a0-ad19-c77f22e949e7",
      "resource": {
        "resourceType": "Observation",
        "id": "076b4108-da0a-43a0-ad19-c77f22e949e7",
        "meta": {
          "profile": [
            "http://hl7.eu/fhir/laboratory/StructureDefinition/Observation-resultslab-eu-lab"
          ]
        },
        "performer": [
          {
            "display": "The Central European Lab"
          }
        ],
        "category": [
          {
            "coding": [
              {
                "system": "http://terminology.hl7.org/CodeSystem/observation-category",
                "code": "laboratory"
              }
            ]
          }
        ],
        "code": {
          "coding": [
            {
              "code": "5767-9",
              "system": "http://loinc.org",
              "display": "Appearance of Urine"
            }
          ],
          "text": "Appearance of Urine"
        },
        "text": {
          "status": "generated",
          "div": "<div xmlns=\"http://www.w3.org/1999/xhtml\"><table class=\"hl7__eu__lab__report\"><tr><th>Test</th><th>31-Jan-2016</th><th>Reference&#xA0;Range</th><th>Unit</th></tr><tr><td>Appearance of Urine</td></tr></table></div>"
        },
        "status": "final",
        "subject": {
          "reference": "urn:uuid:f3e98dd6-21e9-4cae-a9e9-50425a539574",
          "display": "Iva Kratochvílová"
        },
        "effectiveDateTime": "2016-01-31T16:10:29Z",
        "specimen": {
          "reference": "urn:uuid:1f23800d-d56b-41b1-817e-1fda04a3f38b"
        }
      }
    },
    {
      "fullUrl": "urn:uuid:5591f0fb-40fa-4ce7-998c-740ad45c3329",
      "resource": {
        "resourceType": "Observation",
        "id": "5591f0fb-40fa-4ce7-998c-740ad45c3329",
        "meta": {
          "profile": [
            "http://hl7.eu/fhir/laboratory/StructureDefinition/Observation-resultslab-eu-lab"
          ]
        },
        "performer": [
          {
            "display": "The Central European Lab"
          }
        ],
        "category": [
          {
            "coding": [
              {
                "system": "http://terminology.hl7.org/CodeSystem/observation-category",
                "code": "laboratory"
              }
            ]
          }
        ],
        "code": {
          "coding": [
            {
              "code": "34533-0",
              "system": "http://loinc.org",
              "display": "Odor of Urine"
            }
          ],
          "text": "Odor of Urine"
        },
        "text": {
          "status": "generated",
          "div": "<div xmlns=\"http://www.w3.org/1999/xhtml\"><table class=\"hl7__eu__lab__report\"><tr><th>Test</th><th>31-Jan-2016</th><th>Reference&#xA0;Range</th><th>Unit</th></tr><tr><td>Odor of Urine</td></tr></table></div>"
        },
        "status": "final",
        "subject": {
          "reference": "urn:uuid:f3e98dd6-21e9-4cae-a9e9-50425a539574",
          "display": "Iva Kratochvílová"
        },
        "effectiveDateTime": "2016-01-31T16:10:29Z",
        "specimen": {
          "reference": "urn:uuid:1f23800d-d56b-41b1-817e-1fda04a3f38b"
        }
      }
    },
    {
      "fullUrl": "urn:uuid:783a35a5-d059-4327-8929-19f362818c1d",
      "resource": {
        "resourceType": "Observation",
        "id": "783a35a5-d059-4327-8929-19f362818c1d",
        "meta": {
          "profile": [
            "http://hl7.eu/fhir/laboratory/StructureDefinition/Observation-resultslab-eu-lab"
          ]
        },
        "performer": [
          {
            "display": "The Central European Lab"
          }
        ],
        "category": [
          {
            "coding": [
              {
                "system": "http://terminology.hl7.org/CodeSystem/observation-category",
                "code": "laboratory"
              }
            ]
          }
        ],
        "code": {
          "coding": [
            {
              "code": "32167-9",
              "system": "http://loinc.org",
              "display": "Clarity of Urine"
            }
          ],
          "text": "Clarity of Urine"
        },
        "text": {
          "status": "generated",
          "div": "<div xmlns=\"http://www.w3.org/1999/xhtml\"><table class=\"hl7__eu__lab__report\"><tr><th>Test</th><th>31-Jan-2016</th><th>Reference&#xA0;Range</th><th>Unit</th></tr><tr><td>Clarity of Urine</td></tr></table></div>"
        },
        "status": "final",
        "subject": {
          "reference": "urn:uuid:f3e98dd6-21e9-4cae-a9e9-50425a539574",
          "display": "Iva Kratochvílová"
        },
        "effectiveDateTime": "2016-01-31T16:10:29Z",
        "specimen": {
          "reference": "urn:uuid:1f23800d-d56b-41b1-817e-1fda04a3f38b"
        }
      }
    },
    {
      "fullUrl": "urn:uuid:2643c48c-9df0-4109-b4de-a15c1a9c9898",
      "resource": {
        "resourceType": "Observation",
        "id": "2643c48c-9df0-4109-b4de-a15c1a9c9898",
        "meta": {
          "profile": [
            "http://hl7.eu/fhir/laboratory/StructureDefinition/Observation-resultslab-eu-lab"
          ]
        },
        "performer": [
          {
            "display": "The Central European Lab"
          }
        ],
        "category": [
          {
            "coding": [
              {
                "system": "http://terminology.hl7.org/CodeSystem/observation-category",
                "code": "laboratory"
              }
            ]
          }
        ],
        "code": {
          "coding": [
            {
              "code": "5778-6",
              "system": "http://loinc.org",
              "display": "Color of Urine"
            }
          ],
          "text": "Color of Urine"
        },
        "text": {
          "status": "generated",
          "div": "<div xmlns=\"http://www.w3.org/1999/xhtml\"><table class=\"hl7__eu__lab__report\"><tr><th>Test</th><th>31-Jan-2016</th><th>Reference&#xA0;Range</th><th>Unit</th></tr><tr><td>Color of Urine</td></tr></table></div>"
        },
        "status": "final",
        "subject": {
          "reference": "urn:uuid:f3e98dd6-21e9-4cae-a9e9-50425a539574",
          "display": "Iva Kratochvílová"
        },
        "effectiveDateTime": "2016-01-31T16:10:29Z",
        "specimen": {
          "reference": "urn:uuid:1f23800d-d56b-41b1-817e-1fda04a3f38b"
        }
      }
    },
    {
      "fullUrl": "urn:uuid:2dd13bda-7d5b-4b25-a631-7d12e9610057",
      "resource": {
        "resourceType": "Observation",
        "id": "2dd13bda-7d5b-4b25-a631-7d12e9610057",
        "meta": {
          "profile": [
            "http://hl7.eu/fhir/laboratory/StructureDefinition/Observation-resultslab-eu-lab"
          ]
        },
        "performer": [
          {
            "display": "The Central European Lab"
          }
        ],
        "category": [
          {
            "coding": [
              {
                "system": "http://terminology.hl7.org/CodeSystem/observation-category",
                "code": "laboratory"
              }
            ]
          }
        ],
        "code": {
          "coding": [
            {
              "code": "5792-7",
              "system": "http://loinc.org",
              "display": "Glucose [Mass/volume] in Urine by Test strip"
            }
          ],
          "text": "Glucose [Mass/volume] in Urine by Test strip"
        },
        "valueQuantity": {
          "system": "http://unitsofmeasure.org",
          "value": 1.6,
          "unit": "mg/dL",
          "code": "mg/dL"
        },
        "referenceRange": [
          {
            "low": {
              "value": 0,
              "code": "mg/dL",
              "system": "http://unitsofmeasure.org"
            }
          },
          {
            "high": {
              "value": 0.8,
              "code": "mg/dL",
              "system": "http://unitsofmeasure.org"
            }
          }
        ],
        "interpretation": [
          {
            "coding": [
              {
                "code": "H",
                "system": "http://terminology.hl7.org/CodeSystem/v3-ObservationInterpretation",
                "display": "High"
              }
            ]
          }
        ],
        "text": {
          "status": "generated",
          "div": "<div xmlns=\"http://www.w3.org/1999/xhtml\"><table class=\"hl7__eu__lab__report\"><tr><th>Test</th><th>31-Jan-2016</th><th>Reference&#xA0;Range</th><th>Unit</th></tr><tr><td>Glucose [Mass/volume] in Urine by Test strip</td><td>1.6</td><td>0 - 0.8</td><td>H</td><td>mg/dL</td></tr></table></div>"
        },
        "status": "final",
        "subject": {
          "reference": "urn:uuid:f3e98dd6-21e9-4cae-a9e9-50425a539574",
          "display": "Iva Kratochvílová"
        },
        "effectiveDateTime": "2016-01-31T16:10:29Z",
        "specimen": {
          "reference": "urn:uuid:1f23800d-d56b-41b1-817e-1fda04a3f38b"
        }
      }
    },
    {
      "fullUrl": "urn:uuid:68633287-7655-4a33-94ae-c64a5466f017",
      "resource": {
        "resourceType": "Observation",
        "id": "68633287-7655-4a33-94ae-c64a5466f017",
        "meta": {
          "profile": [
            "http://hl7.eu/fhir/laboratory/StructureDefinition/Observation-resultslab-eu-lab"
          ]
        },
        "performer": [
          {
            "display": "The Central European Lab"
          }
        ],
        "category": [
          {
            "coding": [
              {
                "system": "http://terminology.hl7.org/CodeSystem/observation-category",
                "code": "laboratory"
              }
            ]
          }
        ],
        "code": {
          "coding": [
            {
              "code": "25428-4",
              "system": "http://loinc.org",
              "display": "Glucose [Presence] in Urine by Test strip"
            }
          ],
          "text": "Glucose [Presence] in Urine by Test strip"
        },
        "text": {
          "status": "generated",
          "div": "<div xmlns=\"http://www.w3.org/1999/xhtml\"><table class=\"hl7__eu__lab__report\"><tr><th>Test</th><th>31-Jan-2016</th><th>Reference&#xA0;Range</th><th>Unit</th></tr><tr><td>Glucose [Presence] in Urine by Test strip</td></tr></table></div>"
        },
        "status": "final",
        "subject": {
          "reference": "urn:uuid:f3e98dd6-21e9-4cae-a9e9-50425a539574",
          "display": "Iva Kratochvílová"
        },
        "effectiveDateTime": "2016-01-31T16:10:29Z",
        "specimen": {
          "reference": "urn:uuid:1f23800d-d56b-41b1-817e-1fda04a3f38b"
        }
      }
    },
    {
      "fullUrl": "urn:uuid:18a40530-381b-4567-9fa9-900993fa00d4",
      "resource": {
        "resourceType": "Observation",
        "id": "18a40530-381b-4567-9fa9-900993fa00d4",
        "meta": {
          "profile": [
            "http://hl7.eu/fhir/laboratory/StructureDefinition/Observation-resultslab-eu-lab"
          ]
        },
        "performer": [
          {
            "display": "The Central European Lab"
          }
        ],
        "category": [
          {
            "coding": [
              {
                "system": "http://terminology.hl7.org/CodeSystem/observation-category",
                "code": "laboratory"
              }
            ]
          }
        ],
        "code": {
          "coding": [
            {
              "code": "20505-4",
              "system": "http://loinc.org",
              "display": "Bilirubin.total [Mass/volume] in Urine by Test strip"
            }
          ],
          "text": "Bilirubin.total [Mass/volume] in Urine by Test strip"
        },
        "valueQuantity": {
          "system": "http://unitsofmeasure.org",
          "value": 0.3,
          "unit": "mg/dL",
          "code": "mg/dL"
        },
        "referenceRange": [
          {
            "low": {
              "value": 0,
              "code": "mg/dL",
              "system": "http://unitsofmeasure.org"
            }
          },
          {
            "high": {
              "value": 1,
              "code": "mg/dL",
              "system": "http://unitsofmeasure.org"
            }
          }
        ],
        "text": {
          "status": "generated",
          "div": "<div xmlns=\"http://www.w3.org/1999/xhtml\"><table class=\"hl7__eu__lab__report\"><tr><th>Test</th><th>31-Jan-2016</th><th>Reference&#xA0;Range</th><th>Unit</th></tr><tr><td>Bilirubin.total [Mass/volume] in Urine by Test strip</td><td>0.3</td><td>0 - 1</td><td></td><td>mg/dL</td></tr></table></div>"
        },
        "status": "final",
        "subject": {
          "reference": "urn:uuid:f3e98dd6-21e9-4cae-a9e9-50425a539574",
          "display": "Iva Kratochvílová"
        },
        "effectiveDateTime": "2016-01-31T16:10:29Z",
        "specimen": {
          "reference": "urn:uuid:1f23800d-d56b-41b1-817e-1fda04a3f38b"
        }
      }
    },
    {
      "fullUrl": "urn:uuid:0b26be9d-0041-4013-9ad2-4a15fd7ec7ef",
      "resource": {
        "resourceType": "Observation",
        "id": "0b26be9d-0041-4013-9ad2-4a15fd7ec7ef",
        "meta": {
          "profile": [
            "http://hl7.eu/fhir/laboratory/StructureDefinition/Observation-resultslab-eu-lab"
          ]
        },
        "performer": [
          {
            "display": "The Central European Lab"
          }
        ],
        "category": [
          {
            "coding": [
              {
                "system": "http://terminology.hl7.org/CodeSystem/observation-category",
                "code": "laboratory"
              }
            ]
          }
        ],
        "code": {
          "coding": [
            {
              "code": "5770-3",
              "system": "http://loinc.org",
              "display": "Bilirubin.total [Presence] in Urine by Test strip"
            }
          ],
          "text": "Bilirubin.total [Presence] in Urine by Test strip"
        },
        "text": {
          "status": "generated",
          "div": "<div xmlns=\"http://www.w3.org/1999/xhtml\"><table class=\"hl7__eu__lab__report\"><tr><th>Test</th><th>31-Jan-2016</th><th>Reference&#xA0;Range</th><th>Unit</th></tr><tr><td>Bilirubin.total [Presence] in Urine by Test strip</td></tr></table></div>"
        },
        "status": "final",
        "subject": {
          "reference": "urn:uuid:f3e98dd6-21e9-4cae-a9e9-50425a539574",
          "display": "Iva Kratochvílová"
        },
        "effectiveDateTime": "2016-01-31T16:10:29Z",
        "specimen": {
          "reference": "urn:uuid:1f23800d-d56b-41b1-817e-1fda04a3f38b"
        }
      }
    },
    {
      "fullUrl": "urn:uuid:2db8b785-6d03-466c-b071-10fa78884091",
      "resource": {
        "resourceType": "Observation",
        "id": "2db8b785-6d03-466c-b071-10fa78884091",
        "meta": {
          "profile": [
            "http://hl7.eu/fhir/laboratory/StructureDefinition/Observation-resultslab-eu-lab"
          ]
        },
        "performer": [
          {
            "display": "The Central European Lab"
          }
        ],
        "category": [
          {
            "coding": [
              {
                "system": "http://terminology.hl7.org/CodeSystem/observation-category",
                "code": "laboratory"
              }
            ]
          }
        ],
        "code": {
          "coding": [
            {
              "code": "5797-6",
              "system": "http://loinc.org",
              "display": "Ketones [Mass/volume] in Urine by Test strip"
            }
          ],
          "text": "Ketones [Mass/volume] in Urine by Test strip"
        },
        "valueQuantity": {
          "system": "http://unitsofmeasure.org",
          "value": 8.8,
          "unit": "mg/dL",
          "code": "mg/dL"
        },
        "referenceRange": [
          {
            "low": {
              "value": 0,
              "code": "mg/dL",
              "system": "http://unitsofmeasure.org"
            }
          },
          {
            "high": {
              "value": 4,
              "code": "mg/dL",
              "system": "http://unitsofmeasure.org"
            }
          }
        ],
        "interpretation": [
          {
            "coding": [
              {
                "code": "H",
                "system": "http://terminology.hl7.org/CodeSystem/v3-ObservationInterpretation",
                "display": "High"
              }
            ]
          }
        ],
        "text": {
          "status": "generated",
          "div": "<div xmlns=\"http://www.w3.org/1999/xhtml\"><table class=\"hl7__eu__lab__report\"><tr><th>Test</th><th>31-Jan-2016</th><th>Reference&#xA0;Range</th><th>Unit</th></tr><tr><td>Ketones [Mass/volume] in Urine by Test strip</td><td>8.8</td><td>0 - 4</td><td>H</td><td>mg/dL</td></tr></table></div>"
        },
        "status": "final",
        "subject": {
          "reference": "urn:uuid:f3e98dd6-21e9-4cae-a9e9-50425a539574",
          "display": "Iva Kratochvílová"
        },
        "effectiveDateTime": "2016-01-31T16:10:29Z",
        "specimen": {
          "reference": "urn:uuid:1f23800d-d56b-41b1-817e-1fda04a3f38b"
        }
      }
    },
    {
      "fullUrl": "urn:uuid:3631196c-108e-4d75-a682-b461e080a746",
      "resource": {
        "resourceType": "Observation",
        "id": "3631196c-108e-4d75-a682-b461e080a746",
        "meta": {
          "profile": [
            "http://hl7.eu/fhir/laboratory/StructureDefinition/Observation-resultslab-eu-lab"
          ]
        },
        "performer": [
          {
            "display": "The Central European Lab"
          }
        ],
        "category": [
          {
            "coding": [
              {
                "system": "http://terminology.hl7.org/CodeSystem/observation-category",
                "code": "laboratory"
              }
            ]
          }
        ],
        "code": {
          "coding": [
            {
              "code": "2514-8",
              "system": "http://loinc.org",
              "display": "Ketones [Presence] in Urine by Test strip"
            }
          ],
          "text": "Ketones [Presence] in Urine by Test strip"
        },
        "text": {
          "status": "generated",
          "div": "<div xmlns=\"http://www.w3.org/1999/xhtml\"><table class=\"hl7__eu__lab__report\"><tr><th>Test</th><th>31-Jan-2016</th><th>Reference&#xA0;Range</th><th>Unit</th></tr><tr><td>Ketones [Presence] in Urine by Test strip</td></tr></table></div>"
        },
        "status": "final",
        "subject": {
          "reference": "urn:uuid:f3e98dd6-21e9-4cae-a9e9-50425a539574",
          "display": "Iva Kratochvílová"
        },
        "effectiveDateTime": "2016-01-31T16:10:29Z",
        "specimen": {
          "reference": "urn:uuid:1f23800d-d56b-41b1-817e-1fda04a3f38b"
        }
      }
    },
    {
      "fullUrl": "urn:uuid:1a58281d-6d00-44f7-9883-bc805090da36",
      "resource": {
        "resourceType": "Observation",
        "id": "1a58281d-6d00-44f7-9883-bc805090da36",
        "meta": {
          "profile": [
            "http://hl7.eu/fhir/laboratory/StructureDefinition/Observation-resultslab-eu-lab"
          ]
        },
        "performer": [
          {
            "display": "The Central European Lab"
          }
        ],
        "category": [
          {
            "coding": [
              {
                "system": "http://terminology.hl7.org/CodeSystem/observation-category",
                "code": "laboratory"
              }
            ]
          }
        ],
        "code": {
          "coding": [
            {
              "code": "5811-5",
              "system": "http://loinc.org",
              "display": "Specific gravity of Urine by Test strip"
            }
          ],
          "text": "Specific gravity of Urine by Test strip"
        },
        "valueQuantity": {
          "system": "http://unitsofmeasure.org",
          "value": 1,
          "unit": "{nominal}",
          "code": "{nominal}"
        },
        "referenceRange": [
          {
            "low": {
              "value": 1.005,
              "code": "g/mL",
              "system": "http://unitsofmeasure.org"
            }
          },
          {
            "high": {
              "value": 1.03,
              "code": "g/mL",
              "system": "http://unitsofmeasure.org"
            }
          }
        ],
        "interpretation": [
          {
            "coding": [
              {
                "code": "L",
                "system": "http://terminology.hl7.org/CodeSystem/v3-ObservationInterpretation",
                "display": "Low"
              }
            ]
          }
        ],
        "text": {
          "status": "generated",
          "div": "<div xmlns=\"http://www.w3.org/1999/xhtml\"><table class=\"hl7__eu__lab__report\"><tr><th>Test</th><th>31-Jan-2016</th><th>Reference&#xA0;Range</th><th>Unit</th></tr><tr><td>Specific gravity of Urine by Test strip</td><td>1.0</td><td>1.005 - 1.03</td><td>L</td><td>{nominal}</td></tr></table></div>"
        },
        "status": "final",
        "subject": {
          "reference": "urn:uuid:f3e98dd6-21e9-4cae-a9e9-50425a539574",
          "display": "Iva Kratochvílová"
        },
        "effectiveDateTime": "2016-01-31T16:10:29Z",
        "specimen": {
          "reference": "urn:uuid:1f23800d-d56b-41b1-817e-1fda04a3f38b"
        }
      }
    },
    {
      "fullUrl": "urn:uuid:990defa8-d97f-4815-a83e-edf712a14854",
      "resource": {
        "resourceType": "Observation",
        "id": "990defa8-d97f-4815-a83e-edf712a14854",
        "meta": {
          "profile": [
            "http://hl7.eu/fhir/laboratory/StructureDefinition/Observation-resultslab-eu-lab"
          ]
        },
        "performer": [
          {
            "display": "The Central European Lab"
          }
        ],
        "category": [
          {
            "coding": [
              {
                "system": "http://terminology.hl7.org/CodeSystem/observation-category",
                "code": "laboratory"
              }
            ]
          }
        ],
        "code": {
          "coding": [
            {
              "code": "5803-2",
              "system": "http://loinc.org",
              "display": "pH of Urine by Test strip"
            }
          ],
          "text": "pH of Urine by Test strip"
        },
        "valueQuantity": {
          "system": "http://unitsofmeasure.org",
          "value": 6.2,
          "unit": "pH",
          "code": "pH"
        },
        "referenceRange": [
          {
            "low": {
              "value": 4.5,
              "code": "pH",
              "system": "http://unitsofmeasure.org"
            }
          },
          {
            "high": {
              "value": 7,
              "code": "pH",
              "system": "http://unitsofmeasure.org"
            }
          }
        ],
        "text": {
          "status": "generated",
          "div": "<div xmlns=\"http://www.w3.org/1999/xhtml\"><table class=\"hl7__eu__lab__report\"><tr><th>Test</th><th>31-Jan-2016</th><th>Reference&#xA0;Range</th><th>Unit</th></tr><tr><td>pH of Urine by Test strip</td><td>6.2</td><td>4.5 - 7</td><td></td><td>pH</td></tr></table></div>"
        },
        "status": "final",
        "subject": {
          "reference": "urn:uuid:f3e98dd6-21e9-4cae-a9e9-50425a539574",
          "display": "Iva Kratochvílová"
        },
        "effectiveDateTime": "2016-01-31T16:10:29Z",
        "specimen": {
          "reference": "urn:uuid:1f23800d-d56b-41b1-817e-1fda04a3f38b"
        }
      }
    },
    {
      "fullUrl": "urn:uuid:032cb058-fc30-4c6a-8659-ef70ed555369",
      "resource": {
        "resourceType": "Observation",
        "id": "032cb058-fc30-4c6a-8659-ef70ed555369",
        "meta": {
          "profile": [
            "http://hl7.eu/fhir/laboratory/StructureDefinition/Observation-resultslab-eu-lab"
          ]
        },
        "performer": [
          {
            "display": "The Central European Lab"
          }
        ],
        "category": [
          {
            "coding": [
              {
                "system": "http://terminology.hl7.org/CodeSystem/observation-category",
                "code": "laboratory"
              }
            ]
          }
        ],
        "code": {
          "coding": [
            {
              "code": "5804-0",
              "system": "http://loinc.org",
              "display": "Protein [Mass/volume] in Urine by Test strip"
            }
          ],
          "text": "Protein [Mass/volume] in Urine by Test strip"
        },
        "valueQuantity": {
          "system": "http://unitsofmeasure.org",
          "value": 280.7,
          "unit": "mg/dL",
          "code": "mg/dL"
        },
        "referenceRange": [
          {
            "low": {
              "value": 0,
              "code": "mg/dL",
              "system": "http://unitsofmeasure.org"
            }
          },
          {
            "high": {
              "value": 145,
              "code": "mg/dL",
              "system": "http://unitsofmeasure.org"
            }
          }
        ],
        "interpretation": [
          {
            "coding": [
              {
                "code": "H",
                "system": "http://terminology.hl7.org/CodeSystem/v3-ObservationInterpretation",
                "display": "High"
              }
            ]
          }
        ],
        "text": {
          "status": "generated",
          "div": "<div xmlns=\"http://www.w3.org/1999/xhtml\"><table class=\"hl7__eu__lab__report\"><tr><th>Test</th><th>31-Jan-2016</th><th>Reference&#xA0;Range</th><th>Unit</th></tr><tr><td>Protein [Mass/volume] in Urine by Test strip</td><td>280.7</td><td>0 - 145</td><td>H</td><td>mg/dL</td></tr></table></div>"
        },
        "status": "final",
        "subject": {
          "reference": "urn:uuid:f3e98dd6-21e9-4cae-a9e9-50425a539574",
          "display": "Iva Kratochvílová"
        },
        "effectiveDateTime": "2016-01-31T16:10:29Z",
        "specimen": {
          "reference": "urn:uuid:1f23800d-d56b-41b1-817e-1fda04a3f38b"
        }
      }
    },
    {
      "fullUrl": "urn:uuid:d9681d39-2447-4621-8452-47df8f388acc",
      "resource": {
        "resourceType": "Observation",
        "id": "d9681d39-2447-4621-8452-47df8f388acc",
        "meta": {
          "profile": [
            "http://hl7.eu/fhir/laboratory/StructureDefinition/Observation-resultslab-eu-lab"
          ]
        },
        "performer": [
          {
            "display": "The Central European Lab"
          }
        ],
        "category": [
          {
            "coding": [
              {
                "system": "http://terminology.hl7.org/CodeSystem/observation-category",
                "code": "laboratory"
              }
            ]
          }
        ],
        "code": {
          "coding": [
            {
              "code": "20454-5",
              "system": "http://loinc.org",
              "display": "Protein [Presence] in Urine by Test strip"
            }
          ],
          "text": "Protein [Presence] in Urine by Test strip"
        },
        "text": {
          "status": "generated",
          "div": "<div xmlns=\"http://www.w3.org/1999/xhtml\"><table class=\"hl7__eu__lab__report\"><tr><th>Test</th><th>31-Jan-2016</th><th>Reference&#xA0;Range</th><th>Unit</th></tr><tr><td>Protein [Presence] in Urine by Test strip</td></tr></table></div>"
        },
        "status": "final",
        "subject": {
          "reference": "urn:uuid:f3e98dd6-21e9-4cae-a9e9-50425a539574",
          "display": "Iva Kratochvílová"
        },
        "effectiveDateTime": "2016-01-31T16:10:29Z",
        "specimen": {
          "reference": "urn:uuid:1f23800d-d56b-41b1-817e-1fda04a3f38b"
        }
      }
    },
    {
      "fullUrl": "urn:uuid:114ad974-aabf-44be-be33-3d3bba551da2",
      "resource": {
        "resourceType": "Observation",
        "id": "114ad974-aabf-44be-be33-3d3bba551da2",
        "meta": {
          "profile": [
            "http://hl7.eu/fhir/laboratory/StructureDefinition/Observation-resultslab-eu-lab"
          ]
        },
        "performer": [
          {
            "display": "The Central European Lab"
          }
        ],
        "category": [
          {
            "coding": [
              {
                "system": "http://terminology.hl7.org/CodeSystem/observation-category",
                "code": "laboratory"
              }
            ]
          }
        ],
        "code": {
          "coding": [
            {
              "code": "5802-4",
              "system": "http://loinc.org",
              "display": "Nitrite [Presence] in Urine by Test strip"
            }
          ],
          "text": "Nitrite [Presence] in Urine by Test strip"
        },
        "text": {
          "status": "generated",
          "div": "<div xmlns=\"http://www.w3.org/1999/xhtml\"><table class=\"hl7__eu__lab__report\"><tr><th>Test</th><th>31-Jan-2016</th><th>Reference&#xA0;Range</th><th>Unit</th></tr><tr><td>Nitrite [Presence] in Urine by Test strip</td></tr></table></div>"
        },
        "status": "final",
        "subject": {
          "reference": "urn:uuid:f3e98dd6-21e9-4cae-a9e9-50425a539574",
          "display": "Iva Kratochvílová"
        },
        "effectiveDateTime": "2016-01-31T16:10:29Z",
        "specimen": {
          "reference": "urn:uuid:1f23800d-d56b-41b1-817e-1fda04a3f38b"
        }
      }
    },
    {
      "fullUrl": "urn:uuid:2da8a339-6ef4-4d6c-823e-b07aa486c0ec",
      "resource": {
        "resourceType": "Observation",
        "id": "2da8a339-6ef4-4d6c-823e-b07aa486c0ec",
        "meta": {
          "profile": [
            "http://hl7.eu/fhir/laboratory/StructureDefinition/Observation-resultslab-eu-lab"
          ]
        },
        "performer": [
          {
            "display": "The Central European Lab"
          }
        ],
        "category": [
          {
            "coding": [
              {
                "system": "http://terminology.hl7.org/CodeSystem/observation-category",
                "code": "laboratory"
              }
            ]
          }
        ],
        "code": {
          "coding": [
            {
              "code": "5794-3",
              "system": "http://loinc.org",
              "display": "Hemoglobin [Presence] in Urine by Test strip"
            }
          ],
          "text": "Hemoglobin [Presence] in Urine by Test strip"
        },
        "text": {
          "status": "generated",
          "div": "<div xmlns=\"http://www.w3.org/1999/xhtml\"><table class=\"hl7__eu__lab__report\"><tr><th>Test</th><th>31-Jan-2016</th><th>Reference&#xA0;Range</th><th>Unit</th></tr><tr><td>Hemoglobin [Presence] in Urine by Test strip</td></tr></table></div>"
        },
        "status": "final",
        "subject": {
          "reference": "urn:uuid:f3e98dd6-21e9-4cae-a9e9-50425a539574",
          "display": "Iva Kratochvílová"
        },
        "effectiveDateTime": "2016-01-31T16:10:29Z",
        "specimen": {
          "reference": "urn:uuid:1f23800d-d56b-41b1-817e-1fda04a3f38b"
        }
      }
    },
    {
      "fullUrl": "urn:uuid:b2f4e60e-bfde-4bc9-9c20-0918ac8acb35",
      "resource": {
        "resourceType": "Observation",
        "id": "b2f4e60e-bfde-4bc9-9c20-0918ac8acb35",
        "meta": {
          "profile": [
            "http://hl7.eu/fhir/laboratory/StructureDefinition/Observation-resultslab-eu-lab"
          ]
        },
        "performer": [
          {
            "display": "The Central European Lab"
          }
        ],
        "category": [
          {
            "coding": [
              {
                "system": "http://terminology.hl7.org/CodeSystem/observation-category",
                "code": "laboratory"
              }
            ]
          }
        ],
        "code": {
          "coding": [
            {
              "code": "5799-2",
              "system": "http://loinc.org",
              "display": "Leukocyte esterase [Presence] in Urine by Test strip"
            }
          ],
          "text": "Leukocyte esterase [Presence] in Urine by Test strip"
        },
        "text": {
          "status": "generated",
          "div": "<div xmlns=\"http://www.w3.org/1999/xhtml\"><table class=\"hl7__eu__lab__report\"><tr><th>Test</th><th>31-Jan-2016</th><th>Reference&#xA0;Range</th><th>Unit</th></tr><tr><td>Leukocyte esterase [Presence] in Urine by Test strip</td></tr></table></div>"
        },
        "status": "final",
        "subject": {
          "reference": "urn:uuid:f3e98dd6-21e9-4cae-a9e9-50425a539574",
          "display": "Iva Kratochvílová"
        },
        "effectiveDateTime": "2016-01-31T16:10:29Z",
        "specimen": {
          "reference": "urn:uuid:1f23800d-d56b-41b1-817e-1fda04a3f38b"
        }
      }
    },
    {
      "fullUrl": "urn:uuid:af79f022-7316-41d1-9e99-dca22c89e53a",
      "resource": {
        "resourceType": "Observation",
        "id": "af79f022-7316-41d1-9e99-dca22c89e53a",
        "meta": {
          "profile": [
            "http://hl7.eu/fhir/laboratory/StructureDefinition/Observation-resultslab-eu-lab"
          ]
        },
        "performer": [
          {
            "display": "The Central European Lab"
          }
        ],
        "category": [
          {
            "coding": [
              {
                "system": "http://terminology.hl7.org/CodeSystem/observation-category",
                "code": "laboratory"
              }
            ]
          }
        ],
        "code": {
          "coding": [
            {
              "code": "4548-4",
              "system": "http://loinc.org",
              "display": "Hemoglobin A1c/Hemoglobin.total in Blood"
            }
          ],
          "text": "Hemoglobin A1c/Hemoglobin.total in Blood"
        },
        "valueQuantity": {
          "system": "http://unitsofmeasure.org",
          "value": 3.2,
          "unit": "%",
          "code": "%"
        },
        "referenceRange": [
          {
            "low": {
              "value": 4,
              "code": "%",
              "system": "http://unitsofmeasure.org"
            }
          },
          {
            "high": {
              "value": 6,
              "code": "%",
              "system": "http://unitsofmeasure.org"
            }
          }
        ],
        "interpretation": [
          {
            "coding": [
              {
                "code": "L",
                "system": "http://terminology.hl7.org/CodeSystem/v3-ObservationInterpretation",
                "display": "Low"
              }
            ]
          }
        ],
        "text": {
          "status": "generated",
          "div": "<div xmlns=\"http://www.w3.org/1999/xhtml\"><table class=\"hl7__eu__lab__report\"><tr><th>Test</th><th>31-Jan-2016</th><th>Reference&#xA0;Range</th><th>Unit</th></tr><tr><td>Hemoglobin A1c/Hemoglobin.total in Blood</td><td>3.2</td><td>4 - 6</td><td>L</td><td>%</td></tr></table></div>"
        },
        "status": "final",
        "subject": {
          "reference": "urn:uuid:f3e98dd6-21e9-4cae-a9e9-50425a539574",
          "display": "Iva Kratochvílová"
        },
        "effectiveDateTime": "2016-01-31T16:10:29Z",
        "specimen": {
          "reference": "urn:uuid:1f37e0b4-f38d-43d1-8d47-2de1dae96c2d"
        }
      }
    },
    {
      "fullUrl": "urn:uuid:4d24982c-1090-4d43-aa02-9e2334ac1e66",
      "resource": {
        "resourceType": "Observation",
        "id": "4d24982c-1090-4d43-aa02-9e2334ac1e66",
        "meta": {
          "profile": [
            "http://hl7.eu/fhir/laboratory/StructureDefinition/Observation-resultslab-eu-lab"
          ]
        },
        "performer": [
          {
            "display": "The Central European Lab"
          }
        ],
        "category": [
          {
            "coding": [
              {
                "system": "http://terminology.hl7.org/CodeSystem/observation-category",
                "code": "laboratory"
              }
            ]
          }
        ],
        "code": {
          "coding": [
            {
              "code": "2339-0",
              "system": "http://loinc.org",
              "display": "Glucose [Mass/volume] in Blood"
            }
          ],
          "text": "Glucose [Mass/volume] in Blood"
        },
        "valueQuantity": {
          "system": "http://unitsofmeasure.org",
          "value": 79.2,
          "unit": "mg/dL",
          "code": "mg/dL"
        },
        "referenceRange": [
          {
            "low": {
              "value": 70,
              "code": "mg/dL",
              "system": "http://unitsofmeasure.org"
            }
          },
          {
            "high": {
              "value": 140,
              "code": "mg/dL",
              "system": "http://unitsofmeasure.org"
            }
          }
        ],
        "text": {
          "status": "generated",
          "div": "<div xmlns=\"http://www.w3.org/1999/xhtml\"><table class=\"hl7__eu__lab__report\"><tr><th>Test</th><th>31-Jan-2016</th><th>Reference&#xA0;Range</th><th>Unit</th></tr><tr><td>Glucose [Mass/volume] in Blood</td><td>79.2</td><td>70 - 140</td><td></td><td>mg/dL</td></tr></table></div>"
        },
        "status": "final",
        "subject": {
          "reference": "urn:uuid:f3e98dd6-21e9-4cae-a9e9-50425a539574",
          "display": "Iva Kratochvílová"
        },
        "effectiveDateTime": "2016-01-31T16:10:29Z",
        "specimen": {
          "reference": "urn:uuid:1f37e0b4-f38d-43d1-8d47-2de1dae96c2d"
        }
      }
    },
    {
      "fullUrl": "urn:uuid:32f21370-2f11-435c-ba23-b45e87691982",
      "resource": {
        "resourceType": "Observation",
        "id": "32f21370-2f11-435c-ba23-b45e87691982",
        "meta": {
          "profile": [
            "http://hl7.eu/fhir/laboratory/StructureDefinition/Observation-resultslab-eu-lab"
          ]
        },
        "performer": [
          {
            "display": "The Central European Lab"
          }
        ],
        "category": [
          {
            "coding": [
              {
                "system": "http://terminology.hl7.org/CodeSystem/observation-category",
                "code": "laboratory"
              }
            ]
          }
        ],
        "code": {
          "coding": [
            {
              "code": "6299-2",
              "system": "http://loinc.org",
              "display": "Urea nitrogen [Mass/volume] in Blood"
            }
          ],
          "text": "Urea nitrogen [Mass/volume] in Blood"
        },
        "valueQuantity": {
          "system": "http://unitsofmeasure.org",
          "value": 10.8,
          "unit": "mg/dL",
          "code": "mg/dL"
        },
        "referenceRange": [
          {
            "low": {
              "value": 7,
              "code": "mg/dL",
              "system": "http://unitsofmeasure.org"
            }
          },
          {
            "high": {
              "value": 25,
              "code": "mg/dL",
              "system": "http://unitsofmeasure.org"
            }
          }
        ],
        "text": {
          "status": "generated",
          "div": "<div xmlns=\"http://www.w3.org/1999/xhtml\"><table class=\"hl7__eu__lab__report\"><tr><th>Test</th><th>31-Jan-2016</th><th>Reference&#xA0;Range</th><th>Unit</th></tr><tr><td>Urea nitrogen [Mass/volume] in Blood</td><td>10.8</td><td>7 - 25</td><td></td><td>mg/dL</td></tr></table></div>"
        },
        "status": "final",
        "subject": {
          "reference": "urn:uuid:f3e98dd6-21e9-4cae-a9e9-50425a539574",
          "display": "Iva Kratochvílová"
        },
        "effectiveDateTime": "2016-01-31T16:10:29Z",
        "specimen": {
          "reference": "urn:uuid:1f37e0b4-f38d-43d1-8d47-2de1dae96c2d"
        }
      }
    },
    {
      "fullUrl": "urn:uuid:e729f7ac-ad12-4a53-aa2f-9d47188870cf",
      "resource": {
        "resourceType": "Observation",
        "id": "e729f7ac-ad12-4a53-aa2f-9d47188870cf",
        "meta": {
          "profile": [
            "http://hl7.eu/fhir/laboratory/StructureDefinition/Observation-resultslab-eu-lab"
          ]
        },
        "performer": [
          {
            "display": "The Central European Lab"
          }
        ],
        "category": [
          {
            "coding": [
              {
                "system": "http://terminology.hl7.org/CodeSystem/observation-category",
                "code": "laboratory"
              }
            ]
          }
        ],
        "code": {
          "coding": [
            {
              "code": "38483-4",
              "system": "http://loinc.org",
              "display": "Creatinine [Mass/volume] in Blood"
            }
          ],
          "text": "Creatinine [Mass/volume] in Blood"
        },
        "valueQuantity": {
          "system": "http://unitsofmeasure.org",
          "value": 6.6,
          "unit": "mg/dL",
          "code": "mg/dL"
        },
        "referenceRange": [
          {
            "low": {
              "value": 0.6,
              "code": "mg/dL",
              "system": "http://unitsofmeasure.org"
            }
          },
          {
            "high": {
              "value": 1.1,
              "code": "mg/dL",
              "system": "http://unitsofmeasure.org"
            }
          }
        ],
        "interpretation": [
          {
            "coding": [
              {
                "code": "H",
                "system": "http://terminology.hl7.org/CodeSystem/v3-ObservationInterpretation",
                "display": "High"
              }
            ]
          }
        ],
        "text": {
          "status": "generated",
          "div": "<div xmlns=\"http://www.w3.org/1999/xhtml\"><table class=\"hl7__eu__lab__report\"><tr><th>Test</th><th>31-Jan-2016</th><th>Reference&#xA0;Range</th><th>Unit</th></tr><tr><td>Creatinine [Mass/volume] in Blood</td><td>6.6</td><td>0.6 - 1.1</td><td>H</td><td>mg/dL</td></tr></table></div>"
        },
        "status": "final",
        "subject": {
          "reference": "urn:uuid:f3e98dd6-21e9-4cae-a9e9-50425a539574",
          "display": "Iva Kratochvílová"
        },
        "effectiveDateTime": "2016-01-31T16:10:29Z",
        "specimen": {
          "reference": "urn:uuid:1f37e0b4-f38d-43d1-8d47-2de1dae96c2d"
        }
      }
    },
    {
      "fullUrl": "urn:uuid:9bf36657-dcd5-41e6-86de-281ae2562d24",
      "resource": {
        "resourceType": "Observation",
        "id": "9bf36657-dcd5-41e6-86de-281ae2562d24",
        "meta": {
          "profile": [
            "http://hl7.eu/fhir/laboratory/StructureDefinition/Observation-resultslab-eu-lab"
          ]
        },
        "performer": [
          {
            "display": "The Central European Lab"
          }
        ],
        "category": [
          {
            "coding": [
              {
                "system": "http://terminology.hl7.org/CodeSystem/observation-category",
                "code": "laboratory"
              }
            ]
          }
        ],
        "code": {
          "coding": [
            {
              "code": "49765-1",
              "system": "http://loinc.org",
              "display": "Calcium [Mass/volume] in Blood"
            }
          ],
          "text": "Calcium [Mass/volume] in Blood"
        },
        "valueQuantity": {
          "system": "http://unitsofmeasure.org",
          "value": 9,
          "unit": "mg/dL",
          "code": "mg/dL"
        },
        "referenceRange": [
          {
            "low": {
              "value": 8.6,
              "code": "mg/dL",
              "system": "http://unitsofmeasure.org"
            }
          },
          {
            "high": {
              "value": 10.4,
              "code": "mg/dL",
              "system": "http://unitsofmeasure.org"
            }
          }
        ],
        "text": {
          "status": "generated",
          "div": "<div xmlns=\"http://www.w3.org/1999/xhtml\"><table class=\"hl7__eu__lab__report\"><tr><th>Test</th><th>31-Jan-2016</th><th>Reference&#xA0;Range</th><th>Unit</th></tr><tr><td>Calcium [Mass/volume] in Blood</td><td>9.0</td><td>8.6 - 10.4</td><td></td><td>mg/dL</td></tr></table></div>"
        },
        "status": "final",
        "subject": {
          "reference": "urn:uuid:f3e98dd6-21e9-4cae-a9e9-50425a539574",
          "display": "Iva Kratochvílová"
        },
        "effectiveDateTime": "2016-01-31T16:10:29Z",
        "specimen": {
          "reference": "urn:uuid:1f37e0b4-f38d-43d1-8d47-2de1dae96c2d"
        }
      }
    },
    {
      "fullUrl": "urn:uuid:910ed0d0-46cb-4886-94fa-db3be39da94d",
      "resource": {
        "resourceType": "Observation",
        "id": "910ed0d0-46cb-4886-94fa-db3be39da94d",
        "meta": {
          "profile": [
            "http://hl7.eu/fhir/laboratory/StructureDefinition/Observation-resultslab-eu-lab"
          ]
        },
        "performer": [
          {
            "display": "The Central European Lab"
          }
        ],
        "category": [
          {
            "coding": [
              {
                "system": "http://terminology.hl7.org/CodeSystem/observation-category",
                "code": "laboratory"
              }
            ]
          }
        ],
        "code": {
          "coding": [
            {
              "code": "2947-0",
              "system": "http://loinc.org",
              "display": "Sodium [Moles/volume] in Blood"
            }
          ],
          "text": "Sodium [Moles/volume] in Blood"
        },
        "valueQuantity": {
          "system": "http://unitsofmeasure.org",
          "value": 141.3,
          "unit": "mmol/L",
          "code": "mmol/L"
        },
        "referenceRange": [
          {
            "low": {
              "value": 135,
              "code": "mmol/L",
              "system": "http://unitsofmeasure.org"
            }
          },
          {
            "high": {
              "value": 145,
              "code": "mmol/L",
              "system": "http://unitsofmeasure.org"
            }
          }
        ],
        "text": {
          "status": "generated",
          "div": "<div xmlns=\"http://www.w3.org/1999/xhtml\"><table class=\"hl7__eu__lab__report\"><tr><th>Test</th><th>31-Jan-2016</th><th>Reference&#xA0;Range</th><th>Unit</th></tr><tr><td>Sodium [Moles/volume] in Blood</td><td>141.3</td><td>135 - 145</td><td></td><td>mmol/L</td></tr></table></div>"
        },
        "status": "final",
        "subject": {
          "reference": "urn:uuid:f3e98dd6-21e9-4cae-a9e9-50425a539574",
          "display": "Iva Kratochvílová"
        },
        "effectiveDateTime": "2016-01-31T16:10:29Z",
        "specimen": {
          "reference": "urn:uuid:1f37e0b4-f38d-43d1-8d47-2de1dae96c2d"
        }
      }
    },
    {
      "fullUrl": "urn:uuid:070cfaf2-ef43-4ea3-803a-f5fcc33ed03f",
      "resource": {
        "resourceType": "Observation",
        "id": "070cfaf2-ef43-4ea3-803a-f5fcc33ed03f",
        "meta": {
          "profile": [
            "http://hl7.eu/fhir/laboratory/StructureDefinition/Observation-resultslab-eu-lab"
          ]
        },
        "performer": [
          {
            "display": "The Central European Lab"
          }
        ],
        "category": [
          {
            "coding": [
              {
                "system": "http://terminology.hl7.org/CodeSystem/observation-category",
                "code": "laboratory"
              }
            ]
          }
        ],
        "code": {
          "coding": [
            {
              "code": "6298-4",
              "system": "http://loinc.org",
              "display": "Potassium [Moles/volume] in Blood"
            }
          ],
          "text": "Potassium [Moles/volume] in Blood"
        },
        "valueQuantity": {
          "system": "http://unitsofmeasure.org",
          "value": 4.7,
          "unit": "mmol/L",
          "code": "mmol/L"
        },
        "referenceRange": [
          {
            "low": {
              "value": 3.5,
              "code": "mmol/L",
              "system": "http://unitsofmeasure.org"
            }
          },
          {
            "high": {
              "value": 5.1,
              "code": "mmol/L",
              "system": "http://unitsofmeasure.org"
            }
          }
        ],
        "text": {
          "status": "generated",
          "div": "<div xmlns=\"http://www.w3.org/1999/xhtml\"><table class=\"hl7__eu__lab__report\"><tr><th>Test</th><th>31-Jan-2016</th><th>Reference&#xA0;Range</th><th>Unit</th></tr><tr><td>Potassium [Moles/volume] in Blood</td><td>4.7</td><td>3.5 - 5.1</td><td></td><td>mmol/L</td></tr></table></div>"
        },
        "status": "final",
        "subject": {
          "reference": "urn:uuid:f3e98dd6-21e9-4cae-a9e9-50425a539574",
          "display": "Iva Kratochvílová"
        },
        "effectiveDateTime": "2016-01-31T16:10:29Z",
        "specimen": {
          "reference": "urn:uuid:1f37e0b4-f38d-43d1-8d47-2de1dae96c2d"
        }
      }
    },
    {
      "fullUrl": "urn:uuid:47b1d659-7ad7-4362-b8ac-815af9e3152b",
      "resource": {
        "resourceType": "Observation",
        "id": "47b1d659-7ad7-4362-b8ac-815af9e3152b",
        "meta": {
          "profile": [
            "http://hl7.eu/fhir/laboratory/StructureDefinition/Observation-resultslab-eu-lab"
          ]
        },
        "performer": [
          {
            "display": "The Central European Lab"
          }
        ],
        "category": [
          {
            "coding": [
              {
                "system": "http://terminology.hl7.org/CodeSystem/observation-category",
                "code": "laboratory"
              }
            ]
          }
        ],
        "code": {
          "coding": [
            {
              "code": "2069-3",
              "system": "http://loinc.org",
              "display": "Chloride [Moles/volume] in Blood"
            }
          ],
          "text": "Chloride [Moles/volume] in Blood"
        },
        "valueQuantity": {
          "system": "http://unitsofmeasure.org",
          "value": 105.4,
          "unit": "mmol/L",
          "code": "mmol/L"
        },
        "referenceRange": [
          {
            "low": {
              "value": 98,
              "code": "mmol/L",
              "system": "http://unitsofmeasure.org"
            }
          },
          {
            "high": {
              "value": 110,
              "code": "mmol/L",
              "system": "http://unitsofmeasure.org"
            }
          }
        ],
        "text": {
          "status": "generated",
          "div": "<div xmlns=\"http://www.w3.org/1999/xhtml\"><table class=\"hl7__eu__lab__report\"><tr><th>Test</th><th>31-Jan-2016</th><th>Reference&#xA0;Range</th><th>Unit</th></tr><tr><td>Chloride [Moles/volume] in Blood</td><td>105.4</td><td>98 - 110</td><td></td><td>mmol/L</td></tr></table></div>"
        },
        "status": "final",
        "subject": {
          "reference": "urn:uuid:f3e98dd6-21e9-4cae-a9e9-50425a539574",
          "display": "Iva Kratochvílová"
        },
        "effectiveDateTime": "2016-01-31T16:10:29Z",
        "specimen": {
          "reference": "urn:uuid:1f37e0b4-f38d-43d1-8d47-2de1dae96c2d"
        }
      }
    },
    {
      "fullUrl": "urn:uuid:dcd00e56-f6ea-4e22-80d6-1aed33d0d598",
      "resource": {
        "resourceType": "Observation",
        "id": "dcd00e56-f6ea-4e22-80d6-1aed33d0d598",
        "meta": {
          "profile": [
            "http://hl7.eu/fhir/laboratory/StructureDefinition/Observation-resultslab-eu-lab"
          ]
        },
        "performer": [
          {
            "display": "The Central European Lab"
          }
        ],
        "category": [
          {
            "coding": [
              {
                "system": "http://terminology.hl7.org/CodeSystem/observation-category",
                "code": "laboratory"
              }
            ]
          }
        ],
        "code": {
          "coding": [
            {
              "code": "20565-8",
              "system": "http://loinc.org",
              "display": "Carbon dioxide, total [Moles/volume] in Blood"
            }
          ],
          "text": "Carbon dioxide, total [Moles/volume] in Blood"
        },
        "valueQuantity": {
          "system": "http://unitsofmeasure.org",
          "value": 24.6,
          "unit": "mmol/L",
          "code": "mmol/L"
        },
        "referenceRange": [
          {
            "low": {
              "value": 22,
              "code": "mmol/L",
              "system": "http://unitsofmeasure.org"
            }
          },
          {
            "high": {
              "value": 29,
              "code": "mmol/L",
              "system": "http://unitsofmeasure.org"
            }
          }
        ],
        "text": {
          "status": "generated",
          "div": "<div xmlns=\"http://www.w3.org/1999/xhtml\"><table class=\"hl7__eu__lab__report\"><tr><th>Test</th><th>31-Jan-2016</th><th>Reference&#xA0;Range</th><th>Unit</th></tr><tr><td>Carbon dioxide, total [Moles/volume] in Blood</td><td>24.6</td><td>22 - 29</td><td></td><td>mmol/L</td></tr></table></div>"
        },
        "status": "final",
        "subject": {
          "reference": "urn:uuid:f3e98dd6-21e9-4cae-a9e9-50425a539574",
          "display": "Iva Kratochvílová"
        },
        "effectiveDateTime": "2016-01-31T16:10:29Z",
        "specimen": {
          "reference": "urn:uuid:1f37e0b4-f38d-43d1-8d47-2de1dae96c2d"
        }
      }
    },
    {
      "fullUrl": "urn:uuid:940d3cf5-0333-4426-a6de-adfc508c5f0b",
      "resource": {
        "resourceType": "Observation",
        "id": "940d3cf5-0333-4426-a6de-adfc508c5f0b",
        "meta": {
          "profile": [
            "http://hl7.eu/fhir/laboratory/StructureDefinition/Observation-resultslab-eu-lab"
          ]
        },
        "performer": [
          {
            "display": "The Central European Lab"
          }
        ],
        "category": [
          {
            "coding": [
              {
                "system": "http://terminology.hl7.org/CodeSystem/observation-category",
                "code": "laboratory"
              }
            ]
          }
        ],
        "code": {
          "coding": [
            {
              "code": "2093-3",
              "system": "http://loinc.org",
              "display": "Cholesterol [Mass/volume] in Serum or Plasma"
            }
          ],
          "text": "Cholesterol [Mass/volume] in Serum or Plasma"
        },
        "valueQuantity": {
          "system": "http://unitsofmeasure.org",
          "value": 125,
          "unit": "mg/dL",
          "code": "mg/dL"
        },
        "referenceRange": [
          {
            "low": {
              "value": 130,
              "code": "mg/dL",
              "system": "http://unitsofmeasure.org"
            }
          },
          {
            "high": {
              "value": 200,
              "code": "mg/dL",
              "system": "http://unitsofmeasure.org"
            }
          }
        ],
        "interpretation": [
          {
            "coding": [
              {
                "code": "L",
                "system": "http://terminology.hl7.org/CodeSystem/v3-ObservationInterpretation",
                "display": "Low"
              }
            ]
          }
        ],
        "text": {
          "status": "generated",
          "div": "<div xmlns=\"http://www.w3.org/1999/xhtml\"><table class=\"hl7__eu__lab__report\"><tr><th>Test</th><th>31-Jan-2016</th><th>Reference&#xA0;Range</th><th>Unit</th></tr><tr><td>Cholesterol [Mass/volume] in Serum or Plasma</td><td>125.0</td><td>130 - 200</td><td>L</td><td>mg/dL</td></tr></table></div>"
        },
        "status": "final",
        "subject": {
          "reference": "urn:uuid:f3e98dd6-21e9-4cae-a9e9-50425a539574",
          "display": "Iva Kratochvílová"
        },
        "effectiveDateTime": "2016-01-31T16:10:29Z",
        "specimen": {
          "reference": "urn:uuid:71ff6e95-6770-4a78-af1f-a4e08952dda3"
        }
      }
    },
    {
      "fullUrl": "urn:uuid:9026d976-4785-46c1-836d-9e72dc355e98",
      "resource": {
        "resourceType": "Observation",
        "id": "9026d976-4785-46c1-836d-9e72dc355e98",
        "meta": {
          "profile": [
            "http://hl7.eu/fhir/laboratory/StructureDefinition/Observation-resultslab-eu-lab"
          ]
        },
        "performer": [
          {
            "display": "The Central European Lab"
          }
        ],
        "category": [
          {
            "coding": [
              {
                "system": "http://terminology.hl7.org/CodeSystem/observation-category",
                "code": "laboratory"
              }
            ]
          }
        ],
        "code": {
          "coding": [
            {
              "code": "2571-8",
              "system": "http://loinc.org",
              "display": "Triglyceride [Mass/volume] in Serum or Plasma"
            }
          ],
          "text": "Triglyceride [Mass/volume] in Serum or Plasma"
        },
        "valueQuantity": {
          "system": "http://unitsofmeasure.org",
          "value": 106.4,
          "unit": "mg/dL",
          "code": "mg/dL"
        },
        "referenceRange": [
          {
            "low": {
              "value": 35,
              "code": "mg/dL",
              "system": "http://unitsofmeasure.org"
            }
          },
          {
            "high": {
              "value": 150,
              "code": "mg/dL",
              "system": "http://unitsofmeasure.org"
            }
          }
        ],
        "text": {
          "status": "generated",
          "div": "<div xmlns=\"http://www.w3.org/1999/xhtml\"><table class=\"hl7__eu__lab__report\"><tr><th>Test</th><th>31-Jan-2016</th><th>Reference&#xA0;Range</th><th>Unit</th></tr><tr><td>Triglyceride [Mass/volume] in Serum or Plasma</td><td>106.4</td><td>35 - 150</td><td></td><td>mg/dL</td></tr></table></div>"
        },
        "status": "final",
        "subject": {
          "reference": "urn:uuid:f3e98dd6-21e9-4cae-a9e9-50425a539574",
          "display": "Iva Kratochvílová"
        },
        "effectiveDateTime": "2016-01-31T16:10:29Z",
        "specimen": {
          "reference": "urn:uuid:71ff6e95-6770-4a78-af1f-a4e08952dda3"
        }
      }
    },
    {
      "fullUrl": "urn:uuid:05d4db0b-7569-4d1a-8bcc-a91079a6ea9a",
      "resource": {
        "resourceType": "Observation",
        "id": "05d4db0b-7569-4d1a-8bcc-a91079a6ea9a",
        "meta": {
          "profile": [
            "http://hl7.eu/fhir/laboratory/StructureDefinition/Observation-resultslab-eu-lab"
          ]
        },
        "performer": [
          {
            "display": "The Central European Lab"
          }
        ],
        "category": [
          {
            "coding": [
              {
                "system": "http://terminology.hl7.org/CodeSystem/observation-category",
                "code": "laboratory"
              }
            ]
          }
        ],
        "code": {
          "coding": [
            {
              "code": "18262-6",
              "system": "http://loinc.org",
              "display": "Cholesterol in LDL [Mass/volume] in Serum or Plasma by Direct assay"
            }
          ],
          "text": "Cholesterol in LDL [Mass/volume] in Serum or Plasma by Direct assay"
        },
        "valueQuantity": {
          "system": "http://unitsofmeasure.org",
          "value": 56.8,
          "unit": "mg/dL",
          "code": "mg/dL"
        },
        "referenceRange": [
          {
            "low": {
              "value": 0,
              "code": "mg/dL",
              "system": "http://unitsofmeasure.org"
            }
          },
          {
            "high": {
              "value": 130,
              "code": "mg/dL",
              "system": "http://unitsofmeasure.org"
            }
          }
        ],
        "text": {
          "status": "generated",
          "div": "<div xmlns=\"http://www.w3.org/1999/xhtml\"><table class=\"hl7__eu__lab__report\"><tr><th>Test</th><th>31-Jan-2016</th><th>Reference&#xA0;Range</th><th>Unit</th></tr><tr><td>Cholesterol in LDL [Mass/volume] in Serum or Plasma by Direct assay</td><td>56.8</td><td>0 - 130</td><td></td><td>mg/dL</td></tr></table></div>"
        },
        "status": "final",
        "subject": {
          "reference": "urn:uuid:f3e98dd6-21e9-4cae-a9e9-50425a539574",
          "display": "Iva Kratochvílová"
        },
        "effectiveDateTime": "2016-01-31T16:10:29Z",
        "specimen": {
          "reference": "urn:uuid:71ff6e95-6770-4a78-af1f-a4e08952dda3"
        }
      }
    },
    {
      "fullUrl": "urn:uuid:5ff1dc3f-ed1f-4fe2-ae56-29545cceabb1",
      "resource": {
        "resourceType": "Observation",
        "id": "5ff1dc3f-ed1f-4fe2-ae56-29545cceabb1",
        "meta": {
          "profile": [
            "http://hl7.eu/fhir/laboratory/StructureDefinition/Observation-resultslab-eu-lab"
          ]
        },
        "performer": [
          {
            "display": "The Central European Lab"
          }
        ],
        "category": [
          {
            "coding": [
              {
                "system": "http://terminology.hl7.org/CodeSystem/observation-category",
                "code": "laboratory"
              }
            ]
          }
        ],
        "code": {
          "coding": [
            {
              "code": "2085-9",
              "system": "http://loinc.org",
              "display": "Cholesterol in HDL [Mass/volume] in Serum or Plasma"
            }
          ],
          "text": "Cholesterol in HDL [Mass/volume] in Serum or Plasma"
        },
        "valueQuantity": {
          "system": "http://unitsofmeasure.org",
          "value": 47,
          "unit": "mg/dL",
          "code": "mg/dL"
        },
        "referenceRange": [
          {
            "low": {
              "value": 50,
              "code": "mg/dL",
              "system": "http://unitsofmeasure.org"
            }
          },
          {
            "high": {
              "value": 100,
              "code": "mg/dL",
              "system": "http://unitsofmeasure.org"
            }
          }
        ],
        "interpretation": [
          {
            "coding": [
              {
                "code": "L",
                "system": "http://terminology.hl7.org/CodeSystem/v3-ObservationInterpretation",
                "display": "Low"
              }
            ]
          }
        ],
        "text": {
          "status": "generated",
          "div": "<div xmlns=\"http://www.w3.org/1999/xhtml\"><table class=\"hl7__eu__lab__report\"><tr><th>Test</th><th>31-Jan-2016</th><th>Reference&#xA0;Range</th><th>Unit</th></tr><tr><td>Cholesterol in HDL [Mass/volume] in Serum or Plasma</td><td>47.0</td><td>50 - 100</td><td>L</td><td>mg/dL</td></tr></table></div>"
        },
        "status": "final",
        "subject": {
          "reference": "urn:uuid:f3e98dd6-21e9-4cae-a9e9-50425a539574",
          "display": "Iva Kratochvílová"
        },
        "effectiveDateTime": "2016-01-31T16:10:29Z",
        "specimen": {
          "reference": "urn:uuid:71ff6e95-6770-4a78-af1f-a4e08952dda3"
        }
      }
    },
    {
      "fullUrl": "urn:uuid:af1d456c-adc9-449e-b70b-5faccc9d4352",
      "resource": {
        "resourceType": "Device",
        "id": "af1d456c-adc9-449e-b70b-5faccc9d4352",
        "deviceName": [
          {
            "name": "SYNDERAI Synthetic Generator",
            "type": "manufacturer-name"
          }
        ],
        "version": [
          {
            "value": "5.0"
          }
        ],
        "text": {
          "status": "generated",
          "div": "<div xmlns=\"http://www.w3.org/1999/xhtml\">SYNDERAI Synthetic Generator v5.0</div>"
        },
        "status": "active\"",
        "distinctIdentifier": "synderai-generator-50",
        "manufacturer": "SYNDERAI Project"
      }
    },
    {
      "fullUrl": "urn:uuid:7377df4b-1eaf-4308-b093-ec817a6a5fb2",
      "resource": {
        "resourceType": "Provenance",
        "id": "7377df4b-1eaf-4308-b093-ec817a6a5fb2",
        "target": [
          {
            "reference": "Patient/f3e98dd6-21e9-4cae-a9e9-50425a539574"
          },
          {
            "reference": "Bundle/8c81b0f0-ac1f-432d-b77a-51072befb742"
          },
          {
            "reference": "Composition/848ec3f3-d57b-497c-ba52-ef819c80054f"
          },
          {
            "reference": "PractitionerRole/982bcc25-8754-4771-a4fe-30b0306cc978"
          },
          {
            "reference": "Practitioner/40ab8916-2964-4a56-a0e8-37805594e45a"
          },
          {
            "reference": "PractitionerRole/8c970481-e0af-4bac-a5d5-1b674387fb3e"
          },
          {
            "reference": "Organization/19a030e9-7bb7-4616-8bf9-bc9682a2c757"
          }
        ],
        "activity": {
          "text": "Synthetic Example Data Generation"
        },
        "policy": [
          "https://synderai.net/synderai-synthetic-data-policy"
        ],
        "agent": [
          {
            "type": {
              "text": "author"
            },
            "who": {
              "reference": "Device/af1d456c-adc9-449e-b70b-5faccc9d4352"
            }
          }
        ],
        "reason": [
          {
            "text": "Interoperability Testing and Training (non-clinical use)"
          }
        ],
        "text": {
          "status": "generated",
          "div": "<div xmlns=\"http://www.w3.org/1999/xhtml\">Provenance for SYNDERAI Synthetic Example Data Resource</div>"
        },
        "recorded": "2016-01-31T17:10:29Z"
      }
    },
    {
      "fullUrl": "urn:uuid:982bcc25-8754-4771-a4fe-30b0306cc978",
      "resource": {
        "resourceType": "PractitionerRole",
        "id": "982bcc25-8754-4771-a4fe-30b0306cc978",
        "meta": {
          "profile": [
            "http://hl7.eu/fhir/base/StructureDefinition/practitionerRole-eu"
          ]
        },
        "text": {
          "status": "generated",
          "div": "<div xmlns=\"http://www.w3.org/1999/xhtml\">Laboratory Role Id: 982bcc25-8754-4771-a4fe-30b0306cc978</div>"
        },
        "practitioner": {
          "reference": "urn:uuid:40ab8916-2964-4a56-a0e8-37805594e45a"
        }
      }
    },
    {
      "fullUrl": "urn:uuid:40ab8916-2964-4a56-a0e8-37805594e45a",
      "resource": {
        "resourceType": "Practitioner",
        "id": "40ab8916-2964-4a56-a0e8-37805594e45a",
        "meta": {
          "profile": [
            "http://hl7.eu/fhir/base/StructureDefinition/practitioner-eu"
          ]
        },
        "identifier": [
          {
            "assigner": {
              "display": "HL7 Europe"
            },
            "system": "urn:oid:2.16.840.1.113883.2.51.999",
            "value": "1a195316-45a6-425a-bf65-403b5822fb16"
          }
        ],
        "name": [
          {
            "prefix": [
              "dr"
            ],
            "given": [
              "Ex"
            ],
            "family": "Ample"
          }
        ],
        "address": [
          {
            "line": [
              "Laboratoire Central Européenne",
              "Boulevard du Jardin Botanique 32"
            ],
            "postalCode": "1000",
            "city": "Brussels",
            "country": "Belgium"
          }
        ],
        "text": {
          "status": "generated",
          "div": "<div xmlns=\"http://www.w3.org/1999/xhtml\">Laboratory: Laboratoire Central Européenne, 1000 Brussels, Belgium</div>"
        }
      }
    }
  ],
  "type": "document",
  "timestamp": "2016-01-31T17:10:29Z"
}
