<Bundle xmlns="http://hl7.org/fhir">
   <id value="6e68767f-e669-42e5-a6d5-25a040280566"/>
   <meta>
      <profile value="http://hl7.eu/fhir/laboratory/StructureDefinition/Bundle-eu-lab"/>
   </meta>
   <identifier>
      <system value="urn:oid:2.16.840.1.113883.2.51.999"/>
      <value value="86968e26-9d78-413a-ac14-d06e76783fec"/>
      <assigner>
         <display value="HL7 Europe"/>
      </assigner>
   </identifier>
   <type value="document"/>
   <timestamp value="2023-02-25T00:08:09Z"/>
   <entry>
      <fullUrl value="urn:uuid:985d3480-ba85-4a4c-b886-e80bfcfd0196"/>
      <resource>
         <Composition>
            <id value="985d3480-ba85-4a4c-b886-e80bfcfd0196"/>
            <meta>
               <profile value="http://hl7.eu/fhir/laboratory/StructureDefinition/Composition-eu-lab"/>
            </meta>
            <identifier>
               <system value="urn:oid:2.16.840.1.113883.2.51.999"/>
               <value value="a7edc1cf-b873-4a3f-96a9-2775e54565e3"/>
               <assigner>
                  <display value="HL7 Europe"/>
               </assigner>
            </identifier>
            <status value="final"/>
            <type>
               <coding>
                  <system value="http://loinc.org"/>
                  <code value="11502-2"/>
                  <display value="Laboratory report"/>
               </coding>
               <text value="Laboratory Report"/>
            </type>
            <category>
               <coding>
                  <system value="http://loinc.org"/>
                  <code value="26436-6"/>
                  <display value="Laboratory studies (set)"/>
               </coding>
            </category>
            <subject>
               <reference value="urn:uuid:176e40ee-79dd-415b-8b4d-bb5428284336"/>
               <display value="Lydia Ward"/>
            </subject>
            <date value="2023-02-25T00:08:09Z"/>
            <author>
               <reference value="urn:uuid:bd64adf1-d954-40c5-878d-ab992d1a64d6"/>
            </author>
            <title value="Laboratory Report"/>
            <confidentiality value="N"/>
            <section>
               <title value="Laboratory Report"/>
               <code>
                  <coding>
                     <system value="http://loinc.org"/>
                     <code value="26436-6"/>
                     <display value="Laboratory studies (set)"/>
                  </coding>
                  <text value="Laboratory studies"/>
               </code>
               <section>
                  <title value="Hematology"/>
                  <code>
                     <coding>
                        <system value="http://loinc.org"/>
                        <code value="$18723-7"/>
                        <display value="Hematology studies (set)"/>
                     </coding>
                     <text value="Hematology"/>
                  </code>
                  <text>
                     <status value="generated"/>
                     <div xmlns="http://www.w3.org/1999/xhtml">
                        <h3>Hematology</h3>
                        <table class="hl7__eu__lab__report">
                           <thead>
                              <tr>
                                 <th>Test</th>
                                 <th>25-FEB-2023</th>
                                 <th>Reference Range</th>
                                 <th>Unit</th>
                              </tr>
                           </thead>
                           <tbody>
                              <tr>
                                 <td>Leukocytes [#/volume] in Blood by Automated count</td>
                                 <td>7.0</td>
                                 <td>3.4 - 10.5</td>
                                 <td>10*3/uL</td>
                              </tr>
                              <tr>
                                 <td>Erythrocytes [#/volume] in Blood by Automated count</td>
                                 <td>4.9</td>
                                 <td>4.2 - 5.2</td>
                                 <td>10*6/uL</td>
                              </tr>
                              <tr>
                                 <td>Hemoglobin [Mass/volume] in Blood</td>
                                 <td>13.7</td>
                                 <td>12 - 16</td>
                                 <td>g/dL</td>
                              </tr>
                              <tr>
                                 <td>Hematocrit [Volume Fraction] of Blood by Automated count</td>
                                 <td>48.1</td>
                                 <td>38 - 54</td>
                                 <td>%</td>
                              </tr>
                              <tr>
                                 <td>MCV [Entitic volume] by Automated count</td>
                                 <td>82.5</td>
                                 <td>82 - 98</td>
                                 <td>fL</td>
                              </tr>
                              <tr>
                                 <td>MCH [Entitic mass] by Automated count</td>
                                 <td>28.2</td>
                                 <td>27 - 33</td>
                                 <td>pg</td>
                              </tr>
                              <tr>
                                 <td>MCHC [Mass/volume] by Automated count</td>
                                 <td>
                                    <strong>35.9 H</strong>
                                 </td>
                                 <td>32 - 35.5</td>
                                 <td>g/dL</td>
                              </tr>
                              <tr>
                                 <td>Erythrocyte distribution width [Entitic volume] by Automated count</td>
                                 <td>44.2</td>
                                 <td>36 - 56</td>
                                 <td>fL</td>
                              </tr>
                              <tr>
                                 <td>Platelets [#/volume] in Blood by Automated count</td>
                                 <td>379.8</td>
                                 <td>150 - 450</td>
                                 <td>10*3/uL</td>
                              </tr>
                              <tr>
                                 <td>Platelet distribution width [Entitic volume] in Blood by Automated count</td>
                                 <td>268.5</td>
                                 <td>150 - 450</td>
                                 <td>fL</td>
                              </tr>
                              <tr>
                                 <td>Platelet mean volume [Entitic volume] in Blood by Automated count</td>
                                 <td>11.5</td>
                                 <td>7.4 - 13.8</td>
                                 <td>fL</td>
                              </tr>
                           </tbody>
                        </table>
                     </div>
                  </text>
                  <entry>
                     <reference value="urn:uuid:f8386e9d-5733-4d62-a3b5-7d808c98d46e"/>
                  </entry>
                  <entry>
                     <reference value="urn:uuid:74f04829-004d-46f1-875d-b98b71ccccf9"/>
                  </entry>
                  <entry>
                     <reference value="urn:uuid:615cbd38-ceb3-4a38-9769-7513d1c711dd"/>
                  </entry>
                  <entry>
                     <reference value="urn:uuid:bdbcd494-df42-4c64-a052-286734219aa5"/>
                  </entry>
                  <entry>
                     <reference value="urn:uuid:32966cfb-e0ca-403e-8cbb-47cda1174692"/>
                  </entry>
                  <entry>
                     <reference value="urn:uuid:14dc2a4f-0f85-4e7f-94e6-ef5eb365f2f4"/>
                  </entry>
                  <entry>
                     <reference value="urn:uuid:600a72a6-0e9d-4a4d-8329-f73e5de4132d"/>
                  </entry>
                  <entry>
                     <reference value="urn:uuid:f73e0235-34a8-409e-b857-b1866bf6102c"/>
                  </entry>
                  <entry>
                     <reference value="urn:uuid:e1a88202-68d6-4fba-ba75-4fc6b431bd4f"/>
                  </entry>
                  <entry>
                     <reference value="urn:uuid:943beb9e-05ac-4926-9a40-c444730a8755"/>
                  </entry>
                  <entry>
                     <reference value="urn:uuid:91ce23bb-67f1-4989-857b-13b5f14a6689"/>
                  </entry>
               </section>
               <section>
                  <title value="Chemistry"/>
                  <code>
                     <coding>
                        <system value="http://loinc.org"/>
                        <code value="$18719-5"/>
                        <display value="Chemistry studies (set)"/>
                     </coding>
                     <text value="Chemistry"/>
                  </code>
                  <text>
                     <status value="generated"/>
                     <div xmlns="http://www.w3.org/1999/xhtml">
                        <h3>Chemistry</h3>
                        <table class="hl7__eu__lab__report">
                           <thead>
                              <tr>
                                 <th>Test</th>
                                 <th>25-FEB-2023</th>
                                 <th>Reference Range</th>
                                 <th>Unit</th>
                              </tr>
                           </thead>
                           <tbody>
                              <tr>
                                 <td>Hemoglobin A1c/Hemoglobin.total in Blood</td>
                                 <td>6.0</td>
                                 <td>4 - 6</td>
                                 <td>%</td>
                              </tr>
                              <tr>
                                 <td>Glucose [Mass/volume] in Blood</td>
                                 <td>
                                    <strong>66.0 L</strong>
                                 </td>
                                 <td>70 - 140</td>
                                 <td>mg/dL</td>
                              </tr>
                              <tr>
                                 <td>Urea nitrogen [Mass/volume] in Blood</td>
                                 <td>12.3</td>
                                 <td>7 - 45</td>
                                 <td>mg/dL</td>
                              </tr>
                              <tr>
                                 <td>Creatinine [Mass/volume] in Blood</td>
                                 <td>0.8</td>
                                 <td>0.6 - 1.1</td>
                                 <td>mg/dL</td>
                              </tr>
                              <tr>
                                 <td>Calcium [Mass/volume] in Blood</td>
                                 <td>10.1</td>
                                 <td>8.5 - 10.5</td>
                                 <td>mg/dL</td>
                              </tr>
                              <tr>
                                 <td>Sodium [Moles/volume] in Blood</td>
                                 <td>136.5</td>
                                 <td>135 - 145</td>
                                 <td>mmol/L</td>
                              </tr>
                              <tr>
                                 <td>Potassium [Moles/volume] in Blood</td>
                                 <td>4.7</td>
                                 <td>3.5 - 5.1</td>
                                 <td>mmol/L</td>
                              </tr>
                              <tr>
                                 <td>Chloride [Moles/volume] in Blood</td>
                                 <td>
                                    <strong>110.2 H</strong>
                                 </td>
                                 <td>98 - 107</td>
                                 <td>mmol/L</td>
                              </tr>
                              <tr>
                                 <td>Carbon dioxide, total [Moles/volume] in Blood</td>
                                 <td>24.4</td>
                                 <td>22 - 32</td>
                                 <td>mmol/L</td>
                              </tr>
                           </tbody>
                        </table>
                     </div>
                  </text>
                  <entry>
                     <reference value="urn:uuid:484a9c13-c47e-45d8-a738-8c3074a59c0c"/>
                  </entry>
                  <entry>
                     <reference value="urn:uuid:adef5ff6-3c3b-47dd-b06e-36ba377a63f0"/>
                  </entry>
                  <entry>
                     <reference value="urn:uuid:9327acf9-c525-4d09-b8bf-3bf8cf2d0a55"/>
                  </entry>
                  <entry>
                     <reference value="urn:uuid:3eaf9a74-f42e-4d83-b788-d211332854ab"/>
                  </entry>
                  <entry>
                     <reference value="urn:uuid:747b422d-1263-471f-9e8c-8ef69ec000b9"/>
                  </entry>
                  <entry>
                     <reference value="urn:uuid:ed7a3276-dfcf-4c3b-8585-2cf7bf7d9cb8"/>
                  </entry>
                  <entry>
                     <reference value="urn:uuid:e58aa216-cc3c-47a5-8139-023a09df55e7"/>
                  </entry>
                  <entry>
                     <reference value="urn:uuid:c9550acc-3bb6-42a7-915f-a754aad9bfb8"/>
                  </entry>
                  <entry>
                     <reference value="urn:uuid:7851ef25-d78a-468a-83c6-c1dca47086a7"/>
                  </entry>
               </section>
            </section>
            <section>
               <title value="Annotation comment"/>
               <code>
                  <coding>
                     <system value="http://loinc.org"/>
                     <code value="48767-8"/>
                     <display value="Annotation comment"/>
                  </coding>
               </code>
               <text>
                  <status value="generated"/>
                  <div xmlns="http://www.w3.org/1999/xhtml">
                     <h3>Annotation</h3>
                     <table class="hl7__eu__lab__report">
                        <tr>
                           <th>Conclusion and Recommendations based on this report and previous findings known to us</th>
                        </tr>
                        <tr>
                           <td>Most parameters are within normal limits. Notable findings include mildly elevated HbA1c (6.0%, at upper limit), suggesting possible impaired glucose tolerance or early diabetes, and low fasting glucose (66 mg/dL), which may indicate hypoglycemia-clinical correlation is advised. Chloride and MCHC are slightly elevated but likely not clinically significant in isolation. Renal function, electrolytes, and blood counts are otherwise unremarkable. Recommend clinical follow-up for glucose metabolism assessment.</td>
                        </tr>
                     </table>
                  </div>
               </text>
            </section>
         </Composition>
      </resource>
   </entry>
   <entry>
      <fullUrl value="urn:uuid:c5581920-d0f9-4b21-b888-8295c1472ec4"/>
      <resource>
         <DiagnosticReport>
            <id value="c5581920-d0f9-4b21-b888-8295c1472ec4"/>
            <meta>
               <profile value="http://hl7.eu/fhir/laboratory/StructureDefinition/DiagnosticReport-eu-lab"/>
            </meta>
            <extension url="http://hl7.org/fhir/5.0/StructureDefinition/extension-DiagnosticReport.composition">
               <valueReference>
                  <reference value="urn:uuid:a7edc1cf-b873-4a3f-96a9-2775e54565e3"/>
               </valueReference>
            </extension>
            <identifier>
               <system value="urn:oid:2.16.840.1.113883.2.51.999"/>
               <value value="7a715344-ae0b-4282-8f43-7b4185f29ec7"/>
               <assigner>
                  <display value="HL7 Europe"/>
               </assigner>
            </identifier>
            <status value="registered"/>
            <category>
               <coding>
                  <system value="http://loinc.org"/>
                  <code value="26436-6"/>
                  <display value="Laboratory studies (set)"/>
               </coding>
            </category>
            <code>
               <coding>
                  <system value="http://loinc.org"/>
                  <code value="11502-2"/>
                  <display value="Laboratory report"/>
               </coding>
            </code>
            <subject>
               <reference value="urn:uuid:176e40ee-79dd-415b-8b4d-bb5428284336"/>
               <display value="Lydia Ward"/>
            </subject>
            <specimen>
               <reference value="urn:uuid:7baa50d1-b891-4efe-9623-75ba2fdfd172"/>
            </specimen>
            <specimen>
               <reference value="urn:uuid:7baa50d1-b891-4efe-9623-75ba2fdfd172"/>
            </specimen>
            <result>
               <reference value="urn:uuid:484a9c13-c47e-45d8-a738-8c3074a59c0c"/>
            </result>
            <result>
               <reference value="urn:uuid:adef5ff6-3c3b-47dd-b06e-36ba377a63f0"/>
            </result>
            <result>
               <reference value="urn:uuid:9327acf9-c525-4d09-b8bf-3bf8cf2d0a55"/>
            </result>
            <result>
               <reference value="urn:uuid:3eaf9a74-f42e-4d83-b788-d211332854ab"/>
            </result>
            <result>
               <reference value="urn:uuid:747b422d-1263-471f-9e8c-8ef69ec000b9"/>
            </result>
            <result>
               <reference value="urn:uuid:ed7a3276-dfcf-4c3b-8585-2cf7bf7d9cb8"/>
            </result>
            <result>
               <reference value="urn:uuid:e58aa216-cc3c-47a5-8139-023a09df55e7"/>
            </result>
            <result>
               <reference value="urn:uuid:c9550acc-3bb6-42a7-915f-a754aad9bfb8"/>
            </result>
            <result>
               <reference value="urn:uuid:7851ef25-d78a-468a-83c6-c1dca47086a7"/>
            </result>
            <result>
               <reference value="urn:uuid:f8386e9d-5733-4d62-a3b5-7d808c98d46e"/>
            </result>
            <result>
               <reference value="urn:uuid:74f04829-004d-46f1-875d-b98b71ccccf9"/>
            </result>
            <result>
               <reference value="urn:uuid:615cbd38-ceb3-4a38-9769-7513d1c711dd"/>
            </result>
            <result>
               <reference value="urn:uuid:bdbcd494-df42-4c64-a052-286734219aa5"/>
            </result>
            <result>
               <reference value="urn:uuid:32966cfb-e0ca-403e-8cbb-47cda1174692"/>
            </result>
            <result>
               <reference value="urn:uuid:14dc2a4f-0f85-4e7f-94e6-ef5eb365f2f4"/>
            </result>
            <result>
               <reference value="urn:uuid:600a72a6-0e9d-4a4d-8329-f73e5de4132d"/>
            </result>
            <result>
               <reference value="urn:uuid:f73e0235-34a8-409e-b857-b1866bf6102c"/>
            </result>
            <result>
               <reference value="urn:uuid:e1a88202-68d6-4fba-ba75-4fc6b431bd4f"/>
            </result>
            <result>
               <reference value="urn:uuid:943beb9e-05ac-4926-9a40-c444730a8755"/>
            </result>
            <result>
               <reference value="urn:uuid:91ce23bb-67f1-4989-857b-13b5f14a6689"/>
            </result>
         </DiagnosticReport>
      </resource>
   </entry>
   <entry>
      <fullUrl value="urn:uuid:176e40ee-79dd-415b-8b4d-bb5428284336"/>
      <resource>
         <Patient>
            <id value="176e40ee-79dd-415b-8b4d-bb5428284336"/>
            <meta>
               <profile value="http://hl7.eu/fhir/base/StructureDefinition/patient-eu-core"/>
               <security>
                  <system value="http://terminology.hl7.org/CodeSystem/v3-ActReason"/>
                  <code value="HTEST"/>
               </security>
               <security>
                  <system value="http://terminology.hl7.org/CodeSystem/v3-ActReason"/>
                  <code value="TRAIN"/>
               </security>
               <tag>
                  <system value="https://synderai.net/fhir/CodeSystem/tags"/>
                  <code value="synthetic"/>
                  <display value="SYNDERAI Synthetic data"/>
               </tag>
            </meta>
            <text>
               <status value="generated"/>
               <div xmlns="http://www.w3.org/1999/xhtml">
                  <table class="hl7__ips">
                     <tr>
                        <td>Lydia Ward</td>
                        <td>female</td>
                        <td>27-Dec-1968</td>
                     </tr>
                  </table>
               </div>
            </text>
            <extension url="http://hl7.org/fhir/StructureDefinition/patient-nationality">
               <valueCodeableConcept>
                  <coding>
                     <system value="http://hl7.org/fhir/ValueSet/country"/>
                     <code value="GB"/>
                  </coding>
               </valueCodeableConcept>
            </extension>
            <identifier>
               <type>
                  <coding>
                     <system value="http://terminology.hl7.org/CodeSystem/v2-0203"/>
                     <code value="PT"/>
                  </coding>
               </type>
               <system value="http://ec.europa.eu/identifier/eci"/>
               <value value="8944-364030-8"/>
            </identifier>
            <identifier>
               <type>
                  <coding>
                     <system value="http://terminology.hl7.org/CodeSystem/v2-0203"/>
                     <code value="MR"/>
                  </coding>
               </type>
               <system value="http://local.setting.eu/identifier"/>
               <value value="9edf6b8d-b276-7218-98c6-ccf8d15f2a01"/>
            </identifier>
            <name>
               <family value="Ward"/>
            </name>
            <name>
               <given value="Lydia"/>
            </name>
            <name>
               <text value="Lydia Ward"/>
            </name>
            <telecom>
               <system value="phone"/>
               <value value="01144960349"/>
            </telecom>
            <gender value="female"/>
            <birthDate value="1968-12-27"/>
            <address>
               <use value="home"/>
               <type value="physical"/>
               <line value="6 Hunt radial"/>
               <city value="South Rosieside"/>
               <postalCode value="EH33"/>
               <country value="United Kingdom"/>
            </address>
         </Patient>
      </resource>
   </entry>
   <entry>
      <fullUrl value="urn:uuid:7a2f167b-81ef-4112-8044-1efb125666a1"/>
      <resource>
         <ServiceRequest>
            <id value="7a2f167b-81ef-4112-8044-1efb125666a1"/>
            <meta>
               <profile value="http://hl7.eu/fhir/laboratory/StructureDefinition/ServiceRequest-eu-lab"/>
            </meta>
            <identifier>
               <system value="http://example.org"/>
               <value value="afc5517f-70bf-4061-ae6a-1496a3b76f76"/>
            </identifier>
            <status value="active"/>
            <intent value="order"/>
            <code>
               <coding>
                  <system value="http://snomed.info/sct"/>
                  <code value="108252007"/>
                  <display value="Laboratory procedure"/>
               </coding>
            </code>
            <subject>
               <reference value="urn:uuid:176e40ee-79dd-415b-8b4d-bb5428284336"/>
               <display value="Lydia Ward"/>
            </subject>
            <requester>
               <reference value="urn:uuid:51429323-4b7e-4896-a312-4153bd13e14f"/>
            </requester>
            <reasonCode>
               <coding>
                  <system value="http://snomed.info/sct"/>
                  <code value="271737000"/>
                  <display value="Anemia"/>
               </coding>
            </reasonCode>
            <reasonCode>
               <coding>
                  <system value="http://snomed.info/sct"/>
                  <code value="15777000"/>
                  <display value="Prediabetes"/>
               </coding>
            </reasonCode>
            <specimen>
               <reference value="urn:uuid:7baa50d1-b891-4efe-9623-75ba2fdfd172"/>
            </specimen>
         </ServiceRequest>
      </resource>
   </entry>
   <entry>
      <fullUrl value="urn:uuid:51429323-4b7e-4896-a312-4153bd13e14f"/>
      <resource>
         <PractitionerRole>
            <id value="51429323-4b7e-4896-a312-4153bd13e14f"/>
            <meta>
               <profile value="http://hl7.eu/fhir/base/StructureDefinition/practitionerRole-eu"/>
            </meta>
            <text>
               <status value="generated"/>
               <div xmlns="http://www.w3.org/1999/xhtml">Provider Role Id: 51429323-4b7e-4896-a312-4153bd13e14f</div>
            </text>
            <organization>
               <reference value="urn:uuid:acf41b98-a0a4-45bd-81f8-ebf85a983606"/>
            </organization>
         </PractitionerRole>
      </resource>
   </entry>
   <entry>
      <fullUrl value="urn:uuid:acf41b98-a0a4-45bd-81f8-ebf85a983606"/>
      <resource>
         <Organization>
            <id value="acf41b98-a0a4-45bd-81f8-ebf85a983606"/>
            <meta>
               <profile value="http://hl7.eu/fhir/base/StructureDefinition/organization-eu"/>
            </meta>
            <text>
               <status value="generated"/>
               <div xmlns="http://www.w3.org/1999/xhtml">Provider Organization: Royal Hospital for Sick Children</div>
            </text>
            <identifier>
               <system value="urn:oid:2.16.840.1.113883.2.51.999"/>
               <value value="0b2266e1-b660-4c97-97d6-09001a13355b"/>
               <assigner>
                  <display value="HL7 Europe"/>
               </assigner>
            </identifier>
            <name value="Royal Hospital for Sick Children"/>
            <address>
               <city value="Edinburgh"/>
               <postalCode value="EH9 2"/>
               <country value="United Kingdom"/>
            </address>
         </Organization>
      </resource>
   </entry>
   <entry>
      <fullUrl value="urn:uuid:7baa50d1-b891-4efe-9623-75ba2fdfd172"/>
      <resource>
         <Specimen>
            <id value="7baa50d1-b891-4efe-9623-75ba2fdfd172"/>
            <meta>
               <profile value="http://hl7.eu/fhir/laboratory/StructureDefinition/Specimen-eu-lab"/>
            </meta>
            <text>
               <status value="generated"/>
               <div xmlns="http://www.w3.org/1999/xhtml">
                  <table class="hl7__eu__lab__report">
                     <tr>
                        <th>Specimen</th>
                        <th>Collection Date</th>
                     </tr>
                     <tr>
                        <td>Whole blood specimen (specimen)</td>
                        <td>
                           <span class="nb">24-Feb-2023</span>
                        </td>
                     </tr>
                  </table>
               </div>
            </text>
            <type>
               <coding>
                  <system value="http://snomed.info/sct"/>
                  <code value="258580003"/>
                  <display value="Whole blood specimen (specimen)"/>
               </coding>
            </type>
            <collection>
               <collectedDateTime value="2023-02-24"/>
            </collection>
         </Specimen>
      </resource>
   </entry>
   <entry>
      <fullUrl value="urn:uuid:7baa50d1-b891-4efe-9623-75ba2fdfd172"/>
      <resource>
         <Specimen>
            <id value="7baa50d1-b891-4efe-9623-75ba2fdfd172"/>
            <meta>
               <profile value="http://hl7.eu/fhir/laboratory/StructureDefinition/Specimen-eu-lab"/>
            </meta>
            <text>
               <status value="generated"/>
               <div xmlns="http://www.w3.org/1999/xhtml">
                  <table class="hl7__eu__lab__report">
                     <tr>
                        <th>Specimen</th>
                        <th>Collection Date</th>
                     </tr>
                     <tr>
                        <td>Whole blood specimen (specimen)</td>
                        <td>
                           <span class="nb">24-Feb-2023</span>
                        </td>
                     </tr>
                  </table>
               </div>
            </text>
            <type>
               <coding>
                  <system value="http://snomed.info/sct"/>
                  <code value="258580003"/>
                  <display value="Whole blood specimen (specimen)"/>
               </coding>
            </type>
            <collection>
               <collectedDateTime value="2023-02-24"/>
            </collection>
         </Specimen>
      </resource>
   </entry>
   <entry>
      <fullUrl value="urn:uuid:484a9c13-c47e-45d8-a738-8c3074a59c0c"/>
      <resource>
         <Observation>
            <id value="484a9c13-c47e-45d8-a738-8c3074a59c0c"/>
            <meta>
               <profile value="http://hl7.eu/fhir/laboratory/StructureDefinition/Observation-resultslab-eu-lab"/>
            </meta>
            <text>
               <status value="generated"/>
               <div xmlns="http://www.w3.org/1999/xhtml">
                  <table class="hl7__eu__lab__report">
                     <tr>
                        <th>Test</th>
                        <th>25-Feb-2023</th>
                        <th>Reference Range</th>
                        <th>Unit</th>
                     </tr>
                     <tr>
                        <td>Hemoglobin A1c/Hemoglobin.total in Blood</td>
                        <td>6.0</td>
                        <td>4 - 6</td>
                        <td/>
                        <td>%</td>
                     </tr>
                  </table>
               </div>
            </text>
            <status value="final"/>
            <category>
               <coding>
                  <system value="http://terminology.hl7.org/CodeSystem/observation-category"/>
                  <code value="laboratory"/>
               </coding>
            </category>
            <code>
               <coding>
                  <system value="http://loinc.org"/>
                  <code value="4548-4"/>
                  <display value="Hemoglobin A1c/Hemoglobin.total in Blood"/>
               </coding>
               <text value="Hemoglobin A1c/Hemoglobin.total in Blood"/>
            </code>
            <subject>
               <reference value="urn:uuid:176e40ee-79dd-415b-8b4d-bb5428284336"/>
               <display value="Lydia Ward"/>
            </subject>
            <effectiveDateTime value="2023-02-24T23:08:09Z"/>
            <performer>
               <display value="The Central European Lab"/>
            </performer>
            <valueQuantity>
               <value value="6"/>
               <unit value="%"/>
               <system value="http://unitsofmeasure.org"/>
               <code value="%"/>
            </valueQuantity>
            <specimen>
               <reference value="urn:uuid:7baa50d1-b891-4efe-9623-75ba2fdfd172"/>
            </specimen>
            <referenceRange>
               <low>
                  <value value="4"/>
                  <system value="http://unitsofmeasure.org"/>
                  <code value="%"/>
               </low>
            </referenceRange>
            <referenceRange>
               <high>
                  <value value="6"/>
                  <system value="http://unitsofmeasure.org"/>
                  <code value="%"/>
               </high>
            </referenceRange>
         </Observation>
      </resource>
   </entry>
   <entry>
      <fullUrl value="urn:uuid:adef5ff6-3c3b-47dd-b06e-36ba377a63f0"/>
      <resource>
         <Observation>
            <id value="adef5ff6-3c3b-47dd-b06e-36ba377a63f0"/>
            <meta>
               <profile value="http://hl7.eu/fhir/laboratory/StructureDefinition/Observation-resultslab-eu-lab"/>
            </meta>
            <text>
               <status value="generated"/>
               <div xmlns="http://www.w3.org/1999/xhtml">
                  <table class="hl7__eu__lab__report">
                     <tr>
                        <th>Test</th>
                        <th>25-Feb-2023</th>
                        <th>Reference Range</th>
                        <th>Unit</th>
                     </tr>
                     <tr>
                        <td>Glucose [Mass/volume] in Blood</td>
                        <td>66.0</td>
                        <td>70 - 140</td>
                        <td>L</td>
                        <td>mg/dL</td>
                     </tr>
                  </table>
               </div>
            </text>
            <status value="final"/>
            <category>
               <coding>
                  <system value="http://terminology.hl7.org/CodeSystem/observation-category"/>
                  <code value="laboratory"/>
               </coding>
            </category>
            <code>
               <coding>
                  <system value="http://loinc.org"/>
                  <code value="2339-0"/>
                  <display value="Glucose [Mass/volume] in Blood"/>
               </coding>
               <text value="Glucose [Mass/volume] in Blood"/>
            </code>
            <subject>
               <reference value="urn:uuid:176e40ee-79dd-415b-8b4d-bb5428284336"/>
               <display value="Lydia Ward"/>
            </subject>
            <effectiveDateTime value="2023-02-24T23:08:09Z"/>
            <performer>
               <display value="The Central European Lab"/>
            </performer>
            <valueQuantity>
               <value value="66"/>
               <unit value="mg/dL"/>
               <system value="http://unitsofmeasure.org"/>
               <code value="mg/dL"/>
            </valueQuantity>
            <interpretation>
               <coding>
                  <system value="http://terminology.hl7.org/CodeSystem/v3-ObservationInterpretation"/>
                  <code value="L"/>
                  <display value="Low"/>
               </coding>
            </interpretation>
            <specimen>
               <reference value="urn:uuid:7baa50d1-b891-4efe-9623-75ba2fdfd172"/>
            </specimen>
            <referenceRange>
               <low>
                  <value value="70"/>
                  <system value="http://unitsofmeasure.org"/>
                  <code value="mg/dL"/>
               </low>
            </referenceRange>
            <referenceRange>
               <high>
                  <value value="140"/>
                  <system value="http://unitsofmeasure.org"/>
                  <code value="mg/dL"/>
               </high>
            </referenceRange>
         </Observation>
      </resource>
   </entry>
   <entry>
      <fullUrl value="urn:uuid:9327acf9-c525-4d09-b8bf-3bf8cf2d0a55"/>
      <resource>
         <Observation>
            <id value="9327acf9-c525-4d09-b8bf-3bf8cf2d0a55"/>
            <meta>
               <profile value="http://hl7.eu/fhir/laboratory/StructureDefinition/Observation-resultslab-eu-lab"/>
            </meta>
            <text>
               <status value="generated"/>
               <div xmlns="http://www.w3.org/1999/xhtml">
                  <table class="hl7__eu__lab__report">
                     <tr>
                        <th>Test</th>
                        <th>25-Feb-2023</th>
                        <th>Reference Range</th>
                        <th>Unit</th>
                     </tr>
                     <tr>
                        <td>Urea nitrogen [Mass/volume] in Blood</td>
                        <td>12.3</td>
                        <td>7 - 45</td>
                        <td/>
                        <td>mg/dL</td>
                     </tr>
                  </table>
               </div>
            </text>
            <status value="final"/>
            <category>
               <coding>
                  <system value="http://terminology.hl7.org/CodeSystem/observation-category"/>
                  <code value="laboratory"/>
               </coding>
            </category>
            <code>
               <coding>
                  <system value="http://loinc.org"/>
                  <code value="6299-2"/>
                  <display value="Urea nitrogen [Mass/volume] in Blood"/>
               </coding>
               <text value="Urea nitrogen [Mass/volume] in Blood"/>
            </code>
            <subject>
               <reference value="urn:uuid:176e40ee-79dd-415b-8b4d-bb5428284336"/>
               <display value="Lydia Ward"/>
            </subject>
            <effectiveDateTime value="2023-02-24T23:08:09Z"/>
            <performer>
               <display value="The Central European Lab"/>
            </performer>
            <valueQuantity>
               <value value="12.3"/>
               <unit value="mg/dL"/>
               <system value="http://unitsofmeasure.org"/>
               <code value="mg/dL"/>
            </valueQuantity>
            <specimen>
               <reference value="urn:uuid:7baa50d1-b891-4efe-9623-75ba2fdfd172"/>
            </specimen>
            <referenceRange>
               <low>
                  <value value="7"/>
                  <system value="http://unitsofmeasure.org"/>
                  <code value="mg/dL"/>
               </low>
            </referenceRange>
            <referenceRange>
               <high>
                  <value value="45"/>
                  <system value="http://unitsofmeasure.org"/>
                  <code value="mg/dL"/>
               </high>
            </referenceRange>
         </Observation>
      </resource>
   </entry>
   <entry>
      <fullUrl value="urn:uuid:3eaf9a74-f42e-4d83-b788-d211332854ab"/>
      <resource>
         <Observation>
            <id value="3eaf9a74-f42e-4d83-b788-d211332854ab"/>
            <meta>
               <profile value="http://hl7.eu/fhir/laboratory/StructureDefinition/Observation-resultslab-eu-lab"/>
            </meta>
            <text>
               <status value="generated"/>
               <div xmlns="http://www.w3.org/1999/xhtml">
                  <table class="hl7__eu__lab__report">
                     <tr>
                        <th>Test</th>
                        <th>25-Feb-2023</th>
                        <th>Reference Range</th>
                        <th>Unit</th>
                     </tr>
                     <tr>
                        <td>Creatinine [Mass/volume] in Blood</td>
                        <td>0.8</td>
                        <td>0.6 - 1.1</td>
                        <td/>
                        <td>mg/dL</td>
                     </tr>
                  </table>
               </div>
            </text>
            <status value="final"/>
            <category>
               <coding>
                  <system value="http://terminology.hl7.org/CodeSystem/observation-category"/>
                  <code value="laboratory"/>
               </coding>
            </category>
            <code>
               <coding>
                  <system value="http://loinc.org"/>
                  <code value="38483-4"/>
                  <display value="Creatinine [Mass/volume] in Blood"/>
               </coding>
               <text value="Creatinine [Mass/volume] in Blood"/>
            </code>
            <subject>
               <reference value="urn:uuid:176e40ee-79dd-415b-8b4d-bb5428284336"/>
               <display value="Lydia Ward"/>
            </subject>
            <effectiveDateTime value="2023-02-24T23:08:09Z"/>
            <performer>
               <display value="The Central European Lab"/>
            </performer>
            <valueQuantity>
               <value value="0.8"/>
               <unit value="mg/dL"/>
               <system value="http://unitsofmeasure.org"/>
               <code value="mg/dL"/>
            </valueQuantity>
            <specimen>
               <reference value="urn:uuid:7baa50d1-b891-4efe-9623-75ba2fdfd172"/>
            </specimen>
            <referenceRange>
               <low>
                  <value value="0.6"/>
                  <system value="http://unitsofmeasure.org"/>
                  <code value="mg/dL"/>
               </low>
            </referenceRange>
            <referenceRange>
               <high>
                  <value value="1.1"/>
                  <system value="http://unitsofmeasure.org"/>
                  <code value="mg/dL"/>
               </high>
            </referenceRange>
         </Observation>
      </resource>
   </entry>
   <entry>
      <fullUrl value="urn:uuid:747b422d-1263-471f-9e8c-8ef69ec000b9"/>
      <resource>
         <Observation>
            <id value="747b422d-1263-471f-9e8c-8ef69ec000b9"/>
            <meta>
               <profile value="http://hl7.eu/fhir/laboratory/StructureDefinition/Observation-resultslab-eu-lab"/>
            </meta>
            <text>
               <status value="generated"/>
               <div xmlns="http://www.w3.org/1999/xhtml">
                  <table class="hl7__eu__lab__report">
                     <tr>
                        <th>Test</th>
                        <th>25-Feb-2023</th>
                        <th>Reference Range</th>
                        <th>Unit</th>
                     </tr>
                     <tr>
                        <td>Calcium [Mass/volume] in Blood</td>
                        <td>10.1</td>
                        <td>8.5 - 10.5</td>
                        <td/>
                        <td>mg/dL</td>
                     </tr>
                  </table>
               </div>
            </text>
            <status value="final"/>
            <category>
               <coding>
                  <system value="http://terminology.hl7.org/CodeSystem/observation-category"/>
                  <code value="laboratory"/>
               </coding>
            </category>
            <code>
               <coding>
                  <system value="http://loinc.org"/>
                  <code value="49765-1"/>
                  <display value="Calcium [Mass/volume] in Blood"/>
               </coding>
               <text value="Calcium [Mass/volume] in Blood"/>
            </code>
            <subject>
               <reference value="urn:uuid:176e40ee-79dd-415b-8b4d-bb5428284336"/>
               <display value="Lydia Ward"/>
            </subject>
            <effectiveDateTime value="2023-02-24T23:08:09Z"/>
            <performer>
               <display value="The Central European Lab"/>
            </performer>
            <valueQuantity>
               <value value="10.1"/>
               <unit value="mg/dL"/>
               <system value="http://unitsofmeasure.org"/>
               <code value="mg/dL"/>
            </valueQuantity>
            <specimen>
               <reference value="urn:uuid:7baa50d1-b891-4efe-9623-75ba2fdfd172"/>
            </specimen>
            <referenceRange>
               <low>
                  <value value="8.5"/>
                  <system value="http://unitsofmeasure.org"/>
                  <code value="mg/dL"/>
               </low>
            </referenceRange>
            <referenceRange>
               <high>
                  <value value="10.5"/>
                  <system value="http://unitsofmeasure.org"/>
                  <code value="mg/dL"/>
               </high>
            </referenceRange>
         </Observation>
      </resource>
   </entry>
   <entry>
      <fullUrl value="urn:uuid:ed7a3276-dfcf-4c3b-8585-2cf7bf7d9cb8"/>
      <resource>
         <Observation>
            <id value="ed7a3276-dfcf-4c3b-8585-2cf7bf7d9cb8"/>
            <meta>
               <profile value="http://hl7.eu/fhir/laboratory/StructureDefinition/Observation-resultslab-eu-lab"/>
            </meta>
            <text>
               <status value="generated"/>
               <div xmlns="http://www.w3.org/1999/xhtml">
                  <table class="hl7__eu__lab__report">
                     <tr>
                        <th>Test</th>
                        <th>25-Feb-2023</th>
                        <th>Reference Range</th>
                        <th>Unit</th>
                     </tr>
                     <tr>
                        <td>Sodium [Moles/volume] in Blood</td>
                        <td>136.5</td>
                        <td>135 - 145</td>
                        <td/>
                        <td>mmol/L</td>
                     </tr>
                  </table>
               </div>
            </text>
            <status value="final"/>
            <category>
               <coding>
                  <system value="http://terminology.hl7.org/CodeSystem/observation-category"/>
                  <code value="laboratory"/>
               </coding>
            </category>
            <code>
               <coding>
                  <system value="http://loinc.org"/>
                  <code value="2947-0"/>
                  <display value="Sodium [Moles/volume] in Blood"/>
               </coding>
               <text value="Sodium [Moles/volume] in Blood"/>
            </code>
            <subject>
               <reference value="urn:uuid:176e40ee-79dd-415b-8b4d-bb5428284336"/>
               <display value="Lydia Ward"/>
            </subject>
            <effectiveDateTime value="2023-02-24T23:08:09Z"/>
            <performer>
               <display value="The Central European Lab"/>
            </performer>
            <valueQuantity>
               <value value="136.5"/>
               <unit value="mmol/L"/>
               <system value="http://unitsofmeasure.org"/>
               <code value="mmol/L"/>
            </valueQuantity>
            <specimen>
               <reference value="urn:uuid:7baa50d1-b891-4efe-9623-75ba2fdfd172"/>
            </specimen>
            <referenceRange>
               <low>
                  <value value="135"/>
                  <system value="http://unitsofmeasure.org"/>
                  <code value="mmol/L"/>
               </low>
            </referenceRange>
            <referenceRange>
               <high>
                  <value value="145"/>
                  <system value="http://unitsofmeasure.org"/>
                  <code value="mmol/L"/>
               </high>
            </referenceRange>
         </Observation>
      </resource>
   </entry>
   <entry>
      <fullUrl value="urn:uuid:e58aa216-cc3c-47a5-8139-023a09df55e7"/>
      <resource>
         <Observation>
            <id value="e58aa216-cc3c-47a5-8139-023a09df55e7"/>
            <meta>
               <profile value="http://hl7.eu/fhir/laboratory/StructureDefinition/Observation-resultslab-eu-lab"/>
            </meta>
            <text>
               <status value="generated"/>
               <div xmlns="http://www.w3.org/1999/xhtml">
                  <table class="hl7__eu__lab__report">
                     <tr>
                        <th>Test</th>
                        <th>25-Feb-2023</th>
                        <th>Reference Range</th>
                        <th>Unit</th>
                     </tr>
                     <tr>
                        <td>Potassium [Moles/volume] in Blood</td>
                        <td>4.7</td>
                        <td>3.5 - 5.1</td>
                        <td/>
                        <td>mmol/L</td>
                     </tr>
                  </table>
               </div>
            </text>
            <status value="final"/>
            <category>
               <coding>
                  <system value="http://terminology.hl7.org/CodeSystem/observation-category"/>
                  <code value="laboratory"/>
               </coding>
            </category>
            <code>
               <coding>
                  <system value="http://loinc.org"/>
                  <code value="6298-4"/>
                  <display value="Potassium [Moles/volume] in Blood"/>
               </coding>
               <text value="Potassium [Moles/volume] in Blood"/>
            </code>
            <subject>
               <reference value="urn:uuid:176e40ee-79dd-415b-8b4d-bb5428284336"/>
               <display value="Lydia Ward"/>
            </subject>
            <effectiveDateTime value="2023-02-24T23:08:09Z"/>
            <performer>
               <display value="The Central European Lab"/>
            </performer>
            <valueQuantity>
               <value value="4.7"/>
               <unit value="mmol/L"/>
               <system value="http://unitsofmeasure.org"/>
               <code value="mmol/L"/>
            </valueQuantity>
            <specimen>
               <reference value="urn:uuid:7baa50d1-b891-4efe-9623-75ba2fdfd172"/>
            </specimen>
            <referenceRange>
               <low>
                  <value value="3.5"/>
                  <system value="http://unitsofmeasure.org"/>
                  <code value="mmol/L"/>
               </low>
            </referenceRange>
            <referenceRange>
               <high>
                  <value value="5.1"/>
                  <system value="http://unitsofmeasure.org"/>
                  <code value="mmol/L"/>
               </high>
            </referenceRange>
         </Observation>
      </resource>
   </entry>
   <entry>
      <fullUrl value="urn:uuid:c9550acc-3bb6-42a7-915f-a754aad9bfb8"/>
      <resource>
         <Observation>
            <id value="c9550acc-3bb6-42a7-915f-a754aad9bfb8"/>
            <meta>
               <profile value="http://hl7.eu/fhir/laboratory/StructureDefinition/Observation-resultslab-eu-lab"/>
            </meta>
            <text>
               <status value="generated"/>
               <div xmlns="http://www.w3.org/1999/xhtml">
                  <table class="hl7__eu__lab__report">
                     <tr>
                        <th>Test</th>
                        <th>25-Feb-2023</th>
                        <th>Reference Range</th>
                        <th>Unit</th>
                     </tr>
                     <tr>
                        <td>Chloride [Moles/volume] in Blood</td>
                        <td>110.2</td>
                        <td>98 - 107</td>
                        <td>H</td>
                        <td>mmol/L</td>
                     </tr>
                  </table>
               </div>
            </text>
            <status value="final"/>
            <category>
               <coding>
                  <system value="http://terminology.hl7.org/CodeSystem/observation-category"/>
                  <code value="laboratory"/>
               </coding>
            </category>
            <code>
               <coding>
                  <system value="http://loinc.org"/>
                  <code value="2069-3"/>
                  <display value="Chloride [Moles/volume] in Blood"/>
               </coding>
               <text value="Chloride [Moles/volume] in Blood"/>
            </code>
            <subject>
               <reference value="urn:uuid:176e40ee-79dd-415b-8b4d-bb5428284336"/>
               <display value="Lydia Ward"/>
            </subject>
            <effectiveDateTime value="2023-02-24T23:08:09Z"/>
            <performer>
               <display value="The Central European Lab"/>
            </performer>
            <valueQuantity>
               <value value="110.2"/>
               <unit value="mmol/L"/>
               <system value="http://unitsofmeasure.org"/>
               <code value="mmol/L"/>
            </valueQuantity>
            <interpretation>
               <coding>
                  <system value="http://terminology.hl7.org/CodeSystem/v3-ObservationInterpretation"/>
                  <code value="H"/>
                  <display value="High"/>
               </coding>
            </interpretation>
            <specimen>
               <reference value="urn:uuid:7baa50d1-b891-4efe-9623-75ba2fdfd172"/>
            </specimen>
            <referenceRange>
               <low>
                  <value value="98"/>
                  <system value="http://unitsofmeasure.org"/>
                  <code value="mmol/L"/>
               </low>
            </referenceRange>
            <referenceRange>
               <high>
                  <value value="107"/>
                  <system value="http://unitsofmeasure.org"/>
                  <code value="mmol/L"/>
               </high>
            </referenceRange>
         </Observation>
      </resource>
   </entry>
   <entry>
      <fullUrl value="urn:uuid:7851ef25-d78a-468a-83c6-c1dca47086a7"/>
      <resource>
         <Observation>
            <id value="7851ef25-d78a-468a-83c6-c1dca47086a7"/>
            <meta>
               <profile value="http://hl7.eu/fhir/laboratory/StructureDefinition/Observation-resultslab-eu-lab"/>
            </meta>
            <text>
               <status value="generated"/>
               <div xmlns="http://www.w3.org/1999/xhtml">
                  <table class="hl7__eu__lab__report">
                     <tr>
                        <th>Test</th>
                        <th>25-Feb-2023</th>
                        <th>Reference Range</th>
                        <th>Unit</th>
                     </tr>
                     <tr>
                        <td>Carbon dioxide, total [Moles/volume] in Blood</td>
                        <td>24.4</td>
                        <td>22 - 32</td>
                        <td/>
                        <td>mmol/L</td>
                     </tr>
                  </table>
               </div>
            </text>
            <status value="final"/>
            <category>
               <coding>
                  <system value="http://terminology.hl7.org/CodeSystem/observation-category"/>
                  <code value="laboratory"/>
               </coding>
            </category>
            <code>
               <coding>
                  <system value="http://loinc.org"/>
                  <code value="20565-8"/>
                  <display value="Carbon dioxide, total [Moles/volume] in Blood"/>
               </coding>
               <text value="Carbon dioxide, total [Moles/volume] in Blood"/>
            </code>
            <subject>
               <reference value="urn:uuid:176e40ee-79dd-415b-8b4d-bb5428284336"/>
               <display value="Lydia Ward"/>
            </subject>
            <effectiveDateTime value="2023-02-24T23:08:09Z"/>
            <performer>
               <display value="The Central European Lab"/>
            </performer>
            <valueQuantity>
               <value value="24.4"/>
               <unit value="mmol/L"/>
               <system value="http://unitsofmeasure.org"/>
               <code value="mmol/L"/>
            </valueQuantity>
            <specimen>
               <reference value="urn:uuid:7baa50d1-b891-4efe-9623-75ba2fdfd172"/>
            </specimen>
            <referenceRange>
               <low>
                  <value value="22"/>
                  <system value="http://unitsofmeasure.org"/>
                  <code value="mmol/L"/>
               </low>
            </referenceRange>
            <referenceRange>
               <high>
                  <value value="32"/>
                  <system value="http://unitsofmeasure.org"/>
                  <code value="mmol/L"/>
               </high>
            </referenceRange>
         </Observation>
      </resource>
   </entry>
   <entry>
      <fullUrl value="urn:uuid:f8386e9d-5733-4d62-a3b5-7d808c98d46e"/>
      <resource>
         <Observation>
            <id value="f8386e9d-5733-4d62-a3b5-7d808c98d46e"/>
            <meta>
               <profile value="http://hl7.eu/fhir/laboratory/StructureDefinition/Observation-resultslab-eu-lab"/>
            </meta>
            <text>
               <status value="generated"/>
               <div xmlns="http://www.w3.org/1999/xhtml">
                  <table class="hl7__eu__lab__report">
                     <tr>
                        <th>Test</th>
                        <th>25-Feb-2023</th>
                        <th>Reference Range</th>
                        <th>Unit</th>
                     </tr>
                     <tr>
                        <td>Leukocytes [#/volume] in Blood by Automated count</td>
                        <td>7.0</td>
                        <td>3.4 - 10.5</td>
                        <td/>
                        <td>10*3/uL</td>
                     </tr>
                  </table>
               </div>
            </text>
            <status value="final"/>
            <category>
               <coding>
                  <system value="http://terminology.hl7.org/CodeSystem/observation-category"/>
                  <code value="laboratory"/>
               </coding>
            </category>
            <code>
               <coding>
                  <system value="http://loinc.org"/>
                  <code value="6690-2"/>
                  <display value="Leukocytes [#/volume] in Blood by Automated count"/>
               </coding>
               <text value="Leukocytes [#/volume] in Blood by Automated count"/>
            </code>
            <subject>
               <reference value="urn:uuid:176e40ee-79dd-415b-8b4d-bb5428284336"/>
               <display value="Lydia Ward"/>
            </subject>
            <effectiveDateTime value="2023-02-24T23:08:09Z"/>
            <performer>
               <display value="The Central European Lab"/>
            </performer>
            <valueQuantity>
               <value value="7"/>
               <unit value="10*3/uL"/>
               <system value="http://unitsofmeasure.org"/>
               <code value="10*3/uL"/>
            </valueQuantity>
            <specimen>
               <reference value="urn:uuid:7baa50d1-b891-4efe-9623-75ba2fdfd172"/>
            </specimen>
            <referenceRange>
               <low>
                  <value value="3.4"/>
                  <system value="http://unitsofmeasure.org"/>
                  <code value="10*3/uL"/>
               </low>
            </referenceRange>
            <referenceRange>
               <high>
                  <value value="10.5"/>
                  <system value="http://unitsofmeasure.org"/>
                  <code value="10*3/uL"/>
               </high>
            </referenceRange>
         </Observation>
      </resource>
   </entry>
   <entry>
      <fullUrl value="urn:uuid:74f04829-004d-46f1-875d-b98b71ccccf9"/>
      <resource>
         <Observation>
            <id value="74f04829-004d-46f1-875d-b98b71ccccf9"/>
            <meta>
               <profile value="http://hl7.eu/fhir/laboratory/StructureDefinition/Observation-resultslab-eu-lab"/>
            </meta>
            <text>
               <status value="generated"/>
               <div xmlns="http://www.w3.org/1999/xhtml">
                  <table class="hl7__eu__lab__report">
                     <tr>
                        <th>Test</th>
                        <th>25-Feb-2023</th>
                        <th>Reference Range</th>
                        <th>Unit</th>
                     </tr>
                     <tr>
                        <td>Erythrocytes [#/volume] in Blood by Automated count</td>
                        <td>4.9</td>
                        <td>4.2 - 5.2</td>
                        <td/>
                        <td>10*6/uL</td>
                     </tr>
                  </table>
               </div>
            </text>
            <status value="final"/>
            <category>
               <coding>
                  <system value="http://terminology.hl7.org/CodeSystem/observation-category"/>
                  <code value="laboratory"/>
               </coding>
            </category>
            <code>
               <coding>
                  <system value="http://loinc.org"/>
                  <code value="789-8"/>
                  <display value="Erythrocytes [#/volume] in Blood by Automated count"/>
               </coding>
               <text value="Erythrocytes [#/volume] in Blood by Automated count"/>
            </code>
            <subject>
               <reference value="urn:uuid:176e40ee-79dd-415b-8b4d-bb5428284336"/>
               <display value="Lydia Ward"/>
            </subject>
            <effectiveDateTime value="2023-02-24T23:08:09Z"/>
            <performer>
               <display value="The Central European Lab"/>
            </performer>
            <valueQuantity>
               <value value="4.9"/>
               <unit value="10*6/uL"/>
               <system value="http://unitsofmeasure.org"/>
               <code value="10*6/uL"/>
            </valueQuantity>
            <specimen>
               <reference value="urn:uuid:7baa50d1-b891-4efe-9623-75ba2fdfd172"/>
            </specimen>
            <referenceRange>
               <low>
                  <value value="4.2"/>
                  <system value="http://unitsofmeasure.org"/>
                  <code value="10*6/uL"/>
               </low>
            </referenceRange>
            <referenceRange>
               <high>
                  <value value="5.2"/>
                  <system value="http://unitsofmeasure.org"/>
                  <code value="10*6/uL"/>
               </high>
            </referenceRange>
         </Observation>
      </resource>
   </entry>
   <entry>
      <fullUrl value="urn:uuid:615cbd38-ceb3-4a38-9769-7513d1c711dd"/>
      <resource>
         <Observation>
            <id value="615cbd38-ceb3-4a38-9769-7513d1c711dd"/>
            <meta>
               <profile value="http://hl7.eu/fhir/laboratory/StructureDefinition/Observation-resultslab-eu-lab"/>
            </meta>
            <text>
               <status value="generated"/>
               <div xmlns="http://www.w3.org/1999/xhtml">
                  <table class="hl7__eu__lab__report">
                     <tr>
                        <th>Test</th>
                        <th>25-Feb-2023</th>
                        <th>Reference Range</th>
                        <th>Unit</th>
                     </tr>
                     <tr>
                        <td>Hemoglobin [Mass/volume] in Blood</td>
                        <td>13.7</td>
                        <td>12 - 16</td>
                        <td/>
                        <td>g/dL</td>
                     </tr>
                  </table>
               </div>
            </text>
            <status value="final"/>
            <category>
               <coding>
                  <system value="http://terminology.hl7.org/CodeSystem/observation-category"/>
                  <code value="laboratory"/>
               </coding>
            </category>
            <code>
               <coding>
                  <system value="http://loinc.org"/>
                  <code value="718-7"/>
                  <display value="Hemoglobin [Mass/volume] in Blood"/>
               </coding>
               <text value="Hemoglobin [Mass/volume] in Blood"/>
            </code>
            <subject>
               <reference value="urn:uuid:176e40ee-79dd-415b-8b4d-bb5428284336"/>
               <display value="Lydia Ward"/>
            </subject>
            <effectiveDateTime value="2023-02-24T23:08:09Z"/>
            <performer>
               <display value="The Central European Lab"/>
            </performer>
            <valueQuantity>
               <value value="13.7"/>
               <unit value="g/dL"/>
               <system value="http://unitsofmeasure.org"/>
               <code value="g/dL"/>
            </valueQuantity>
            <specimen>
               <reference value="urn:uuid:7baa50d1-b891-4efe-9623-75ba2fdfd172"/>
            </specimen>
            <referenceRange>
               <low>
                  <value value="12"/>
                  <system value="http://unitsofmeasure.org"/>
                  <code value="g/dL"/>
               </low>
            </referenceRange>
            <referenceRange>
               <high>
                  <value value="16"/>
                  <system value="http://unitsofmeasure.org"/>
                  <code value="g/dL"/>
               </high>
            </referenceRange>
         </Observation>
      </resource>
   </entry>
   <entry>
      <fullUrl value="urn:uuid:bdbcd494-df42-4c64-a052-286734219aa5"/>
      <resource>
         <Observation>
            <id value="bdbcd494-df42-4c64-a052-286734219aa5"/>
            <meta>
               <profile value="http://hl7.eu/fhir/laboratory/StructureDefinition/Observation-resultslab-eu-lab"/>
            </meta>
            <text>
               <status value="generated"/>
               <div xmlns="http://www.w3.org/1999/xhtml">
                  <table class="hl7__eu__lab__report">
                     <tr>
                        <th>Test</th>
                        <th>25-Feb-2023</th>
                        <th>Reference Range</th>
                        <th>Unit</th>
                     </tr>
                     <tr>
                        <td>Hematocrit [Volume Fraction] of Blood by Automated count</td>
                        <td>48.1</td>
                        <td>38 - 54</td>
                        <td/>
                        <td>%</td>
                     </tr>
                  </table>
               </div>
            </text>
            <status value="final"/>
            <category>
               <coding>
                  <system value="http://terminology.hl7.org/CodeSystem/observation-category"/>
                  <code value="laboratory"/>
               </coding>
            </category>
            <code>
               <coding>
                  <system value="http://loinc.org"/>
                  <code value="4544-3"/>
                  <display value="Hematocrit [Volume Fraction] of Blood by Automated count"/>
               </coding>
               <text value="Hematocrit [Volume Fraction] of Blood by Automated count"/>
            </code>
            <subject>
               <reference value="urn:uuid:176e40ee-79dd-415b-8b4d-bb5428284336"/>
               <display value="Lydia Ward"/>
            </subject>
            <effectiveDateTime value="2023-02-24T23:08:09Z"/>
            <performer>
               <display value="The Central European Lab"/>
            </performer>
            <valueQuantity>
               <value value="48.1"/>
               <unit value="%"/>
               <system value="http://unitsofmeasure.org"/>
               <code value="%"/>
            </valueQuantity>
            <specimen>
               <reference value="urn:uuid:7baa50d1-b891-4efe-9623-75ba2fdfd172"/>
            </specimen>
            <referenceRange>
               <low>
                  <value value="38"/>
                  <system value="http://unitsofmeasure.org"/>
                  <code value="%"/>
               </low>
            </referenceRange>
            <referenceRange>
               <high>
                  <value value="54"/>
                  <system value="http://unitsofmeasure.org"/>
                  <code value="%"/>
               </high>
            </referenceRange>
         </Observation>
      </resource>
   </entry>
   <entry>
      <fullUrl value="urn:uuid:32966cfb-e0ca-403e-8cbb-47cda1174692"/>
      <resource>
         <Observation>
            <id value="32966cfb-e0ca-403e-8cbb-47cda1174692"/>
            <meta>
               <profile value="http://hl7.eu/fhir/laboratory/StructureDefinition/Observation-resultslab-eu-lab"/>
            </meta>
            <text>
               <status value="generated"/>
               <div xmlns="http://www.w3.org/1999/xhtml">
                  <table class="hl7__eu__lab__report">
                     <tr>
                        <th>Test</th>
                        <th>25-Feb-2023</th>
                        <th>Reference Range</th>
                        <th>Unit</th>
                     </tr>
                     <tr>
                        <td>MCV [Entitic volume] by Automated count</td>
                        <td>82.5</td>
                        <td>82 - 98</td>
                        <td/>
                        <td>fL</td>
                     </tr>
                  </table>
               </div>
            </text>
            <status value="final"/>
            <category>
               <coding>
                  <system value="http://terminology.hl7.org/CodeSystem/observation-category"/>
                  <code value="laboratory"/>
               </coding>
            </category>
            <code>
               <coding>
                  <system value="http://loinc.org"/>
                  <code value="787-2"/>
                  <display value="MCV [Entitic volume] by Automated count"/>
               </coding>
               <text value="MCV [Entitic volume] by Automated count"/>
            </code>
            <subject>
               <reference value="urn:uuid:176e40ee-79dd-415b-8b4d-bb5428284336"/>
               <display value="Lydia Ward"/>
            </subject>
            <effectiveDateTime value="2023-02-24T23:08:09Z"/>
            <performer>
               <display value="The Central European Lab"/>
            </performer>
            <valueQuantity>
               <value value="82.5"/>
               <unit value="fL"/>
               <system value="http://unitsofmeasure.org"/>
               <code value="fL"/>
            </valueQuantity>
            <specimen>
               <reference value="urn:uuid:7baa50d1-b891-4efe-9623-75ba2fdfd172"/>
            </specimen>
            <referenceRange>
               <low>
                  <value value="82"/>
                  <system value="http://unitsofmeasure.org"/>
                  <code value="fL"/>
               </low>
            </referenceRange>
            <referenceRange>
               <high>
                  <value value="98"/>
                  <system value="http://unitsofmeasure.org"/>
                  <code value="fL"/>
               </high>
            </referenceRange>
         </Observation>
      </resource>
   </entry>
   <entry>
      <fullUrl value="urn:uuid:14dc2a4f-0f85-4e7f-94e6-ef5eb365f2f4"/>
      <resource>
         <Observation>
            <id value="14dc2a4f-0f85-4e7f-94e6-ef5eb365f2f4"/>
            <meta>
               <profile value="http://hl7.eu/fhir/laboratory/StructureDefinition/Observation-resultslab-eu-lab"/>
            </meta>
            <text>
               <status value="generated"/>
               <div xmlns="http://www.w3.org/1999/xhtml">
                  <table class="hl7__eu__lab__report">
                     <tr>
                        <th>Test</th>
                        <th>25-Feb-2023</th>
                        <th>Reference Range</th>
                        <th>Unit</th>
                     </tr>
                     <tr>
                        <td>MCH [Entitic mass] by Automated count</td>
                        <td>28.2</td>
                        <td>27 - 33</td>
                        <td/>
                        <td>pg</td>
                     </tr>
                  </table>
               </div>
            </text>
            <status value="final"/>
            <category>
               <coding>
                  <system value="http://terminology.hl7.org/CodeSystem/observation-category"/>
                  <code value="laboratory"/>
               </coding>
            </category>
            <code>
               <coding>
                  <system value="http://loinc.org"/>
                  <code value="785-6"/>
                  <display value="MCH [Entitic mass] by Automated count"/>
               </coding>
               <text value="MCH [Entitic mass] by Automated count"/>
            </code>
            <subject>
               <reference value="urn:uuid:176e40ee-79dd-415b-8b4d-bb5428284336"/>
               <display value="Lydia Ward"/>
            </subject>
            <effectiveDateTime value="2023-02-24T23:08:09Z"/>
            <performer>
               <display value="The Central European Lab"/>
            </performer>
            <valueQuantity>
               <value value="28.2"/>
               <unit value="pg"/>
               <system value="http://unitsofmeasure.org"/>
               <code value="pg"/>
            </valueQuantity>
            <specimen>
               <reference value="urn:uuid:7baa50d1-b891-4efe-9623-75ba2fdfd172"/>
            </specimen>
            <referenceRange>
               <low>
                  <value value="27"/>
                  <system value="http://unitsofmeasure.org"/>
                  <code value="pg"/>
               </low>
            </referenceRange>
            <referenceRange>
               <high>
                  <value value="33"/>
                  <system value="http://unitsofmeasure.org"/>
                  <code value="pg"/>
               </high>
            </referenceRange>
         </Observation>
      </resource>
   </entry>
   <entry>
      <fullUrl value="urn:uuid:600a72a6-0e9d-4a4d-8329-f73e5de4132d"/>
      <resource>
         <Observation>
            <id value="600a72a6-0e9d-4a4d-8329-f73e5de4132d"/>
            <meta>
               <profile value="http://hl7.eu/fhir/laboratory/StructureDefinition/Observation-resultslab-eu-lab"/>
            </meta>
            <text>
               <status value="generated"/>
               <div xmlns="http://www.w3.org/1999/xhtml">
                  <table class="hl7__eu__lab__report">
                     <tr>
                        <th>Test</th>
                        <th>25-Feb-2023</th>
                        <th>Reference Range</th>
                        <th>Unit</th>
                     </tr>
                     <tr>
                        <td>MCHC [Mass/volume] by Automated count</td>
                        <td>35.9</td>
                        <td>32 - 35.5</td>
                        <td>H</td>
                        <td>g/dL</td>
                     </tr>
                  </table>
               </div>
            </text>
            <status value="final"/>
            <category>
               <coding>
                  <system value="http://terminology.hl7.org/CodeSystem/observation-category"/>
                  <code value="laboratory"/>
               </coding>
            </category>
            <code>
               <coding>
                  <system value="http://loinc.org"/>
                  <code value="786-4"/>
                  <display value="MCHC [Mass/volume] by Automated count"/>
               </coding>
               <text value="MCHC [Mass/volume] by Automated count"/>
            </code>
            <subject>
               <reference value="urn:uuid:176e40ee-79dd-415b-8b4d-bb5428284336"/>
               <display value="Lydia Ward"/>
            </subject>
            <effectiveDateTime value="2023-02-24T23:08:09Z"/>
            <performer>
               <display value="The Central European Lab"/>
            </performer>
            <valueQuantity>
               <value value="35.9"/>
               <unit value="g/dL"/>
               <system value="http://unitsofmeasure.org"/>
               <code value="g/dL"/>
            </valueQuantity>
            <interpretation>
               <coding>
                  <system value="http://terminology.hl7.org/CodeSystem/v3-ObservationInterpretation"/>
                  <code value="H"/>
                  <display value="High"/>
               </coding>
            </interpretation>
            <specimen>
               <reference value="urn:uuid:7baa50d1-b891-4efe-9623-75ba2fdfd172"/>
            </specimen>
            <referenceRange>
               <low>
                  <value value="32"/>
                  <system value="http://unitsofmeasure.org"/>
                  <code value="g/dL"/>
               </low>
            </referenceRange>
            <referenceRange>
               <high>
                  <value value="35.5"/>
                  <system value="http://unitsofmeasure.org"/>
                  <code value="g/dL"/>
               </high>
            </referenceRange>
         </Observation>
      </resource>
   </entry>
   <entry>
      <fullUrl value="urn:uuid:f73e0235-34a8-409e-b857-b1866bf6102c"/>
      <resource>
         <Observation>
            <id value="f73e0235-34a8-409e-b857-b1866bf6102c"/>
            <meta>
               <profile value="http://hl7.eu/fhir/laboratory/StructureDefinition/Observation-resultslab-eu-lab"/>
            </meta>
            <text>
               <status value="generated"/>
               <div xmlns="http://www.w3.org/1999/xhtml">
                  <table class="hl7__eu__lab__report">
                     <tr>
                        <th>Test</th>
                        <th>25-Feb-2023</th>
                        <th>Reference Range</th>
                        <th>Unit</th>
                     </tr>
                     <tr>
                        <td>Erythrocyte distribution width [Entitic volume] by Automated count</td>
                        <td>44.2</td>
                        <td>36 - 56</td>
                        <td/>
                        <td>fL</td>
                     </tr>
                  </table>
               </div>
            </text>
            <status value="final"/>
            <category>
               <coding>
                  <system value="http://terminology.hl7.org/CodeSystem/observation-category"/>
                  <code value="laboratory"/>
               </coding>
            </category>
            <code>
               <coding>
                  <system value="http://loinc.org"/>
                  <code value="21000-5"/>
                  <display value="Erythrocyte distribution width [Entitic volume] by Automated count"/>
               </coding>
               <text value="Erythrocyte distribution width [Entitic volume] by Automated count"/>
            </code>
            <subject>
               <reference value="urn:uuid:176e40ee-79dd-415b-8b4d-bb5428284336"/>
               <display value="Lydia Ward"/>
            </subject>
            <effectiveDateTime value="2023-02-24T23:08:09Z"/>
            <performer>
               <display value="The Central European Lab"/>
            </performer>
            <valueQuantity>
               <value value="44.2"/>
               <unit value="fL"/>
               <system value="http://unitsofmeasure.org"/>
               <code value="fL"/>
            </valueQuantity>
            <specimen>
               <reference value="urn:uuid:7baa50d1-b891-4efe-9623-75ba2fdfd172"/>
            </specimen>
            <referenceRange>
               <low>
                  <value value="36"/>
                  <system value="http://unitsofmeasure.org"/>
                  <code value="fL"/>
               </low>
            </referenceRange>
            <referenceRange>
               <high>
                  <value value="56"/>
                  <system value="http://unitsofmeasure.org"/>
                  <code value="fL"/>
               </high>
            </referenceRange>
         </Observation>
      </resource>
   </entry>
   <entry>
      <fullUrl value="urn:uuid:e1a88202-68d6-4fba-ba75-4fc6b431bd4f"/>
      <resource>
         <Observation>
            <id value="e1a88202-68d6-4fba-ba75-4fc6b431bd4f"/>
            <meta>
               <profile value="http://hl7.eu/fhir/laboratory/StructureDefinition/Observation-resultslab-eu-lab"/>
            </meta>
            <text>
               <status value="generated"/>
               <div xmlns="http://www.w3.org/1999/xhtml">
                  <table class="hl7__eu__lab__report">
                     <tr>
                        <th>Test</th>
                        <th>25-Feb-2023</th>
                        <th>Reference Range</th>
                        <th>Unit</th>
                     </tr>
                     <tr>
                        <td>Platelets [#/volume] in Blood by Automated count</td>
                        <td>379.8</td>
                        <td>150 - 450</td>
                        <td/>
                        <td>10*3/uL</td>
                     </tr>
                  </table>
               </div>
            </text>
            <status value="final"/>
            <category>
               <coding>
                  <system value="http://terminology.hl7.org/CodeSystem/observation-category"/>
                  <code value="laboratory"/>
               </coding>
            </category>
            <code>
               <coding>
                  <system value="http://loinc.org"/>
                  <code value="777-3"/>
                  <display value="Platelets [#/volume] in Blood by Automated count"/>
               </coding>
               <text value="Platelets [#/volume] in Blood by Automated count"/>
            </code>
            <subject>
               <reference value="urn:uuid:176e40ee-79dd-415b-8b4d-bb5428284336"/>
               <display value="Lydia Ward"/>
            </subject>
            <effectiveDateTime value="2023-02-24T23:08:09Z"/>
            <performer>
               <display value="The Central European Lab"/>
            </performer>
            <valueQuantity>
               <value value="379.8"/>
               <unit value="10*3/uL"/>
               <system value="http://unitsofmeasure.org"/>
               <code value="10*3/uL"/>
            </valueQuantity>
            <specimen>
               <reference value="urn:uuid:7baa50d1-b891-4efe-9623-75ba2fdfd172"/>
            </specimen>
            <referenceRange>
               <low>
                  <value value="150"/>
                  <system value="http://unitsofmeasure.org"/>
                  <code value="10*3/uL"/>
               </low>
            </referenceRange>
            <referenceRange>
               <high>
                  <value value="450"/>
                  <system value="http://unitsofmeasure.org"/>
                  <code value="10*3/uL"/>
               </high>
            </referenceRange>
         </Observation>
      </resource>
   </entry>
   <entry>
      <fullUrl value="urn:uuid:943beb9e-05ac-4926-9a40-c444730a8755"/>
      <resource>
         <Observation>
            <id value="943beb9e-05ac-4926-9a40-c444730a8755"/>
            <meta>
               <profile value="http://hl7.eu/fhir/laboratory/StructureDefinition/Observation-resultslab-eu-lab"/>
            </meta>
            <text>
               <status value="generated"/>
               <div xmlns="http://www.w3.org/1999/xhtml">
                  <table class="hl7__eu__lab__report">
                     <tr>
                        <th>Test</th>
                        <th>25-Feb-2023</th>
                        <th>Reference Range</th>
                        <th>Unit</th>
                     </tr>
                     <tr>
                        <td>Platelet distribution width [Entitic volume] in Blood by Automated count</td>
                        <td>268.5</td>
                        <td>150 - 450</td>
                        <td/>
                        <td>fL</td>
                     </tr>
                  </table>
               </div>
            </text>
            <status value="final"/>
            <category>
               <coding>
                  <system value="http://terminology.hl7.org/CodeSystem/observation-category"/>
                  <code value="laboratory"/>
               </coding>
            </category>
            <code>
               <coding>
                  <system value="http://loinc.org"/>
                  <code value="32207-3"/>
                  <display value="Platelet distribution width [Entitic volume] in Blood by Automated count"/>
               </coding>
               <text value="Platelet distribution width [Entitic volume] in Blood by Automated count"/>
            </code>
            <subject>
               <reference value="urn:uuid:176e40ee-79dd-415b-8b4d-bb5428284336"/>
               <display value="Lydia Ward"/>
            </subject>
            <effectiveDateTime value="2023-02-24T23:08:09Z"/>
            <performer>
               <display value="The Central European Lab"/>
            </performer>
            <valueQuantity>
               <value value="268.5"/>
               <unit value="fL"/>
               <system value="http://unitsofmeasure.org"/>
               <code value="fL"/>
            </valueQuantity>
            <specimen>
               <reference value="urn:uuid:7baa50d1-b891-4efe-9623-75ba2fdfd172"/>
            </specimen>
            <referenceRange>
               <low>
                  <value value="150"/>
                  <system value="http://unitsofmeasure.org"/>
                  <code value="fL"/>
               </low>
            </referenceRange>
            <referenceRange>
               <high>
                  <value value="450"/>
                  <system value="http://unitsofmeasure.org"/>
                  <code value="fL"/>
               </high>
            </referenceRange>
         </Observation>
      </resource>
   </entry>
   <entry>
      <fullUrl value="urn:uuid:91ce23bb-67f1-4989-857b-13b5f14a6689"/>
      <resource>
         <Observation>
            <id value="91ce23bb-67f1-4989-857b-13b5f14a6689"/>
            <meta>
               <profile value="http://hl7.eu/fhir/laboratory/StructureDefinition/Observation-resultslab-eu-lab"/>
            </meta>
            <text>
               <status value="generated"/>
               <div xmlns="http://www.w3.org/1999/xhtml">
                  <table class="hl7__eu__lab__report">
                     <tr>
                        <th>Test</th>
                        <th>25-Feb-2023</th>
                        <th>Reference Range</th>
                        <th>Unit</th>
                     </tr>
                     <tr>
                        <td>Platelet mean volume [Entitic volume] in Blood by Automated count</td>
                        <td>11.5</td>
                        <td>7.4 - 13.8</td>
                        <td/>
                        <td>fL</td>
                     </tr>
                  </table>
               </div>
            </text>
            <status value="final"/>
            <category>
               <coding>
                  <system value="http://terminology.hl7.org/CodeSystem/observation-category"/>
                  <code value="laboratory"/>
               </coding>
            </category>
            <code>
               <coding>
                  <system value="http://loinc.org"/>
                  <code value="32623-1"/>
                  <display value="Platelet mean volume [Entitic volume] in Blood by Automated count"/>
               </coding>
               <text value="Platelet mean volume [Entitic volume] in Blood by Automated count"/>
            </code>
            <subject>
               <reference value="urn:uuid:176e40ee-79dd-415b-8b4d-bb5428284336"/>
               <display value="Lydia Ward"/>
            </subject>
            <effectiveDateTime value="2023-02-24T23:08:09Z"/>
            <performer>
               <display value="The Central European Lab"/>
            </performer>
            <valueQuantity>
               <value value="11.5"/>
               <unit value="fL"/>
               <system value="http://unitsofmeasure.org"/>
               <code value="fL"/>
            </valueQuantity>
            <specimen>
               <reference value="urn:uuid:7baa50d1-b891-4efe-9623-75ba2fdfd172"/>
            </specimen>
            <referenceRange>
               <low>
                  <value value="7.4"/>
                  <system value="http://unitsofmeasure.org"/>
                  <code value="fL"/>
               </low>
            </referenceRange>
            <referenceRange>
               <high>
                  <value value="13.8"/>
                  <system value="http://unitsofmeasure.org"/>
                  <code value="fL"/>
               </high>
            </referenceRange>
         </Observation>
      </resource>
   </entry>
   <entry>
      <fullUrl value="urn:uuid:6a537bd0-6a77-4e76-8bb3-1752bd49943a"/>
      <resource>
         <Device>
            <id value="6a537bd0-6a77-4e76-8bb3-1752bd49943a"/>
            <text>
               <status value="generated"/>
               <div xmlns="http://www.w3.org/1999/xhtml">SYNDERAI Synthetic Generator v5.0</div>
            </text>
            <status value="active&#34;"/>
            <distinctIdentifier value="synderai-generator-50"/>
            <manufacturer value="SYNDERAI Project"/>
            <deviceName>
               <name value="SYNDERAI Synthetic Generator"/>
               <type value="manufacturer-name"/>
            </deviceName>
            <version>
               <value value="5.0"/>
            </version>
         </Device>
      </resource>
   </entry>
   <entry>
      <fullUrl value="urn:uuid:2072c496-45df-477e-8308-a7908d9f4c44"/>
      <resource>
         <Provenance>
            <id value="2072c496-45df-477e-8308-a7908d9f4c44"/>
            <text>
               <status value="generated"/>
               <div xmlns="http://www.w3.org/1999/xhtml">Provenance for SYNDERAI Synthetic Example Data Resource</div>
            </text>
            <target>
               <reference value="Patient/176e40ee-79dd-415b-8b4d-bb5428284336"/>
            </target>
            <target>
               <reference value="Bundle/6e68767f-e669-42e5-a6d5-25a040280566"/>
            </target>
            <target>
               <reference value="Composition/985d3480-ba85-4a4c-b886-e80bfcfd0196"/>
            </target>
            <target>
               <reference value="PractitionerRole/bd64adf1-d954-40c5-878d-ab992d1a64d6"/>
            </target>
            <target>
               <reference value="Practitioner/2d4fff73-a867-4914-84f8-266544d1b83b"/>
            </target>
            <target>
               <reference value="PractitionerRole/51429323-4b7e-4896-a312-4153bd13e14f"/>
            </target>
            <target>
               <reference value="Organization/acf41b98-a0a4-45bd-81f8-ebf85a983606"/>
            </target>
            <recorded value="2023-02-25T00:08:09Z"/>
            <policy value="https://synderai.net/synderai-synthetic-data-policy"/>
            <reason>
               <text value="Interoperability Testing and Training (non-clinical use)"/>
            </reason>
            <activity>
               <text value="Synthetic Example Data Generation"/>
            </activity>
            <agent>
               <type>
                  <text value="author"/>
               </type>
               <who>
                  <reference value="Device/6a537bd0-6a77-4e76-8bb3-1752bd49943a"/>
               </who>
            </agent>
         </Provenance>
      </resource>
   </entry>
   <entry>
      <fullUrl value="urn:uuid:bd64adf1-d954-40c5-878d-ab992d1a64d6"/>
      <resource>
         <PractitionerRole>
            <id value="bd64adf1-d954-40c5-878d-ab992d1a64d6"/>
            <meta>
               <profile value="http://hl7.eu/fhir/base/StructureDefinition/practitionerRole-eu"/>
            </meta>
            <text>
               <status value="generated"/>
               <div xmlns="http://www.w3.org/1999/xhtml">Laboratory Role Id: bd64adf1-d954-40c5-878d-ab992d1a64d6</div>
            </text>
            <practitioner>
               <reference value="urn:uuid:2d4fff73-a867-4914-84f8-266544d1b83b"/>
            </practitioner>
         </PractitionerRole>
      </resource>
   </entry>
   <entry>
      <fullUrl value="urn:uuid:2d4fff73-a867-4914-84f8-266544d1b83b"/>
      <resource>
         <Practitioner>
            <id value="2d4fff73-a867-4914-84f8-266544d1b83b"/>
            <meta>
               <profile value="http://hl7.eu/fhir/base/StructureDefinition/practitioner-eu"/>
            </meta>
            <text>
               <status value="generated"/>
               <div xmlns="http://www.w3.org/1999/xhtml">Laboratory: Laboratoire Central Européenne, 1000 Brussels, Belgium</div>
            </text>
            <identifier>
               <system value="urn:oid:2.16.840.1.113883.2.51.999"/>
               <value value="97fc3827-7d1f-413d-a23a-bbc36475d725"/>
               <assigner>
                  <display value="HL7 Europe"/>
               </assigner>
            </identifier>
            <name>
               <family value="Ample"/>
               <given value="Ex"/>
               <prefix value="dr"/>
            </name>
            <address>
               <line value="Laboratoire Central Européenne"/>
               <line value="Boulevard du Jardin Botanique 32"/>
               <city value="Brussels"/>
               <postalCode value="1000"/>
               <country value="Belgium"/>
            </address>
         </Practitioner>
      </resource>
   </entry>
</Bundle>