{
  "resourceType": "Bundle",
  "id": "560fd24f-03b7-44db-bcbe-6c07b96ba9c1",
  "meta": {
    "profile": [
      "http://hl7.eu/fhir/laboratory/StructureDefinition/Bundle-eu-lab"
    ]
  },
  "identifier": {
    "assigner": {
      "display": "HL7 Europe"
    },
    "system": "urn:oid:2.16.840.1.113883.2.51.999",
    "value": "8cf6df56-3a25-4690-aae0-0aee6a507dbf"
  },
  "entry": [
    {
      "fullUrl": "urn:uuid:29998f98-a10b-4f6e-81b7-03d40d7e6ee2",
      "resource": {
        "resourceType": "Composition",
        "id": "29998f98-a10b-4f6e-81b7-03d40d7e6ee2",
        "meta": {
          "profile": [
            "http://hl7.eu/fhir/laboratory/StructureDefinition/Composition-eu-lab"
          ]
        },
        "identifier": {
          "assigner": {
            "display": "HL7 Europe"
          },
          "system": "urn:oid:2.16.840.1.113883.2.51.999",
          "value": "6dbab352-df61-47ed-8669-19475b31596c"
        },
        "author": [
          {
            "reference": "urn:uuid:3b01a1aa-a931-40ba-b95b-c07e750ef123"
          }
        ],
        "category": [
          {
            "coding": [
              {
                "code": "26436-6",
                "system": "http://loinc.org",
                "display": "Laboratory studies (set)"
              }
            ]
          }
        ],
        "type": {
          "coding": [
            {
              "code": "11502-2",
              "system": "http://loinc.org",
              "display": "Laboratory report"
            }
          ],
          "text": "Laboratory Report"
        },
        "section": [
          {
            "code": {
              "coding": [
                {
                  "code": "26436-6",
                  "system": "http://loinc.org",
                  "display": "Laboratory studies (set)"
                }
              ],
              "text": "Laboratory studies"
            },
            "section": [
              {
                "code": {
                  "coding": [
                    {
                      "code": "$18719-5",
                      "system": "http://loinc.org",
                      "display": "Chemistry studies (set)"
                    }
                  ],
                  "text": "Chemistry"
                },
                "entry": [
                  {
                    "reference": "urn:uuid:0676381a-31f0-4790-bea3-5caf87f41285"
                  },
                  {
                    "reference": "urn:uuid:2a72c1df-c0ed-47ab-8af1-f97bf17c36e7"
                  },
                  {
                    "reference": "urn:uuid:73d04ed5-9cd0-4827-820d-77314081966e"
                  },
                  {
                    "reference": "urn:uuid:7025b51d-9169-4654-84fd-0f746c74334f"
                  },
                  {
                    "reference": "urn:uuid:6ea83311-8b32-462f-84fa-a01631799090"
                  },
                  {
                    "reference": "urn:uuid:81565660-0828-4653-8be6-e8be587274bc"
                  },
                  {
                    "reference": "urn:uuid:6928cf53-d282-47b7-b1cb-19f17f4127fe"
                  },
                  {
                    "reference": "urn:uuid:9050f0c2-66cf-4472-8cd1-92fb9d4c5aeb"
                  },
                  {
                    "reference": "urn:uuid:fb919a7f-c3ee-44dd-aabd-44506045ee78"
                  },
                  {
                    "reference": "urn:uuid:91037f9c-02ed-43c9-a94b-7e1e381ca97d"
                  },
                  {
                    "reference": "urn:uuid:578d8145-a554-4ac8-80dc-273a7f9f34f6"
                  },
                  {
                    "reference": "urn:uuid:1a541022-bae0-46c4-91dc-6ede8f2919a3"
                  },
                  {
                    "reference": "urn:uuid:cb275c97-fbf0-434e-9028-8008fe6e4d3f"
                  },
                  {
                    "reference": "urn:uuid:d1559d0b-aa60-470a-990e-255adfdf3532"
                  }
                ],
                "text": {
                  "status": "generated",
                  "div": "<div xmlns=\"http://www.w3.org/1999/xhtml\"><h3>Chemistry</h3><table class=\"hl7__eu__lab__report\"><thead><tr><th>Test</th><th>11-APR-2023</th><th>Reference&#xA0;Range</th><th>Unit</th></tr></thead><tbody><tr><td>Hemoglobin A1c/Hemoglobin.total in Blood</td><td><strong>7.0 H</strong></td><td>4.6 - 6</td><td>%</td></tr><tr><td>Glucose [Mass/volume] in Blood</td><td><strong>113.4 H</strong></td><td>70 - 99</td><td>mg/dL</td></tr><tr><td>Urea nitrogen [Mass/volume] in Blood</td><td>8.3</td><td>7 - 50</td><td>mg/dL</td></tr><tr><td>Creatinine [Mass/volume] in Blood</td><td>1.3</td><td>0.9 - 1.3</td><td>mg/dL</td></tr><tr><td>Calcium [Mass/volume] in Blood</td><td>10.0</td><td>8.5 - 10.5</td><td>mg/dL</td></tr><tr><td>Sodium [Moles/volume] in Blood</td><td>140.6</td><td>135 - 145</td><td>mmol/L</td></tr><tr><td>Potassium [Moles/volume] in Blood</td><td>4.1</td><td>3.5 - 5.1</td><td>mmol/L</td></tr><tr><td>Chloride [Moles/volume] in Blood</td><td>102.9</td><td>98 - 114</td><td>mmol/L</td></tr><tr><td>Carbon dioxide, total [Moles/volume] in Blood</td><td>26.2</td><td>22 - 32</td><td>mmol/L</td></tr><tr><td>Cholesterol [Mass/volume] in Serum or Plasma</td><td><strong>236.3 H</strong></td><td>125 - 200</td><td>mg/dL</td></tr><tr><td>Triglyceride [Mass/volume] in Serum or Plasma</td><td><strong>158.1 H</strong></td><td>0 - 150</td><td>mg/dL</td></tr><tr><td>Cholesterol in LDL [Mass/volume] in Serum or Plasma by Direct assay</td><td><strong>149.8 H</strong></td><td>0 - 130</td><td>mg/dL</td></tr><tr><td>Cholesterol in HDL [Mass/volume] in Serum or Plasma</td><td>54.9</td><td>40 - 60</td><td>mg/dL</td></tr><tr><td>Microalbumin/Creatinine [Mass Ratio] in Urine</td><td>10.9</td><td>0 - 30</td><td>mg/g</td></tr></tbody></table></div>"
                },
                "title": "Chemistry"
              }
            ],
            "title": "Laboratory Report"
          },
          {
            "text": {
              "status": "generated",
              "div": "<div xmlns=\"http://www.w3.org/1999/xhtml\"><h3>Annotation</h3><table class=\"hl7__eu__lab__report\"><tr><th>Conclusion and Recommendations based on this report and previous findings known to us</th></tr><tr><td>The results indicate suboptimal glycemic control (elevated HbA1c and fasting glucose), and dyslipidemia (high total cholesterol, LDL, and triglycerides). Renal function, electrolytes, and microalbumin/creatinine ratio are within normal limits. Recommend clinical follow-up for diabetes and lipid management to reduce cardiovascular risk.</td></tr></table></div>"
            },
            "code": {
              "coding": [
                {
                  "system": "http://loinc.org",
                  "code": "48767-8",
                  "display": "Annotation comment"
                }
              ]
            },
            "title": "Annotation comment"
          }
        ],
        "status": "final",
        "subject": {
          "reference": "urn:uuid:3b2c268c-ebbf-4ef3-85f4-4752be978ae3",
          "display": "Roy Harrison"
        },
        "date": "2023-04-11T04:49:43Z",
        "title": "Laboratory Report",
        "confidentiality": "N"
      }
    },
    {
      "fullUrl": "urn:uuid:44c32540-0da2-49da-9e45-eb1cd8ea8c72",
      "resource": {
        "resourceType": "DiagnosticReport",
        "id": "44c32540-0da2-49da-9e45-eb1cd8ea8c72",
        "meta": {
          "profile": [
            "http://hl7.eu/fhir/laboratory/StructureDefinition/DiagnosticReport-eu-lab"
          ]
        },
        "identifier": [
          {
            "assigner": {
              "display": "HL7 Europe"
            },
            "system": "urn:oid:2.16.840.1.113883.2.51.999",
            "value": "2417285d-c368-4690-a824-aae024d24553"
          }
        ],
        "extension": [
          {
            "url": "http://hl7.org/fhir/5.0/StructureDefinition/extension-DiagnosticReport.composition",
            "valueReference": {
              "reference": "urn:uuid:6dbab352-df61-47ed-8669-19475b31596c"
            }
          }
        ],
        "category": [
          {
            "coding": [
              {
                "code": "26436-6",
                "system": "http://loinc.org",
                "display": "Laboratory studies (set)"
              }
            ]
          }
        ],
        "specimen": [
          {
            "reference": "urn:uuid:92e72f60-410c-4aef-ab99-879367f8de51"
          },
          {
            "reference": "urn:uuid:33255fe5-e264-4803-aa82-740dd77ae7fb"
          },
          {
            "reference": "urn:uuid:d4507977-9954-4a8b-b90e-25fee51726b0"
          }
        ],
        "result": [
          {
            "reference": "urn:uuid:0676381a-31f0-4790-bea3-5caf87f41285"
          },
          {
            "reference": "urn:uuid:2a72c1df-c0ed-47ab-8af1-f97bf17c36e7"
          },
          {
            "reference": "urn:uuid:73d04ed5-9cd0-4827-820d-77314081966e"
          },
          {
            "reference": "urn:uuid:7025b51d-9169-4654-84fd-0f746c74334f"
          },
          {
            "reference": "urn:uuid:6ea83311-8b32-462f-84fa-a01631799090"
          },
          {
            "reference": "urn:uuid:81565660-0828-4653-8be6-e8be587274bc"
          },
          {
            "reference": "urn:uuid:6928cf53-d282-47b7-b1cb-19f17f4127fe"
          },
          {
            "reference": "urn:uuid:9050f0c2-66cf-4472-8cd1-92fb9d4c5aeb"
          },
          {
            "reference": "urn:uuid:fb919a7f-c3ee-44dd-aabd-44506045ee78"
          },
          {
            "reference": "urn:uuid:91037f9c-02ed-43c9-a94b-7e1e381ca97d"
          },
          {
            "reference": "urn:uuid:578d8145-a554-4ac8-80dc-273a7f9f34f6"
          },
          {
            "reference": "urn:uuid:1a541022-bae0-46c4-91dc-6ede8f2919a3"
          },
          {
            "reference": "urn:uuid:cb275c97-fbf0-434e-9028-8008fe6e4d3f"
          },
          {
            "reference": "urn:uuid:d1559d0b-aa60-470a-990e-255adfdf3532"
          }
        ],
        "status": "registered",
        "code": {
          "coding": [
            {
              "code": "11502-2",
              "system": "http://loinc.org",
              "display": "Laboratory report"
            }
          ]
        },
        "subject": {
          "reference": "urn:uuid:3b2c268c-ebbf-4ef3-85f4-4752be978ae3",
          "display": "Roy Harrison"
        }
      }
    },
    {
      "fullUrl": "urn:uuid:3b2c268c-ebbf-4ef3-85f4-4752be978ae3",
      "resource": {
        "resourceType": "Patient",
        "id": "3b2c268c-ebbf-4ef3-85f4-4752be978ae3",
        "meta": {
          "security": [
            {
              "system": "http://terminology.hl7.org/CodeSystem/v3-ActReason",
              "code": "HTEST"
            },
            {
              "system": "http://terminology.hl7.org/CodeSystem/v3-ActReason",
              "code": "TRAIN"
            }
          ],
          "tag": [
            {
              "system": "https://synderai.net/fhir/CodeSystem/tags",
              "code": "synthetic",
              "display": "SYNDERAI Synthetic data"
            }
          ],
          "profile": [
            "http://hl7.eu/fhir/base/StructureDefinition/patient-eu-core"
          ]
        },
        "identifier": [
          {
            "type": {
              "coding": [
                {
                  "code": "PT",
                  "system": "http://terminology.hl7.org/CodeSystem/v2-0203"
                }
              ]
            },
            "system": "http://ec.europa.eu/identifier/eci",
            "value": "7093-553922-4"
          },
          {
            "type": {
              "coding": [
                {
                  "code": "MR",
                  "system": "http://terminology.hl7.org/CodeSystem/v2-0203"
                }
              ]
            },
            "system": "http://local.setting.eu/identifier",
            "value": "42633ccd-9ef5-6a00-b7c9-353a9679bf2b"
          }
        ],
        "name": [
          {
            "family": "Harrison"
          },
          {
            "given": [
              "Roy"
            ]
          },
          {
            "text": "Roy Harrison"
          }
        ],
        "address": [
          {
            "line": [
              "Flat 4",
              "Dyer route"
            ],
            "use": "home",
            "type": "physical",
            "postalCode": "BA1",
            "city": "Baileyville",
            "country": "United Kingdom"
          }
        ],
        "telecom": [
          {
            "system": "phone",
            "value": "01632960974"
          }
        ],
        "extension": [
          {
            "url": "http://hl7.org/fhir/StructureDefinition/patient-nationality",
            "valueCodeableConcept": {
              "coding": [
                {
                  "code": "GB",
                  "system": "http://hl7.org/fhir/ValueSet/country"
                }
              ]
            }
          }
        ],
        "text": {
          "status": "generated",
          "div": "<div xmlns=\"http://www.w3.org/1999/xhtml\"><table class=\"hl7__ips\"><tr><td>Roy Harrison</td><td>male</td><td>02-Oct-1969</td></tr></table></div>"
        },
        "gender": "male",
        "birthDate": "1969-10-02"
      }
    },
    {
      "fullUrl": "urn:uuid:a1b072be-18b0-475a-97f8-2ca45da402cd",
      "resource": {
        "resourceType": "ServiceRequest",
        "id": "a1b072be-18b0-475a-97f8-2ca45da402cd",
        "meta": {
          "profile": [
            "http://hl7.eu/fhir/laboratory/StructureDefinition/ServiceRequest-eu-lab"
          ]
        },
        "identifier": [
          {
            "system": "http://example.org",
            "value": "22c45eea-5a60-4efc-8e5c-e13f6ae0df12"
          }
        ],
        "specimen": [
          {
            "reference": "urn:uuid:92e72f60-410c-4aef-ab99-879367f8de51"
          },
          {
            "reference": "urn:uuid:33255fe5-e264-4803-aa82-740dd77ae7fb"
          },
          {
            "reference": "urn:uuid:d4507977-9954-4a8b-b90e-25fee51726b0"
          }
        ],
        "reasonCode": [
          {
            "coding": [
              {
                "code": "302870006",
                "system": "http://snomed.info/sct",
                "display": "Hypertriglyceridemia"
              }
            ]
          },
          {
            "coding": [
              {
                "code": "44054006",
                "system": "http://snomed.info/sct",
                "display": "Type 2 diabetes mellitus"
              }
            ]
          },
          {
            "coding": [
              {
                "code": "59621000",
                "system": "http://snomed.info/sct",
                "display": "Essential hypertension"
              }
            ]
          },
          {
            "coding": [
              {
                "code": "237602007",
                "system": "http://snomed.info/sct",
                "display": "Metabolic syndrome X"
              }
            ]
          },
          {
            "coding": [
              {
                "code": "271737000",
                "system": "http://snomed.info/sct",
                "display": "Anemia"
              }
            ]
          },
          {
            "coding": [
              {
                "code": "90560007",
                "system": "http://snomed.info/sct",
                "display": "Gout"
              }
            ]
          }
        ],
        "status": "active",
        "intent": "order",
        "code": {
          "coding": [
            {
              "code": "108252007",
              "system": "http://snomed.info/sct",
              "display": "Laboratory procedure"
            }
          ]
        },
        "subject": {
          "reference": "urn:uuid:3b2c268c-ebbf-4ef3-85f4-4752be978ae3",
          "display": "Roy Harrison"
        },
        "requester": {
          "reference": "urn:uuid:559f8c8e-eeef-4b64-a270-cab03d8c08ae"
        }
      }
    },
    {
      "fullUrl": "urn:uuid:559f8c8e-eeef-4b64-a270-cab03d8c08ae",
      "resource": {
        "resourceType": "PractitionerRole",
        "id": "559f8c8e-eeef-4b64-a270-cab03d8c08ae",
        "meta": {
          "profile": [
            "http://hl7.eu/fhir/base/StructureDefinition/practitionerRole-eu"
          ]
        },
        "text": {
          "status": "generated",
          "div": "<div xmlns=\"http://www.w3.org/1999/xhtml\">Provider Role Id: 559f8c8e-eeef-4b64-a270-cab03d8c08ae</div>"
        },
        "organization": {
          "reference": "urn:uuid:49749acb-daee-4bbf-b8ae-bc74fa159c84"
        }
      }
    },
    {
      "fullUrl": "urn:uuid:49749acb-daee-4bbf-b8ae-bc74fa159c84",
      "resource": {
        "resourceType": "Organization",
        "id": "49749acb-daee-4bbf-b8ae-bc74fa159c84",
        "meta": {
          "profile": [
            "http://hl7.eu/fhir/base/StructureDefinition/organization-eu"
          ]
        },
        "identifier": [
          {
            "assigner": {
              "display": "HL7 Europe"
            },
            "system": "urn:oid:2.16.840.1.113883.2.51.999",
            "value": "38028e83-8ec1-4752-9f1a-10d2ddda30f2"
          }
        ],
        "address": [
          {
            "city": "London",
            "postalCode": "SE1 7",
            "country": "United Kingdom"
          }
        ],
        "text": {
          "status": "generated",
          "div": "<div xmlns=\"http://www.w3.org/1999/xhtml\">Provider Organization: Evelina Children&#039;s Hospital</div>"
        },
        "name": "Evelina Children&#039;s Hospital"
      }
    },
    {
      "fullUrl": "urn:uuid:92e72f60-410c-4aef-ab99-879367f8de51",
      "resource": {
        "resourceType": "Specimen",
        "id": "92e72f60-410c-4aef-ab99-879367f8de51",
        "meta": {
          "profile": [
            "http://hl7.eu/fhir/laboratory/StructureDefinition/Specimen-eu-lab"
          ]
        },
        "collection": {
          "collectedDateTime": "2023-04-11"
        },
        "text": {
          "status": "generated",
          "div": "<div xmlns=\"http://www.w3.org/1999/xhtml\"><table class=\"hl7__eu__lab__report\"><tr><th>Specimen</th><th>Collection Date</th></tr><tr><td>Whole blood specimen (specimen)</td><td><span class=\"nb\">11-Apr-2023</span></td></tr></table></div>"
        },
        "type": {
          "coding": [
            {
              "code": "258580003",
              "system": "http://snomed.info/sct",
              "display": "Whole blood specimen (specimen)"
            }
          ]
        }
      }
    },
    {
      "fullUrl": "urn:uuid:33255fe5-e264-4803-aa82-740dd77ae7fb",
      "resource": {
        "resourceType": "Specimen",
        "id": "33255fe5-e264-4803-aa82-740dd77ae7fb",
        "meta": {
          "profile": [
            "http://hl7.eu/fhir/laboratory/StructureDefinition/Specimen-eu-lab"
          ]
        },
        "collection": {
          "collectedDateTime": "2023-04-11"
        },
        "text": {
          "status": "generated",
          "div": "<div xmlns=\"http://www.w3.org/1999/xhtml\"><table class=\"hl7__eu__lab__report\"><tr><th>Specimen</th><th>Collection Date</th></tr><tr><td>Acellular blood (serum or plasma) specimen</td><td><span class=\"nb\">11-Apr-2023</span></td></tr></table></div>"
        },
        "type": {
          "coding": [
            {
              "code": "122592007",
              "system": "http://snomed.info/sct",
              "display": "Acellular blood (serum or plasma) specimen"
            }
          ]
        }
      }
    },
    {
      "fullUrl": "urn:uuid:d4507977-9954-4a8b-b90e-25fee51726b0",
      "resource": {
        "resourceType": "Specimen",
        "id": "d4507977-9954-4a8b-b90e-25fee51726b0",
        "meta": {
          "profile": [
            "http://hl7.eu/fhir/laboratory/StructureDefinition/Specimen-eu-lab"
          ]
        },
        "collection": {
          "collectedDateTime": "2023-04-11"
        },
        "text": {
          "status": "generated",
          "div": "<div xmlns=\"http://www.w3.org/1999/xhtml\"><table class=\"hl7__eu__lab__report\"><tr><th>Specimen</th><th>Collection Date</th></tr><tr><td>Urine specimen</td><td><span class=\"nb\">11-Apr-2023</span></td></tr></table></div>"
        },
        "type": {
          "coding": [
            {
              "code": "122575003",
              "system": "http://snomed.info/sct",
              "display": "Urine specimen"
            }
          ]
        }
      }
    },
    {
      "fullUrl": "urn:uuid:0676381a-31f0-4790-bea3-5caf87f41285",
      "resource": {
        "resourceType": "Observation",
        "id": "0676381a-31f0-4790-bea3-5caf87f41285",
        "meta": {
          "profile": [
            "http://hl7.eu/fhir/laboratory/StructureDefinition/Observation-resultslab-eu-lab"
          ]
        },
        "performer": [
          {
            "display": "The Central European Lab"
          }
        ],
        "category": [
          {
            "coding": [
              {
                "system": "http://terminology.hl7.org/CodeSystem/observation-category",
                "code": "laboratory"
              }
            ]
          }
        ],
        "code": {
          "coding": [
            {
              "code": "4548-4",
              "system": "http://loinc.org",
              "display": "Hemoglobin A1c/Hemoglobin.total in Blood"
            }
          ],
          "text": "Hemoglobin A1c/Hemoglobin.total in Blood"
        },
        "valueQuantity": {
          "system": "http://unitsofmeasure.org",
          "value": 7,
          "unit": "%",
          "code": "%"
        },
        "referenceRange": [
          {
            "low": {
              "value": 4.6,
              "code": "%",
              "system": "http://unitsofmeasure.org"
            }
          },
          {
            "high": {
              "value": 6,
              "code": "%",
              "system": "http://unitsofmeasure.org"
            }
          }
        ],
        "interpretation": [
          {
            "coding": [
              {
                "code": "H",
                "system": "http://terminology.hl7.org/CodeSystem/v3-ObservationInterpretation",
                "display": "High"
              }
            ]
          }
        ],
        "text": {
          "status": "generated",
          "div": "<div xmlns=\"http://www.w3.org/1999/xhtml\"><table class=\"hl7__eu__lab__report\"><tr><th>Test</th><th>11-Apr-2023</th><th>Reference&#xA0;Range</th><th>Unit</th></tr><tr><td>Hemoglobin A1c/Hemoglobin.total in Blood</td><td>7.0</td><td>4.6 - 6</td><td>H</td><td>%</td></tr></table></div>"
        },
        "status": "final",
        "subject": {
          "reference": "urn:uuid:3b2c268c-ebbf-4ef3-85f4-4752be978ae3",
          "display": "Roy Harrison"
        },
        "effectiveDateTime": "2023-04-11T02:49:43Z",
        "specimen": {
          "reference": "urn:uuid:92e72f60-410c-4aef-ab99-879367f8de51"
        }
      }
    },
    {
      "fullUrl": "urn:uuid:2a72c1df-c0ed-47ab-8af1-f97bf17c36e7",
      "resource": {
        "resourceType": "Observation",
        "id": "2a72c1df-c0ed-47ab-8af1-f97bf17c36e7",
        "meta": {
          "profile": [
            "http://hl7.eu/fhir/laboratory/StructureDefinition/Observation-resultslab-eu-lab"
          ]
        },
        "performer": [
          {
            "display": "The Central European Lab"
          }
        ],
        "category": [
          {
            "coding": [
              {
                "system": "http://terminology.hl7.org/CodeSystem/observation-category",
                "code": "laboratory"
              }
            ]
          }
        ],
        "code": {
          "coding": [
            {
              "code": "2339-0",
              "system": "http://loinc.org",
              "display": "Glucose [Mass/volume] in Blood"
            }
          ],
          "text": "Glucose [Mass/volume] in Blood"
        },
        "valueQuantity": {
          "system": "http://unitsofmeasure.org",
          "value": 113.4,
          "unit": "mg/dL",
          "code": "mg/dL"
        },
        "referenceRange": [
          {
            "low": {
              "value": 70,
              "code": "mg/dL",
              "system": "http://unitsofmeasure.org"
            }
          },
          {
            "high": {
              "value": 99,
              "code": "mg/dL",
              "system": "http://unitsofmeasure.org"
            }
          }
        ],
        "interpretation": [
          {
            "coding": [
              {
                "code": "H",
                "system": "http://terminology.hl7.org/CodeSystem/v3-ObservationInterpretation",
                "display": "High"
              }
            ]
          }
        ],
        "text": {
          "status": "generated",
          "div": "<div xmlns=\"http://www.w3.org/1999/xhtml\"><table class=\"hl7__eu__lab__report\"><tr><th>Test</th><th>11-Apr-2023</th><th>Reference&#xA0;Range</th><th>Unit</th></tr><tr><td>Glucose [Mass/volume] in Blood</td><td>113.4</td><td>70 - 99</td><td>H</td><td>mg/dL</td></tr></table></div>"
        },
        "status": "final",
        "subject": {
          "reference": "urn:uuid:3b2c268c-ebbf-4ef3-85f4-4752be978ae3",
          "display": "Roy Harrison"
        },
        "effectiveDateTime": "2023-04-11T02:49:43Z",
        "specimen": {
          "reference": "urn:uuid:92e72f60-410c-4aef-ab99-879367f8de51"
        }
      }
    },
    {
      "fullUrl": "urn:uuid:73d04ed5-9cd0-4827-820d-77314081966e",
      "resource": {
        "resourceType": "Observation",
        "id": "73d04ed5-9cd0-4827-820d-77314081966e",
        "meta": {
          "profile": [
            "http://hl7.eu/fhir/laboratory/StructureDefinition/Observation-resultslab-eu-lab"
          ]
        },
        "performer": [
          {
            "display": "The Central European Lab"
          }
        ],
        "category": [
          {
            "coding": [
              {
                "system": "http://terminology.hl7.org/CodeSystem/observation-category",
                "code": "laboratory"
              }
            ]
          }
        ],
        "code": {
          "coding": [
            {
              "code": "6299-2",
              "system": "http://loinc.org",
              "display": "Urea nitrogen [Mass/volume] in Blood"
            }
          ],
          "text": "Urea nitrogen [Mass/volume] in Blood"
        },
        "valueQuantity": {
          "system": "http://unitsofmeasure.org",
          "value": 8.3,
          "unit": "mg/dL",
          "code": "mg/dL"
        },
        "referenceRange": [
          {
            "low": {
              "value": 7,
              "code": "mg/dL",
              "system": "http://unitsofmeasure.org"
            }
          },
          {
            "high": {
              "value": 50,
              "code": "mg/dL",
              "system": "http://unitsofmeasure.org"
            }
          }
        ],
        "text": {
          "status": "generated",
          "div": "<div xmlns=\"http://www.w3.org/1999/xhtml\"><table class=\"hl7__eu__lab__report\"><tr><th>Test</th><th>11-Apr-2023</th><th>Reference&#xA0;Range</th><th>Unit</th></tr><tr><td>Urea nitrogen [Mass/volume] in Blood</td><td>8.3</td><td>7 - 50</td><td></td><td>mg/dL</td></tr></table></div>"
        },
        "status": "final",
        "subject": {
          "reference": "urn:uuid:3b2c268c-ebbf-4ef3-85f4-4752be978ae3",
          "display": "Roy Harrison"
        },
        "effectiveDateTime": "2023-04-11T02:49:43Z",
        "specimen": {
          "reference": "urn:uuid:92e72f60-410c-4aef-ab99-879367f8de51"
        }
      }
    },
    {
      "fullUrl": "urn:uuid:7025b51d-9169-4654-84fd-0f746c74334f",
      "resource": {
        "resourceType": "Observation",
        "id": "7025b51d-9169-4654-84fd-0f746c74334f",
        "meta": {
          "profile": [
            "http://hl7.eu/fhir/laboratory/StructureDefinition/Observation-resultslab-eu-lab"
          ]
        },
        "performer": [
          {
            "display": "The Central European Lab"
          }
        ],
        "category": [
          {
            "coding": [
              {
                "system": "http://terminology.hl7.org/CodeSystem/observation-category",
                "code": "laboratory"
              }
            ]
          }
        ],
        "code": {
          "coding": [
            {
              "code": "38483-4",
              "system": "http://loinc.org",
              "display": "Creatinine [Mass/volume] in Blood"
            }
          ],
          "text": "Creatinine [Mass/volume] in Blood"
        },
        "valueQuantity": {
          "system": "http://unitsofmeasure.org",
          "value": 1.3,
          "unit": "mg/dL",
          "code": "mg/dL"
        },
        "referenceRange": [
          {
            "low": {
              "value": 0.9,
              "code": "mg/dL",
              "system": "http://unitsofmeasure.org"
            }
          },
          {
            "high": {
              "value": 1.3,
              "code": "mg/dL",
              "system": "http://unitsofmeasure.org"
            }
          }
        ],
        "text": {
          "status": "generated",
          "div": "<div xmlns=\"http://www.w3.org/1999/xhtml\"><table class=\"hl7__eu__lab__report\"><tr><th>Test</th><th>11-Apr-2023</th><th>Reference&#xA0;Range</th><th>Unit</th></tr><tr><td>Creatinine [Mass/volume] in Blood</td><td>1.3</td><td>0.9 - 1.3</td><td></td><td>mg/dL</td></tr></table></div>"
        },
        "status": "final",
        "subject": {
          "reference": "urn:uuid:3b2c268c-ebbf-4ef3-85f4-4752be978ae3",
          "display": "Roy Harrison"
        },
        "effectiveDateTime": "2023-04-11T02:49:43Z",
        "specimen": {
          "reference": "urn:uuid:92e72f60-410c-4aef-ab99-879367f8de51"
        }
      }
    },
    {
      "fullUrl": "urn:uuid:6ea83311-8b32-462f-84fa-a01631799090",
      "resource": {
        "resourceType": "Observation",
        "id": "6ea83311-8b32-462f-84fa-a01631799090",
        "meta": {
          "profile": [
            "http://hl7.eu/fhir/laboratory/StructureDefinition/Observation-resultslab-eu-lab"
          ]
        },
        "performer": [
          {
            "display": "The Central European Lab"
          }
        ],
        "category": [
          {
            "coding": [
              {
                "system": "http://terminology.hl7.org/CodeSystem/observation-category",
                "code": "laboratory"
              }
            ]
          }
        ],
        "code": {
          "coding": [
            {
              "code": "49765-1",
              "system": "http://loinc.org",
              "display": "Calcium [Mass/volume] in Blood"
            }
          ],
          "text": "Calcium [Mass/volume] in Blood"
        },
        "valueQuantity": {
          "system": "http://unitsofmeasure.org",
          "value": 10,
          "unit": "mg/dL",
          "code": "mg/dL"
        },
        "referenceRange": [
          {
            "low": {
              "value": 8.5,
              "code": "mg/dL",
              "system": "http://unitsofmeasure.org"
            }
          },
          {
            "high": {
              "value": 10.5,
              "code": "mg/dL",
              "system": "http://unitsofmeasure.org"
            }
          }
        ],
        "text": {
          "status": "generated",
          "div": "<div xmlns=\"http://www.w3.org/1999/xhtml\"><table class=\"hl7__eu__lab__report\"><tr><th>Test</th><th>11-Apr-2023</th><th>Reference&#xA0;Range</th><th>Unit</th></tr><tr><td>Calcium [Mass/volume] in Blood</td><td>10.0</td><td>8.5 - 10.5</td><td></td><td>mg/dL</td></tr></table></div>"
        },
        "status": "final",
        "subject": {
          "reference": "urn:uuid:3b2c268c-ebbf-4ef3-85f4-4752be978ae3",
          "display": "Roy Harrison"
        },
        "effectiveDateTime": "2023-04-11T02:49:43Z",
        "specimen": {
          "reference": "urn:uuid:92e72f60-410c-4aef-ab99-879367f8de51"
        }
      }
    },
    {
      "fullUrl": "urn:uuid:81565660-0828-4653-8be6-e8be587274bc",
      "resource": {
        "resourceType": "Observation",
        "id": "81565660-0828-4653-8be6-e8be587274bc",
        "meta": {
          "profile": [
            "http://hl7.eu/fhir/laboratory/StructureDefinition/Observation-resultslab-eu-lab"
          ]
        },
        "performer": [
          {
            "display": "The Central European Lab"
          }
        ],
        "category": [
          {
            "coding": [
              {
                "system": "http://terminology.hl7.org/CodeSystem/observation-category",
                "code": "laboratory"
              }
            ]
          }
        ],
        "code": {
          "coding": [
            {
              "code": "2947-0",
              "system": "http://loinc.org",
              "display": "Sodium [Moles/volume] in Blood"
            }
          ],
          "text": "Sodium [Moles/volume] in Blood"
        },
        "valueQuantity": {
          "system": "http://unitsofmeasure.org",
          "value": 140.6,
          "unit": "mmol/L",
          "code": "mmol/L"
        },
        "referenceRange": [
          {
            "low": {
              "value": 135,
              "code": "mmol/L",
              "system": "http://unitsofmeasure.org"
            }
          },
          {
            "high": {
              "value": 145,
              "code": "mmol/L",
              "system": "http://unitsofmeasure.org"
            }
          }
        ],
        "text": {
          "status": "generated",
          "div": "<div xmlns=\"http://www.w3.org/1999/xhtml\"><table class=\"hl7__eu__lab__report\"><tr><th>Test</th><th>11-Apr-2023</th><th>Reference&#xA0;Range</th><th>Unit</th></tr><tr><td>Sodium [Moles/volume] in Blood</td><td>140.6</td><td>135 - 145</td><td></td><td>mmol/L</td></tr></table></div>"
        },
        "status": "final",
        "subject": {
          "reference": "urn:uuid:3b2c268c-ebbf-4ef3-85f4-4752be978ae3",
          "display": "Roy Harrison"
        },
        "effectiveDateTime": "2023-04-11T02:49:43Z",
        "specimen": {
          "reference": "urn:uuid:92e72f60-410c-4aef-ab99-879367f8de51"
        }
      }
    },
    {
      "fullUrl": "urn:uuid:6928cf53-d282-47b7-b1cb-19f17f4127fe",
      "resource": {
        "resourceType": "Observation",
        "id": "6928cf53-d282-47b7-b1cb-19f17f4127fe",
        "meta": {
          "profile": [
            "http://hl7.eu/fhir/laboratory/StructureDefinition/Observation-resultslab-eu-lab"
          ]
        },
        "performer": [
          {
            "display": "The Central European Lab"
          }
        ],
        "category": [
          {
            "coding": [
              {
                "system": "http://terminology.hl7.org/CodeSystem/observation-category",
                "code": "laboratory"
              }
            ]
          }
        ],
        "code": {
          "coding": [
            {
              "code": "6298-4",
              "system": "http://loinc.org",
              "display": "Potassium [Moles/volume] in Blood"
            }
          ],
          "text": "Potassium [Moles/volume] in Blood"
        },
        "valueQuantity": {
          "system": "http://unitsofmeasure.org",
          "value": 4.1,
          "unit": "mmol/L",
          "code": "mmol/L"
        },
        "referenceRange": [
          {
            "low": {
              "value": 3.5,
              "code": "mmol/L",
              "system": "http://unitsofmeasure.org"
            }
          },
          {
            "high": {
              "value": 5.1,
              "code": "mmol/L",
              "system": "http://unitsofmeasure.org"
            }
          }
        ],
        "text": {
          "status": "generated",
          "div": "<div xmlns=\"http://www.w3.org/1999/xhtml\"><table class=\"hl7__eu__lab__report\"><tr><th>Test</th><th>11-Apr-2023</th><th>Reference&#xA0;Range</th><th>Unit</th></tr><tr><td>Potassium [Moles/volume] in Blood</td><td>4.1</td><td>3.5 - 5.1</td><td></td><td>mmol/L</td></tr></table></div>"
        },
        "status": "final",
        "subject": {
          "reference": "urn:uuid:3b2c268c-ebbf-4ef3-85f4-4752be978ae3",
          "display": "Roy Harrison"
        },
        "effectiveDateTime": "2023-04-11T02:49:43Z",
        "specimen": {
          "reference": "urn:uuid:92e72f60-410c-4aef-ab99-879367f8de51"
        }
      }
    },
    {
      "fullUrl": "urn:uuid:9050f0c2-66cf-4472-8cd1-92fb9d4c5aeb",
      "resource": {
        "resourceType": "Observation",
        "id": "9050f0c2-66cf-4472-8cd1-92fb9d4c5aeb",
        "meta": {
          "profile": [
            "http://hl7.eu/fhir/laboratory/StructureDefinition/Observation-resultslab-eu-lab"
          ]
        },
        "performer": [
          {
            "display": "The Central European Lab"
          }
        ],
        "category": [
          {
            "coding": [
              {
                "system": "http://terminology.hl7.org/CodeSystem/observation-category",
                "code": "laboratory"
              }
            ]
          }
        ],
        "code": {
          "coding": [
            {
              "code": "2069-3",
              "system": "http://loinc.org",
              "display": "Chloride [Moles/volume] in Blood"
            }
          ],
          "text": "Chloride [Moles/volume] in Blood"
        },
        "valueQuantity": {
          "system": "http://unitsofmeasure.org",
          "value": 102.9,
          "unit": "mmol/L",
          "code": "mmol/L"
        },
        "referenceRange": [
          {
            "low": {
              "value": 98,
              "code": "mmol/L",
              "system": "http://unitsofmeasure.org"
            }
          },
          {
            "high": {
              "value": 114,
              "code": "mmol/L",
              "system": "http://unitsofmeasure.org"
            }
          }
        ],
        "text": {
          "status": "generated",
          "div": "<div xmlns=\"http://www.w3.org/1999/xhtml\"><table class=\"hl7__eu__lab__report\"><tr><th>Test</th><th>11-Apr-2023</th><th>Reference&#xA0;Range</th><th>Unit</th></tr><tr><td>Chloride [Moles/volume] in Blood</td><td>102.9</td><td>98 - 114</td><td></td><td>mmol/L</td></tr></table></div>"
        },
        "status": "final",
        "subject": {
          "reference": "urn:uuid:3b2c268c-ebbf-4ef3-85f4-4752be978ae3",
          "display": "Roy Harrison"
        },
        "effectiveDateTime": "2023-04-11T02:49:43Z",
        "specimen": {
          "reference": "urn:uuid:92e72f60-410c-4aef-ab99-879367f8de51"
        }
      }
    },
    {
      "fullUrl": "urn:uuid:fb919a7f-c3ee-44dd-aabd-44506045ee78",
      "resource": {
        "resourceType": "Observation",
        "id": "fb919a7f-c3ee-44dd-aabd-44506045ee78",
        "meta": {
          "profile": [
            "http://hl7.eu/fhir/laboratory/StructureDefinition/Observation-resultslab-eu-lab"
          ]
        },
        "performer": [
          {
            "display": "The Central European Lab"
          }
        ],
        "category": [
          {
            "coding": [
              {
                "system": "http://terminology.hl7.org/CodeSystem/observation-category",
                "code": "laboratory"
              }
            ]
          }
        ],
        "code": {
          "coding": [
            {
              "code": "20565-8",
              "system": "http://loinc.org",
              "display": "Carbon dioxide, total [Moles/volume] in Blood"
            }
          ],
          "text": "Carbon dioxide, total [Moles/volume] in Blood"
        },
        "valueQuantity": {
          "system": "http://unitsofmeasure.org",
          "value": 26.2,
          "unit": "mmol/L",
          "code": "mmol/L"
        },
        "referenceRange": [
          {
            "low": {
              "value": 22,
              "code": "mmol/L",
              "system": "http://unitsofmeasure.org"
            }
          },
          {
            "high": {
              "value": 32,
              "code": "mmol/L",
              "system": "http://unitsofmeasure.org"
            }
          }
        ],
        "text": {
          "status": "generated",
          "div": "<div xmlns=\"http://www.w3.org/1999/xhtml\"><table class=\"hl7__eu__lab__report\"><tr><th>Test</th><th>11-Apr-2023</th><th>Reference&#xA0;Range</th><th>Unit</th></tr><tr><td>Carbon dioxide, total [Moles/volume] in Blood</td><td>26.2</td><td>22 - 32</td><td></td><td>mmol/L</td></tr></table></div>"
        },
        "status": "final",
        "subject": {
          "reference": "urn:uuid:3b2c268c-ebbf-4ef3-85f4-4752be978ae3",
          "display": "Roy Harrison"
        },
        "effectiveDateTime": "2023-04-11T02:49:43Z",
        "specimen": {
          "reference": "urn:uuid:92e72f60-410c-4aef-ab99-879367f8de51"
        }
      }
    },
    {
      "fullUrl": "urn:uuid:91037f9c-02ed-43c9-a94b-7e1e381ca97d",
      "resource": {
        "resourceType": "Observation",
        "id": "91037f9c-02ed-43c9-a94b-7e1e381ca97d",
        "meta": {
          "profile": [
            "http://hl7.eu/fhir/laboratory/StructureDefinition/Observation-resultslab-eu-lab"
          ]
        },
        "performer": [
          {
            "display": "The Central European Lab"
          }
        ],
        "category": [
          {
            "coding": [
              {
                "system": "http://terminology.hl7.org/CodeSystem/observation-category",
                "code": "laboratory"
              }
            ]
          }
        ],
        "code": {
          "coding": [
            {
              "code": "2093-3",
              "system": "http://loinc.org",
              "display": "Cholesterol [Mass/volume] in Serum or Plasma"
            }
          ],
          "text": "Cholesterol [Mass/volume] in Serum or Plasma"
        },
        "valueQuantity": {
          "system": "http://unitsofmeasure.org",
          "value": 236.3,
          "unit": "mg/dL",
          "code": "mg/dL"
        },
        "referenceRange": [
          {
            "low": {
              "value": 125,
              "code": "mg/dL",
              "system": "http://unitsofmeasure.org"
            }
          },
          {
            "high": {
              "value": 200,
              "code": "mg/dL",
              "system": "http://unitsofmeasure.org"
            }
          }
        ],
        "interpretation": [
          {
            "coding": [
              {
                "code": "H",
                "system": "http://terminology.hl7.org/CodeSystem/v3-ObservationInterpretation",
                "display": "High"
              }
            ]
          }
        ],
        "text": {
          "status": "generated",
          "div": "<div xmlns=\"http://www.w3.org/1999/xhtml\"><table class=\"hl7__eu__lab__report\"><tr><th>Test</th><th>11-Apr-2023</th><th>Reference&#xA0;Range</th><th>Unit</th></tr><tr><td>Cholesterol [Mass/volume] in Serum or Plasma</td><td>236.3</td><td>125 - 200</td><td>H</td><td>mg/dL</td></tr></table></div>"
        },
        "status": "final",
        "subject": {
          "reference": "urn:uuid:3b2c268c-ebbf-4ef3-85f4-4752be978ae3",
          "display": "Roy Harrison"
        },
        "effectiveDateTime": "2023-04-11T02:49:43Z",
        "specimen": {
          "reference": "urn:uuid:33255fe5-e264-4803-aa82-740dd77ae7fb"
        }
      }
    },
    {
      "fullUrl": "urn:uuid:578d8145-a554-4ac8-80dc-273a7f9f34f6",
      "resource": {
        "resourceType": "Observation",
        "id": "578d8145-a554-4ac8-80dc-273a7f9f34f6",
        "meta": {
          "profile": [
            "http://hl7.eu/fhir/laboratory/StructureDefinition/Observation-resultslab-eu-lab"
          ]
        },
        "performer": [
          {
            "display": "The Central European Lab"
          }
        ],
        "category": [
          {
            "coding": [
              {
                "system": "http://terminology.hl7.org/CodeSystem/observation-category",
                "code": "laboratory"
              }
            ]
          }
        ],
        "code": {
          "coding": [
            {
              "code": "2571-8",
              "system": "http://loinc.org",
              "display": "Triglyceride [Mass/volume] in Serum or Plasma"
            }
          ],
          "text": "Triglyceride [Mass/volume] in Serum or Plasma"
        },
        "valueQuantity": {
          "system": "http://unitsofmeasure.org",
          "value": 158.1,
          "unit": "mg/dL",
          "code": "mg/dL"
        },
        "referenceRange": [
          {
            "low": {
              "value": 0,
              "code": "mg/dL",
              "system": "http://unitsofmeasure.org"
            }
          },
          {
            "high": {
              "value": 150,
              "code": "mg/dL",
              "system": "http://unitsofmeasure.org"
            }
          }
        ],
        "interpretation": [
          {
            "coding": [
              {
                "code": "H",
                "system": "http://terminology.hl7.org/CodeSystem/v3-ObservationInterpretation",
                "display": "High"
              }
            ]
          }
        ],
        "text": {
          "status": "generated",
          "div": "<div xmlns=\"http://www.w3.org/1999/xhtml\"><table class=\"hl7__eu__lab__report\"><tr><th>Test</th><th>11-Apr-2023</th><th>Reference&#xA0;Range</th><th>Unit</th></tr><tr><td>Triglyceride [Mass/volume] in Serum or Plasma</td><td>158.1</td><td>0 - 150</td><td>H</td><td>mg/dL</td></tr></table></div>"
        },
        "status": "final",
        "subject": {
          "reference": "urn:uuid:3b2c268c-ebbf-4ef3-85f4-4752be978ae3",
          "display": "Roy Harrison"
        },
        "effectiveDateTime": "2023-04-11T02:49:43Z",
        "specimen": {
          "reference": "urn:uuid:33255fe5-e264-4803-aa82-740dd77ae7fb"
        }
      }
    },
    {
      "fullUrl": "urn:uuid:1a541022-bae0-46c4-91dc-6ede8f2919a3",
      "resource": {
        "resourceType": "Observation",
        "id": "1a541022-bae0-46c4-91dc-6ede8f2919a3",
        "meta": {
          "profile": [
            "http://hl7.eu/fhir/laboratory/StructureDefinition/Observation-resultslab-eu-lab"
          ]
        },
        "performer": [
          {
            "display": "The Central European Lab"
          }
        ],
        "category": [
          {
            "coding": [
              {
                "system": "http://terminology.hl7.org/CodeSystem/observation-category",
                "code": "laboratory"
              }
            ]
          }
        ],
        "code": {
          "coding": [
            {
              "code": "18262-6",
              "system": "http://loinc.org",
              "display": "Cholesterol in LDL [Mass/volume] in Serum or Plasma by Direct assay"
            }
          ],
          "text": "Cholesterol in LDL [Mass/volume] in Serum or Plasma by Direct assay"
        },
        "valueQuantity": {
          "system": "http://unitsofmeasure.org",
          "value": 149.8,
          "unit": "mg/dL",
          "code": "mg/dL"
        },
        "referenceRange": [
          {
            "low": {
              "value": 0,
              "code": "mg/dL",
              "system": "http://unitsofmeasure.org"
            }
          },
          {
            "high": {
              "value": 130,
              "code": "mg/dL",
              "system": "http://unitsofmeasure.org"
            }
          }
        ],
        "interpretation": [
          {
            "coding": [
              {
                "code": "H",
                "system": "http://terminology.hl7.org/CodeSystem/v3-ObservationInterpretation",
                "display": "High"
              }
            ]
          }
        ],
        "text": {
          "status": "generated",
          "div": "<div xmlns=\"http://www.w3.org/1999/xhtml\"><table class=\"hl7__eu__lab__report\"><tr><th>Test</th><th>11-Apr-2023</th><th>Reference&#xA0;Range</th><th>Unit</th></tr><tr><td>Cholesterol in LDL [Mass/volume] in Serum or Plasma by Direct assay</td><td>149.8</td><td>0 - 130</td><td>H</td><td>mg/dL</td></tr></table></div>"
        },
        "status": "final",
        "subject": {
          "reference": "urn:uuid:3b2c268c-ebbf-4ef3-85f4-4752be978ae3",
          "display": "Roy Harrison"
        },
        "effectiveDateTime": "2023-04-11T02:49:43Z",
        "specimen": {
          "reference": "urn:uuid:33255fe5-e264-4803-aa82-740dd77ae7fb"
        }
      }
    },
    {
      "fullUrl": "urn:uuid:cb275c97-fbf0-434e-9028-8008fe6e4d3f",
      "resource": {
        "resourceType": "Observation",
        "id": "cb275c97-fbf0-434e-9028-8008fe6e4d3f",
        "meta": {
          "profile": [
            "http://hl7.eu/fhir/laboratory/StructureDefinition/Observation-resultslab-eu-lab"
          ]
        },
        "performer": [
          {
            "display": "The Central European Lab"
          }
        ],
        "category": [
          {
            "coding": [
              {
                "system": "http://terminology.hl7.org/CodeSystem/observation-category",
                "code": "laboratory"
              }
            ]
          }
        ],
        "code": {
          "coding": [
            {
              "code": "2085-9",
              "system": "http://loinc.org",
              "display": "Cholesterol in HDL [Mass/volume] in Serum or Plasma"
            }
          ],
          "text": "Cholesterol in HDL [Mass/volume] in Serum or Plasma"
        },
        "valueQuantity": {
          "system": "http://unitsofmeasure.org",
          "value": 54.9,
          "unit": "mg/dL",
          "code": "mg/dL"
        },
        "referenceRange": [
          {
            "low": {
              "value": 40,
              "code": "mg/dL",
              "system": "http://unitsofmeasure.org"
            }
          },
          {
            "high": {
              "value": 60,
              "code": "mg/dL",
              "system": "http://unitsofmeasure.org"
            }
          }
        ],
        "text": {
          "status": "generated",
          "div": "<div xmlns=\"http://www.w3.org/1999/xhtml\"><table class=\"hl7__eu__lab__report\"><tr><th>Test</th><th>11-Apr-2023</th><th>Reference&#xA0;Range</th><th>Unit</th></tr><tr><td>Cholesterol in HDL [Mass/volume] in Serum or Plasma</td><td>54.9</td><td>40 - 60</td><td></td><td>mg/dL</td></tr></table></div>"
        },
        "status": "final",
        "subject": {
          "reference": "urn:uuid:3b2c268c-ebbf-4ef3-85f4-4752be978ae3",
          "display": "Roy Harrison"
        },
        "effectiveDateTime": "2023-04-11T02:49:43Z",
        "specimen": {
          "reference": "urn:uuid:33255fe5-e264-4803-aa82-740dd77ae7fb"
        }
      }
    },
    {
      "fullUrl": "urn:uuid:d1559d0b-aa60-470a-990e-255adfdf3532",
      "resource": {
        "resourceType": "Observation",
        "id": "d1559d0b-aa60-470a-990e-255adfdf3532",
        "meta": {
          "profile": [
            "http://hl7.eu/fhir/laboratory/StructureDefinition/Observation-resultslab-eu-lab"
          ]
        },
        "performer": [
          {
            "display": "The Central European Lab"
          }
        ],
        "category": [
          {
            "coding": [
              {
                "system": "http://terminology.hl7.org/CodeSystem/observation-category",
                "code": "laboratory"
              }
            ]
          }
        ],
        "code": {
          "coding": [
            {
              "code": "14959-1",
              "system": "http://loinc.org",
              "display": "Microalbumin/Creatinine [Mass Ratio] in Urine"
            }
          ],
          "text": "Microalbumin/Creatinine [Mass Ratio] in Urine"
        },
        "valueQuantity": {
          "system": "http://unitsofmeasure.org",
          "value": 10.9,
          "unit": "mg/g",
          "code": "mg/g"
        },
        "referenceRange": [
          {
            "low": {
              "value": 0,
              "code": "mg/g",
              "system": "http://unitsofmeasure.org"
            }
          },
          {
            "high": {
              "value": 30,
              "code": "mg/g",
              "system": "http://unitsofmeasure.org"
            }
          }
        ],
        "text": {
          "status": "generated",
          "div": "<div xmlns=\"http://www.w3.org/1999/xhtml\"><table class=\"hl7__eu__lab__report\"><tr><th>Test</th><th>11-Apr-2023</th><th>Reference&#xA0;Range</th><th>Unit</th></tr><tr><td>Microalbumin/Creatinine [Mass Ratio] in Urine</td><td>10.9</td><td>0 - 30</td><td></td><td>mg/g</td></tr></table></div>"
        },
        "status": "final",
        "subject": {
          "reference": "urn:uuid:3b2c268c-ebbf-4ef3-85f4-4752be978ae3",
          "display": "Roy Harrison"
        },
        "effectiveDateTime": "2023-04-11T02:49:43Z",
        "specimen": {
          "reference": "urn:uuid:d4507977-9954-4a8b-b90e-25fee51726b0"
        }
      }
    },
    {
      "fullUrl": "urn:uuid:50f36d3b-0672-4ea2-8165-2558265296a0",
      "resource": {
        "resourceType": "Device",
        "id": "50f36d3b-0672-4ea2-8165-2558265296a0",
        "deviceName": [
          {
            "name": "SYNDERAI Synthetic Generator",
            "type": "manufacturer-name"
          }
        ],
        "version": [
          {
            "value": "5.0"
          }
        ],
        "text": {
          "status": "generated",
          "div": "<div xmlns=\"http://www.w3.org/1999/xhtml\">SYNDERAI Synthetic Generator v5.0</div>"
        },
        "status": "active\"",
        "distinctIdentifier": "synderai-generator-50",
        "manufacturer": "SYNDERAI Project"
      }
    },
    {
      "fullUrl": "urn:uuid:3f72ebc4-f54d-4ca8-b4d4-c1a91cd121be",
      "resource": {
        "resourceType": "Provenance",
        "id": "3f72ebc4-f54d-4ca8-b4d4-c1a91cd121be",
        "target": [
          {
            "reference": "Patient/3b2c268c-ebbf-4ef3-85f4-4752be978ae3"
          },
          {
            "reference": "Bundle/560fd24f-03b7-44db-bcbe-6c07b96ba9c1"
          },
          {
            "reference": "Composition/29998f98-a10b-4f6e-81b7-03d40d7e6ee2"
          },
          {
            "reference": "PractitionerRole/3b01a1aa-a931-40ba-b95b-c07e750ef123"
          },
          {
            "reference": "Practitioner/fa2285c6-38ae-469f-bf2a-9efc4c932bad"
          },
          {
            "reference": "PractitionerRole/559f8c8e-eeef-4b64-a270-cab03d8c08ae"
          },
          {
            "reference": "Organization/49749acb-daee-4bbf-b8ae-bc74fa159c84"
          }
        ],
        "activity": {
          "text": "Synthetic Example Data Generation"
        },
        "policy": [
          "https://synderai.net/synderai-synthetic-data-policy"
        ],
        "agent": [
          {
            "type": {
              "text": "author"
            },
            "who": {
              "reference": "Device/50f36d3b-0672-4ea2-8165-2558265296a0"
            }
          }
        ],
        "reason": [
          {
            "text": "Interoperability Testing and Training (non-clinical use)"
          }
        ],
        "text": {
          "status": "generated",
          "div": "<div xmlns=\"http://www.w3.org/1999/xhtml\">Provenance for SYNDERAI Synthetic Example Data Resource</div>"
        },
        "recorded": "2023-04-11T04:49:43Z"
      }
    },
    {
      "fullUrl": "urn:uuid:3b01a1aa-a931-40ba-b95b-c07e750ef123",
      "resource": {
        "resourceType": "PractitionerRole",
        "id": "3b01a1aa-a931-40ba-b95b-c07e750ef123",
        "meta": {
          "profile": [
            "http://hl7.eu/fhir/base/StructureDefinition/practitionerRole-eu"
          ]
        },
        "text": {
          "status": "generated",
          "div": "<div xmlns=\"http://www.w3.org/1999/xhtml\">Laboratory Role Id: 3b01a1aa-a931-40ba-b95b-c07e750ef123</div>"
        },
        "practitioner": {
          "reference": "urn:uuid:fa2285c6-38ae-469f-bf2a-9efc4c932bad"
        }
      }
    },
    {
      "fullUrl": "urn:uuid:fa2285c6-38ae-469f-bf2a-9efc4c932bad",
      "resource": {
        "resourceType": "Practitioner",
        "id": "fa2285c6-38ae-469f-bf2a-9efc4c932bad",
        "meta": {
          "profile": [
            "http://hl7.eu/fhir/base/StructureDefinition/practitioner-eu"
          ]
        },
        "identifier": [
          {
            "assigner": {
              "display": "HL7 Europe"
            },
            "system": "urn:oid:2.16.840.1.113883.2.51.999",
            "value": "c89dff08-3963-46a5-aa3a-992c0f2c3a83"
          }
        ],
        "name": [
          {
            "prefix": [
              "dr"
            ],
            "given": [
              "Ex"
            ],
            "family": "Ample"
          }
        ],
        "address": [
          {
            "line": [
              "Laboratoire Central Europenne",
              "Boulevard du Jardin Botanique 32"
            ],
            "postalCode": "1000",
            "city": "Brussels",
            "country": "Belgium"
          }
        ],
        "text": {
          "status": "generated",
          "div": "<div xmlns=\"http://www.w3.org/1999/xhtml\">Laboratory: Laboratoire Central Europenne, 1000 Brussels, Belgium</div>"
        }
      }
    }
  ],
  "type": "document",
  "timestamp": "2023-04-11T04:49:43Z"
}
