{
  "resourceType": "Bundle",
  "id": "f5e157ac-b07b-45f6-a050-d24ccd422663",
  "meta": {
    "profile": [
      "http://hl7.eu/fhir/laboratory/StructureDefinition/Bundle-eu-lab"
    ]
  },
  "identifier": {
    "assigner": {
      "display": "HL7 Europe"
    },
    "system": "urn:oid:2.16.840.1.113883.2.51.999",
    "value": "58fa0216-be00-4edb-8f00-ed75ded82e4d"
  },
  "entry": [
    {
      "fullUrl": "urn:uuid:8e70f931-fe14-4da6-8869-4a37ef98954f",
      "resource": {
        "resourceType": "Composition",
        "id": "8e70f931-fe14-4da6-8869-4a37ef98954f",
        "meta": {
          "profile": [
            "http://hl7.eu/fhir/laboratory/StructureDefinition/Composition-eu-lab"
          ]
        },
        "identifier": {
          "assigner": {
            "display": "HL7 Europe"
          },
          "system": "urn:oid:2.16.840.1.113883.2.51.999",
          "value": "51ad99f9-b047-462d-b944-64d526f68762"
        },
        "author": [
          {
            "reference": "urn:uuid:0dcf44b2-2897-48dc-b307-3ad69f0cfc81"
          }
        ],
        "category": [
          {
            "coding": [
              {
                "code": "26436-6",
                "system": "http://loinc.org",
                "display": "Laboratory studies (set)"
              }
            ]
          }
        ],
        "type": {
          "coding": [
            {
              "code": "11502-2",
              "system": "http://loinc.org",
              "display": "Laboratory report"
            }
          ],
          "text": "Laboratory Report"
        },
        "section": [
          {
            "code": {
              "coding": [
                {
                  "code": "26436-6",
                  "system": "http://loinc.org",
                  "display": "Laboratory studies (set)"
                }
              ],
              "text": "Laboratory studies"
            },
            "section": [
              {
                "code": {
                  "coding": [
                    {
                      "code": "$18719-5",
                      "system": "http://loinc.org",
                      "display": "Chemistry studies (set)"
                    }
                  ],
                  "text": "Chemistry"
                },
                "entry": [
                  {
                    "reference": "urn:uuid:645f7771-c103-4f80-96d7-de4f96950996"
                  },
                  {
                    "reference": "urn:uuid:dcf2207b-873b-42e6-bca4-57881fb136d2"
                  },
                  {
                    "reference": "urn:uuid:fffb44fc-fbad-4dbb-b35a-4cea2e35c338"
                  },
                  {
                    "reference": "urn:uuid:d95dc7d0-9249-43d0-a184-41d1218968be"
                  },
                  {
                    "reference": "urn:uuid:e4ea7ea7-3ed5-4242-9040-08969c638979"
                  },
                  {
                    "reference": "urn:uuid:3d1e69ae-2395-4679-9f2f-9844fac3bc0d"
                  },
                  {
                    "reference": "urn:uuid:4583dae2-54c2-4c47-8cc0-d197cab88201"
                  },
                  {
                    "reference": "urn:uuid:57b34e35-da9b-414c-8663-a38b31e4e10f"
                  },
                  {
                    "reference": "urn:uuid:ab612899-bb85-4e99-b560-8f4b0adea6c8"
                  }
                ],
                "text": {
                  "status": "generated",
                  "div": "<div xmlns=\"http://www.w3.org/1999/xhtml\"><h3>Chemistry</h3><table class=\"hl7__eu__lab__report\"><thead><tr><th>Test</th><th>12-APR-2021</th><th>Reference&#xA0;Range</th><th>Unit</th></tr></thead><tbody><tr><td>Hemoglobin A1c/Hemoglobin.total in Blood</td><td><strong>6.1 H</strong></td><td>4 - 6</td><td>%</td></tr><tr><td>Glucose [Mass/volume] in Blood</td><td>79.6</td><td>70 - 140</td><td>mg/dL</td></tr><tr><td>Urea nitrogen [Mass/volume] in Blood</td><td>14.5</td><td>7 - 20</td><td>mg/dL</td></tr><tr><td>Creatinine [Mass/volume] in Blood</td><td>0.9</td><td>0.9 - 1.3</td><td>mg/dL</td></tr><tr><td>Calcium [Mass/volume] in Blood</td><td>9.5</td><td>8.5 - 10.5</td><td>mg/dL</td></tr><tr><td>Sodium [Moles/volume] in Blood</td><td>139.0</td><td>135 - 145</td><td>mmol/L</td></tr><tr><td>Potassium [Moles/volume] in Blood</td><td>3.9</td><td>3.5 - 5</td><td>mmol/L</td></tr><tr><td>Chloride [Moles/volume] in Blood</td><td>106.1</td><td>98 - 110</td><td>mmol/L</td></tr><tr><td>Carbon dioxide, total [Moles/volume] in Blood</td><td>26.0</td><td>22 - 32</td><td>mmol/L</td></tr></tbody></table></div>"
                },
                "title": "Chemistry"
              }
            ],
            "title": "Laboratory Report"
          },
          {
            "text": {
              "status": "generated",
              "div": "<div xmlns=\"http://www.w3.org/1999/xhtml\"><h3>Annotation</h3><table class=\"hl7__eu__lab__report\"><tr><th>Conclusion and Recommendations based on this report and previous findings known to us</th></tr><tr><td>All measured parameters are within normal limits except for a mildly elevated HbA1c (6.1%), indicating impaired glucose metabolism or prediabetes. Renal function, electrolytes, and glucose are normal. Recommend follow-up for glycemic control and lifestyle modification to prevent progression to diabetes.</td></tr></table></div>"
            },
            "code": {
              "coding": [
                {
                  "system": "http://loinc.org",
                  "code": "48767-8",
                  "display": "Annotation comment"
                }
              ]
            },
            "title": "Annotation comment"
          }
        ],
        "status": "final",
        "subject": {
          "reference": "urn:uuid:6790cbc2-70a3-488c-8f87-53449f6b0b9e",
          "display": "Alessio Fanucci"
        },
        "date": "2021-04-12T09:49:06Z",
        "title": "Laboratory Report",
        "confidentiality": "N"
      }
    },
    {
      "fullUrl": "urn:uuid:9e32aa2d-6b35-4e96-8485-55f919bf5ced",
      "resource": {
        "resourceType": "DiagnosticReport",
        "id": "9e32aa2d-6b35-4e96-8485-55f919bf5ced",
        "meta": {
          "profile": [
            "http://hl7.eu/fhir/laboratory/StructureDefinition/DiagnosticReport-eu-lab"
          ]
        },
        "identifier": [
          {
            "assigner": {
              "display": "HL7 Europe"
            },
            "system": "urn:oid:2.16.840.1.113883.2.51.999",
            "value": "57dc7054-1c11-49f3-8347-cb7f8271807d"
          }
        ],
        "extension": [
          {
            "url": "http://hl7.org/fhir/5.0/StructureDefinition/extension-DiagnosticReport.composition",
            "valueReference": {
              "reference": "urn:uuid:51ad99f9-b047-462d-b944-64d526f68762"
            }
          }
        ],
        "category": [
          {
            "coding": [
              {
                "code": "26436-6",
                "system": "http://loinc.org",
                "display": "Laboratory studies (set)"
              }
            ]
          }
        ],
        "specimen": [
          {
            "reference": "urn:uuid:d0efe3ae-e0e4-4200-8402-42b9354675e6"
          }
        ],
        "result": [
          {
            "reference": "urn:uuid:645f7771-c103-4f80-96d7-de4f96950996"
          },
          {
            "reference": "urn:uuid:dcf2207b-873b-42e6-bca4-57881fb136d2"
          },
          {
            "reference": "urn:uuid:fffb44fc-fbad-4dbb-b35a-4cea2e35c338"
          },
          {
            "reference": "urn:uuid:d95dc7d0-9249-43d0-a184-41d1218968be"
          },
          {
            "reference": "urn:uuid:e4ea7ea7-3ed5-4242-9040-08969c638979"
          },
          {
            "reference": "urn:uuid:3d1e69ae-2395-4679-9f2f-9844fac3bc0d"
          },
          {
            "reference": "urn:uuid:4583dae2-54c2-4c47-8cc0-d197cab88201"
          },
          {
            "reference": "urn:uuid:57b34e35-da9b-414c-8663-a38b31e4e10f"
          },
          {
            "reference": "urn:uuid:ab612899-bb85-4e99-b560-8f4b0adea6c8"
          }
        ],
        "status": "registered",
        "code": {
          "coding": [
            {
              "code": "11502-2",
              "system": "http://loinc.org",
              "display": "Laboratory report"
            }
          ]
        },
        "subject": {
          "reference": "urn:uuid:6790cbc2-70a3-488c-8f87-53449f6b0b9e",
          "display": "Alessio Fanucci"
        }
      }
    },
    {
      "fullUrl": "urn:uuid:6790cbc2-70a3-488c-8f87-53449f6b0b9e",
      "resource": {
        "resourceType": "Patient",
        "id": "6790cbc2-70a3-488c-8f87-53449f6b0b9e",
        "meta": {
          "security": [
            {
              "system": "http://terminology.hl7.org/CodeSystem/v3-ActReason",
              "code": "HTEST"
            },
            {
              "system": "http://terminology.hl7.org/CodeSystem/v3-ActReason",
              "code": "TRAIN"
            }
          ],
          "tag": [
            {
              "system": "https://synderai.net/fhir/CodeSystem/tags",
              "code": "synthetic",
              "display": "SYNDERAI Synthetic data"
            }
          ],
          "profile": [
            "http://hl7.eu/fhir/base/StructureDefinition/patient-eu-core"
          ]
        },
        "identifier": [
          {
            "type": {
              "coding": [
                {
                  "code": "PT",
                  "system": "http://terminology.hl7.org/CodeSystem/v2-0203"
                }
              ]
            },
            "system": "http://ec.europa.eu/identifier/eci",
            "value": "4754-874768-3"
          },
          {
            "type": {
              "coding": [
                {
                  "code": "MR",
                  "system": "http://terminology.hl7.org/CodeSystem/v2-0203"
                }
              ]
            },
            "system": "http://local.setting.eu/identifier",
            "value": "4b888823-bdd8-59a3-b785-e7ba28e6a7b5"
          }
        ],
        "name": [
          {
            "family": "Fanucci"
          },
          {
            "given": [
              "Alessio"
            ]
          },
          {
            "text": "Alessio Fanucci"
          }
        ],
        "address": [
          {
            "line": [
              "Incrocio Combi, 822"
            ],
            "use": "home",
            "type": "physical",
            "postalCode": "33015",
            "city": "Moggio Udinese",
            "country": "Italy"
          }
        ],
        "telecom": [
          {
            "system": "phone",
            "value": "0125684636"
          }
        ],
        "extension": [
          {
            "url": "http://hl7.org/fhir/StructureDefinition/patient-nationality",
            "valueCodeableConcept": {
              "coding": [
                {
                  "code": "IT",
                  "system": "http://hl7.org/fhir/ValueSet/country"
                }
              ]
            }
          }
        ],
        "text": {
          "status": "generated",
          "div": "<div xmlns=\"http://www.w3.org/1999/xhtml\"><table class=\"hl7__ips\"><tr><td>Alessio Fanucci</td><td>male</td><td>12-Sep-1964</td></tr></table></div>"
        },
        "gender": "male",
        "birthDate": "1964-09-12"
      }
    },
    {
      "fullUrl": "urn:uuid:710c2e5a-52b9-4506-92b6-da454ff7bb19",
      "resource": {
        "resourceType": "ServiceRequest",
        "id": "710c2e5a-52b9-4506-92b6-da454ff7bb19",
        "meta": {
          "profile": [
            "http://hl7.eu/fhir/laboratory/StructureDefinition/ServiceRequest-eu-lab"
          ]
        },
        "identifier": [
          {
            "system": "http://example.org",
            "value": "23345798-24f6-488d-a2f1-8d1e3ae5a5af"
          }
        ],
        "specimen": [
          {
            "reference": "urn:uuid:d0efe3ae-e0e4-4200-8402-42b9354675e6"
          }
        ],
        "reasonCode": [
          {
            "coding": [
              {
                "code": "15777000",
                "system": "http://snomed.info/sct",
                "display": "Prediabetes"
              }
            ]
          },
          {
            "coding": [
              {
                "code": "271737000",
                "system": "http://snomed.info/sct",
                "display": "Anemia"
              }
            ]
          },
          {
            "coding": [
              {
                "code": "40055000",
                "system": "http://snomed.info/sct",
                "display": "Chronic sinusitis"
              }
            ]
          }
        ],
        "status": "active",
        "intent": "order",
        "code": {
          "coding": [
            {
              "code": "108252007",
              "system": "http://snomed.info/sct",
              "display": "Laboratory procedure"
            }
          ]
        },
        "subject": {
          "reference": "urn:uuid:6790cbc2-70a3-488c-8f87-53449f6b0b9e",
          "display": "Alessio Fanucci"
        },
        "requester": {
          "reference": "urn:uuid:bb399b67-255b-45d6-83d0-9fbd7e9091d3"
        }
      }
    },
    {
      "fullUrl": "urn:uuid:bb399b67-255b-45d6-83d0-9fbd7e9091d3",
      "resource": {
        "resourceType": "PractitionerRole",
        "id": "bb399b67-255b-45d6-83d0-9fbd7e9091d3",
        "meta": {
          "profile": [
            "http://hl7.eu/fhir/base/StructureDefinition/practitionerRole-eu"
          ]
        },
        "text": {
          "status": "generated",
          "div": "<div xmlns=\"http://www.w3.org/1999/xhtml\">Provider Role Id: bb399b67-255b-45d6-83d0-9fbd7e9091d3</div>"
        },
        "organization": {
          "reference": "urn:uuid:536959ed-8549-4f00-b196-5f279fcb1681"
        }
      }
    },
    {
      "fullUrl": "urn:uuid:536959ed-8549-4f00-b196-5f279fcb1681",
      "resource": {
        "resourceType": "Organization",
        "id": "536959ed-8549-4f00-b196-5f279fcb1681",
        "meta": {
          "profile": [
            "http://hl7.eu/fhir/base/StructureDefinition/organization-eu"
          ]
        },
        "identifier": [
          {
            "assigner": {
              "display": "HL7 Europe"
            },
            "system": "urn:oid:2.16.840.1.113883.2.51.999",
            "value": "f9d7d342-185b-448d-a8e2-9ff7b289cf89"
          }
        ],
        "address": [
          {
            "city": "Artegna",
            "postalCode": "33011",
            "country": "Italy"
          }
        ],
        "text": {
          "status": "generated",
          "div": "<div xmlns=\"http://www.w3.org/1999/xhtml\">Provider Organization: Ambulatori</div>"
        },
        "name": "Ambulatori"
      }
    },
    {
      "fullUrl": "urn:uuid:d0efe3ae-e0e4-4200-8402-42b9354675e6",
      "resource": {
        "resourceType": "Specimen",
        "id": "d0efe3ae-e0e4-4200-8402-42b9354675e6",
        "meta": {
          "profile": [
            "http://hl7.eu/fhir/laboratory/StructureDefinition/Specimen-eu-lab"
          ]
        },
        "collection": {
          "collectedDateTime": "2021-04-12"
        },
        "text": {
          "status": "generated",
          "div": "<div xmlns=\"http://www.w3.org/1999/xhtml\"><table class=\"hl7__eu__lab__report\"><tr><th>Specimen</th><th>Collection Date</th></tr><tr><td>Whole blood specimen (specimen)</td><td><span class=\"nb\">12-Apr-2021</span></td></tr></table></div>"
        },
        "type": {
          "coding": [
            {
              "code": "258580003",
              "system": "http://snomed.info/sct",
              "display": "Whole blood specimen (specimen)"
            }
          ]
        }
      }
    },
    {
      "fullUrl": "urn:uuid:645f7771-c103-4f80-96d7-de4f96950996",
      "resource": {
        "resourceType": "Observation",
        "id": "645f7771-c103-4f80-96d7-de4f96950996",
        "meta": {
          "profile": [
            "http://hl7.eu/fhir/laboratory/StructureDefinition/Observation-resultslab-eu-lab"
          ]
        },
        "performer": [
          {
            "display": "The Central European Lab"
          }
        ],
        "category": [
          {
            "coding": [
              {
                "system": "http://terminology.hl7.org/CodeSystem/observation-category",
                "code": "laboratory"
              }
            ]
          }
        ],
        "code": {
          "coding": [
            {
              "code": "4548-4",
              "system": "http://loinc.org",
              "display": "Hemoglobin A1c/Hemoglobin.total in Blood"
            }
          ],
          "text": "Hemoglobin A1c/Hemoglobin.total in Blood"
        },
        "valueQuantity": {
          "system": "http://unitsofmeasure.org",
          "value": 6.1,
          "unit": "%",
          "code": "%"
        },
        "referenceRange": [
          {
            "low": {
              "value": 4,
              "code": "%",
              "system": "http://unitsofmeasure.org"
            }
          },
          {
            "high": {
              "value": 6,
              "code": "%",
              "system": "http://unitsofmeasure.org"
            }
          }
        ],
        "interpretation": [
          {
            "coding": [
              {
                "code": "H",
                "system": "http://terminology.hl7.org/CodeSystem/v3-ObservationInterpretation",
                "display": "High"
              }
            ]
          }
        ],
        "text": {
          "status": "generated",
          "div": "<div xmlns=\"http://www.w3.org/1999/xhtml\"><table class=\"hl7__eu__lab__report\"><tr><th>Test</th><th>12-Apr-2021</th><th>Reference&#xA0;Range</th><th>Unit</th></tr><tr><td>Hemoglobin A1c/Hemoglobin.total in Blood</td><td>6.1</td><td>4 - 6</td><td>H</td><td>%</td></tr></table></div>"
        },
        "status": "final",
        "subject": {
          "reference": "urn:uuid:6790cbc2-70a3-488c-8f87-53449f6b0b9e",
          "display": "Alessio Fanucci"
        },
        "effectiveDateTime": "2021-04-12T07:49:06Z",
        "specimen": {
          "reference": "urn:uuid:d0efe3ae-e0e4-4200-8402-42b9354675e6"
        }
      }
    },
    {
      "fullUrl": "urn:uuid:dcf2207b-873b-42e6-bca4-57881fb136d2",
      "resource": {
        "resourceType": "Observation",
        "id": "dcf2207b-873b-42e6-bca4-57881fb136d2",
        "meta": {
          "profile": [
            "http://hl7.eu/fhir/laboratory/StructureDefinition/Observation-resultslab-eu-lab"
          ]
        },
        "performer": [
          {
            "display": "The Central European Lab"
          }
        ],
        "category": [
          {
            "coding": [
              {
                "system": "http://terminology.hl7.org/CodeSystem/observation-category",
                "code": "laboratory"
              }
            ]
          }
        ],
        "code": {
          "coding": [
            {
              "code": "2339-0",
              "system": "http://loinc.org",
              "display": "Glucose [Mass/volume] in Blood"
            }
          ],
          "text": "Glucose [Mass/volume] in Blood"
        },
        "valueQuantity": {
          "system": "http://unitsofmeasure.org",
          "value": 79.6,
          "unit": "mg/dL",
          "code": "mg/dL"
        },
        "referenceRange": [
          {
            "low": {
              "value": 70,
              "code": "mg/dL",
              "system": "http://unitsofmeasure.org"
            }
          },
          {
            "high": {
              "value": 140,
              "code": "mg/dL",
              "system": "http://unitsofmeasure.org"
            }
          }
        ],
        "text": {
          "status": "generated",
          "div": "<div xmlns=\"http://www.w3.org/1999/xhtml\"><table class=\"hl7__eu__lab__report\"><tr><th>Test</th><th>12-Apr-2021</th><th>Reference&#xA0;Range</th><th>Unit</th></tr><tr><td>Glucose [Mass/volume] in Blood</td><td>79.6</td><td>70 - 140</td><td></td><td>mg/dL</td></tr></table></div>"
        },
        "status": "final",
        "subject": {
          "reference": "urn:uuid:6790cbc2-70a3-488c-8f87-53449f6b0b9e",
          "display": "Alessio Fanucci"
        },
        "effectiveDateTime": "2021-04-12T07:49:06Z",
        "specimen": {
          "reference": "urn:uuid:d0efe3ae-e0e4-4200-8402-42b9354675e6"
        }
      }
    },
    {
      "fullUrl": "urn:uuid:fffb44fc-fbad-4dbb-b35a-4cea2e35c338",
      "resource": {
        "resourceType": "Observation",
        "id": "fffb44fc-fbad-4dbb-b35a-4cea2e35c338",
        "meta": {
          "profile": [
            "http://hl7.eu/fhir/laboratory/StructureDefinition/Observation-resultslab-eu-lab"
          ]
        },
        "performer": [
          {
            "display": "The Central European Lab"
          }
        ],
        "category": [
          {
            "coding": [
              {
                "system": "http://terminology.hl7.org/CodeSystem/observation-category",
                "code": "laboratory"
              }
            ]
          }
        ],
        "code": {
          "coding": [
            {
              "code": "6299-2",
              "system": "http://loinc.org",
              "display": "Urea nitrogen [Mass/volume] in Blood"
            }
          ],
          "text": "Urea nitrogen [Mass/volume] in Blood"
        },
        "valueQuantity": {
          "system": "http://unitsofmeasure.org",
          "value": 14.5,
          "unit": "mg/dL",
          "code": "mg/dL"
        },
        "referenceRange": [
          {
            "low": {
              "value": 7,
              "code": "mg/dL",
              "system": "http://unitsofmeasure.org"
            }
          },
          {
            "high": {
              "value": 20,
              "code": "mg/dL",
              "system": "http://unitsofmeasure.org"
            }
          }
        ],
        "text": {
          "status": "generated",
          "div": "<div xmlns=\"http://www.w3.org/1999/xhtml\"><table class=\"hl7__eu__lab__report\"><tr><th>Test</th><th>12-Apr-2021</th><th>Reference&#xA0;Range</th><th>Unit</th></tr><tr><td>Urea nitrogen [Mass/volume] in Blood</td><td>14.5</td><td>7 - 20</td><td></td><td>mg/dL</td></tr></table></div>"
        },
        "status": "final",
        "subject": {
          "reference": "urn:uuid:6790cbc2-70a3-488c-8f87-53449f6b0b9e",
          "display": "Alessio Fanucci"
        },
        "effectiveDateTime": "2021-04-12T07:49:06Z",
        "specimen": {
          "reference": "urn:uuid:d0efe3ae-e0e4-4200-8402-42b9354675e6"
        }
      }
    },
    {
      "fullUrl": "urn:uuid:d95dc7d0-9249-43d0-a184-41d1218968be",
      "resource": {
        "resourceType": "Observation",
        "id": "d95dc7d0-9249-43d0-a184-41d1218968be",
        "meta": {
          "profile": [
            "http://hl7.eu/fhir/laboratory/StructureDefinition/Observation-resultslab-eu-lab"
          ]
        },
        "performer": [
          {
            "display": "The Central European Lab"
          }
        ],
        "category": [
          {
            "coding": [
              {
                "system": "http://terminology.hl7.org/CodeSystem/observation-category",
                "code": "laboratory"
              }
            ]
          }
        ],
        "code": {
          "coding": [
            {
              "code": "38483-4",
              "system": "http://loinc.org",
              "display": "Creatinine [Mass/volume] in Blood"
            }
          ],
          "text": "Creatinine [Mass/volume] in Blood"
        },
        "valueQuantity": {
          "system": "http://unitsofmeasure.org",
          "value": 0.9,
          "unit": "mg/dL",
          "code": "mg/dL"
        },
        "referenceRange": [
          {
            "low": {
              "value": 0.9,
              "code": "mg/dL",
              "system": "http://unitsofmeasure.org"
            }
          },
          {
            "high": {
              "value": 1.3,
              "code": "mg/dL",
              "system": "http://unitsofmeasure.org"
            }
          }
        ],
        "text": {
          "status": "generated",
          "div": "<div xmlns=\"http://www.w3.org/1999/xhtml\"><table class=\"hl7__eu__lab__report\"><tr><th>Test</th><th>12-Apr-2021</th><th>Reference&#xA0;Range</th><th>Unit</th></tr><tr><td>Creatinine [Mass/volume] in Blood</td><td>0.9</td><td>0.9 - 1.3</td><td></td><td>mg/dL</td></tr></table></div>"
        },
        "status": "final",
        "subject": {
          "reference": "urn:uuid:6790cbc2-70a3-488c-8f87-53449f6b0b9e",
          "display": "Alessio Fanucci"
        },
        "effectiveDateTime": "2021-04-12T07:49:06Z",
        "specimen": {
          "reference": "urn:uuid:d0efe3ae-e0e4-4200-8402-42b9354675e6"
        }
      }
    },
    {
      "fullUrl": "urn:uuid:e4ea7ea7-3ed5-4242-9040-08969c638979",
      "resource": {
        "resourceType": "Observation",
        "id": "e4ea7ea7-3ed5-4242-9040-08969c638979",
        "meta": {
          "profile": [
            "http://hl7.eu/fhir/laboratory/StructureDefinition/Observation-resultslab-eu-lab"
          ]
        },
        "performer": [
          {
            "display": "The Central European Lab"
          }
        ],
        "category": [
          {
            "coding": [
              {
                "system": "http://terminology.hl7.org/CodeSystem/observation-category",
                "code": "laboratory"
              }
            ]
          }
        ],
        "code": {
          "coding": [
            {
              "code": "49765-1",
              "system": "http://loinc.org",
              "display": "Calcium [Mass/volume] in Blood"
            }
          ],
          "text": "Calcium [Mass/volume] in Blood"
        },
        "valueQuantity": {
          "system": "http://unitsofmeasure.org",
          "value": 9.5,
          "unit": "mg/dL",
          "code": "mg/dL"
        },
        "referenceRange": [
          {
            "low": {
              "value": 8.5,
              "code": "mg/dL",
              "system": "http://unitsofmeasure.org"
            }
          },
          {
            "high": {
              "value": 10.5,
              "code": "mg/dL",
              "system": "http://unitsofmeasure.org"
            }
          }
        ],
        "text": {
          "status": "generated",
          "div": "<div xmlns=\"http://www.w3.org/1999/xhtml\"><table class=\"hl7__eu__lab__report\"><tr><th>Test</th><th>12-Apr-2021</th><th>Reference&#xA0;Range</th><th>Unit</th></tr><tr><td>Calcium [Mass/volume] in Blood</td><td>9.5</td><td>8.5 - 10.5</td><td></td><td>mg/dL</td></tr></table></div>"
        },
        "status": "final",
        "subject": {
          "reference": "urn:uuid:6790cbc2-70a3-488c-8f87-53449f6b0b9e",
          "display": "Alessio Fanucci"
        },
        "effectiveDateTime": "2021-04-12T07:49:06Z",
        "specimen": {
          "reference": "urn:uuid:d0efe3ae-e0e4-4200-8402-42b9354675e6"
        }
      }
    },
    {
      "fullUrl": "urn:uuid:3d1e69ae-2395-4679-9f2f-9844fac3bc0d",
      "resource": {
        "resourceType": "Observation",
        "id": "3d1e69ae-2395-4679-9f2f-9844fac3bc0d",
        "meta": {
          "profile": [
            "http://hl7.eu/fhir/laboratory/StructureDefinition/Observation-resultslab-eu-lab"
          ]
        },
        "performer": [
          {
            "display": "The Central European Lab"
          }
        ],
        "category": [
          {
            "coding": [
              {
                "system": "http://terminology.hl7.org/CodeSystem/observation-category",
                "code": "laboratory"
              }
            ]
          }
        ],
        "code": {
          "coding": [
            {
              "code": "2947-0",
              "system": "http://loinc.org",
              "display": "Sodium [Moles/volume] in Blood"
            }
          ],
          "text": "Sodium [Moles/volume] in Blood"
        },
        "valueQuantity": {
          "system": "http://unitsofmeasure.org",
          "value": 139,
          "unit": "mmol/L",
          "code": "mmol/L"
        },
        "referenceRange": [
          {
            "low": {
              "value": 135,
              "code": "mmol/L",
              "system": "http://unitsofmeasure.org"
            }
          },
          {
            "high": {
              "value": 145,
              "code": "mmol/L",
              "system": "http://unitsofmeasure.org"
            }
          }
        ],
        "text": {
          "status": "generated",
          "div": "<div xmlns=\"http://www.w3.org/1999/xhtml\"><table class=\"hl7__eu__lab__report\"><tr><th>Test</th><th>12-Apr-2021</th><th>Reference&#xA0;Range</th><th>Unit</th></tr><tr><td>Sodium [Moles/volume] in Blood</td><td>139.0</td><td>135 - 145</td><td></td><td>mmol/L</td></tr></table></div>"
        },
        "status": "final",
        "subject": {
          "reference": "urn:uuid:6790cbc2-70a3-488c-8f87-53449f6b0b9e",
          "display": "Alessio Fanucci"
        },
        "effectiveDateTime": "2021-04-12T07:49:06Z",
        "specimen": {
          "reference": "urn:uuid:d0efe3ae-e0e4-4200-8402-42b9354675e6"
        }
      }
    },
    {
      "fullUrl": "urn:uuid:4583dae2-54c2-4c47-8cc0-d197cab88201",
      "resource": {
        "resourceType": "Observation",
        "id": "4583dae2-54c2-4c47-8cc0-d197cab88201",
        "meta": {
          "profile": [
            "http://hl7.eu/fhir/laboratory/StructureDefinition/Observation-resultslab-eu-lab"
          ]
        },
        "performer": [
          {
            "display": "The Central European Lab"
          }
        ],
        "category": [
          {
            "coding": [
              {
                "system": "http://terminology.hl7.org/CodeSystem/observation-category",
                "code": "laboratory"
              }
            ]
          }
        ],
        "code": {
          "coding": [
            {
              "code": "6298-4",
              "system": "http://loinc.org",
              "display": "Potassium [Moles/volume] in Blood"
            }
          ],
          "text": "Potassium [Moles/volume] in Blood"
        },
        "valueQuantity": {
          "system": "http://unitsofmeasure.org",
          "value": 3.9,
          "unit": "mmol/L",
          "code": "mmol/L"
        },
        "referenceRange": [
          {
            "low": {
              "value": 3.5,
              "code": "mmol/L",
              "system": "http://unitsofmeasure.org"
            }
          },
          {
            "high": {
              "value": 5,
              "code": "mmol/L",
              "system": "http://unitsofmeasure.org"
            }
          }
        ],
        "text": {
          "status": "generated",
          "div": "<div xmlns=\"http://www.w3.org/1999/xhtml\"><table class=\"hl7__eu__lab__report\"><tr><th>Test</th><th>12-Apr-2021</th><th>Reference&#xA0;Range</th><th>Unit</th></tr><tr><td>Potassium [Moles/volume] in Blood</td><td>3.9</td><td>3.5 - 5</td><td></td><td>mmol/L</td></tr></table></div>"
        },
        "status": "final",
        "subject": {
          "reference": "urn:uuid:6790cbc2-70a3-488c-8f87-53449f6b0b9e",
          "display": "Alessio Fanucci"
        },
        "effectiveDateTime": "2021-04-12T07:49:06Z",
        "specimen": {
          "reference": "urn:uuid:d0efe3ae-e0e4-4200-8402-42b9354675e6"
        }
      }
    },
    {
      "fullUrl": "urn:uuid:57b34e35-da9b-414c-8663-a38b31e4e10f",
      "resource": {
        "resourceType": "Observation",
        "id": "57b34e35-da9b-414c-8663-a38b31e4e10f",
        "meta": {
          "profile": [
            "http://hl7.eu/fhir/laboratory/StructureDefinition/Observation-resultslab-eu-lab"
          ]
        },
        "performer": [
          {
            "display": "The Central European Lab"
          }
        ],
        "category": [
          {
            "coding": [
              {
                "system": "http://terminology.hl7.org/CodeSystem/observation-category",
                "code": "laboratory"
              }
            ]
          }
        ],
        "code": {
          "coding": [
            {
              "code": "2069-3",
              "system": "http://loinc.org",
              "display": "Chloride [Moles/volume] in Blood"
            }
          ],
          "text": "Chloride [Moles/volume] in Blood"
        },
        "valueQuantity": {
          "system": "http://unitsofmeasure.org",
          "value": 106.1,
          "unit": "mmol/L",
          "code": "mmol/L"
        },
        "referenceRange": [
          {
            "low": {
              "value": 98,
              "code": "mmol/L",
              "system": "http://unitsofmeasure.org"
            }
          },
          {
            "high": {
              "value": 110,
              "code": "mmol/L",
              "system": "http://unitsofmeasure.org"
            }
          }
        ],
        "text": {
          "status": "generated",
          "div": "<div xmlns=\"http://www.w3.org/1999/xhtml\"><table class=\"hl7__eu__lab__report\"><tr><th>Test</th><th>12-Apr-2021</th><th>Reference&#xA0;Range</th><th>Unit</th></tr><tr><td>Chloride [Moles/volume] in Blood</td><td>106.1</td><td>98 - 110</td><td></td><td>mmol/L</td></tr></table></div>"
        },
        "status": "final",
        "subject": {
          "reference": "urn:uuid:6790cbc2-70a3-488c-8f87-53449f6b0b9e",
          "display": "Alessio Fanucci"
        },
        "effectiveDateTime": "2021-04-12T07:49:06Z",
        "specimen": {
          "reference": "urn:uuid:d0efe3ae-e0e4-4200-8402-42b9354675e6"
        }
      }
    },
    {
      "fullUrl": "urn:uuid:ab612899-bb85-4e99-b560-8f4b0adea6c8",
      "resource": {
        "resourceType": "Observation",
        "id": "ab612899-bb85-4e99-b560-8f4b0adea6c8",
        "meta": {
          "profile": [
            "http://hl7.eu/fhir/laboratory/StructureDefinition/Observation-resultslab-eu-lab"
          ]
        },
        "performer": [
          {
            "display": "The Central European Lab"
          }
        ],
        "category": [
          {
            "coding": [
              {
                "system": "http://terminology.hl7.org/CodeSystem/observation-category",
                "code": "laboratory"
              }
            ]
          }
        ],
        "code": {
          "coding": [
            {
              "code": "20565-8",
              "system": "http://loinc.org",
              "display": "Carbon dioxide, total [Moles/volume] in Blood"
            }
          ],
          "text": "Carbon dioxide, total [Moles/volume] in Blood"
        },
        "valueQuantity": {
          "system": "http://unitsofmeasure.org",
          "value": 26,
          "unit": "mmol/L",
          "code": "mmol/L"
        },
        "referenceRange": [
          {
            "low": {
              "value": 22,
              "code": "mmol/L",
              "system": "http://unitsofmeasure.org"
            }
          },
          {
            "high": {
              "value": 32,
              "code": "mmol/L",
              "system": "http://unitsofmeasure.org"
            }
          }
        ],
        "text": {
          "status": "generated",
          "div": "<div xmlns=\"http://www.w3.org/1999/xhtml\"><table class=\"hl7__eu__lab__report\"><tr><th>Test</th><th>12-Apr-2021</th><th>Reference&#xA0;Range</th><th>Unit</th></tr><tr><td>Carbon dioxide, total [Moles/volume] in Blood</td><td>26.0</td><td>22 - 32</td><td></td><td>mmol/L</td></tr></table></div>"
        },
        "status": "final",
        "subject": {
          "reference": "urn:uuid:6790cbc2-70a3-488c-8f87-53449f6b0b9e",
          "display": "Alessio Fanucci"
        },
        "effectiveDateTime": "2021-04-12T07:49:06Z",
        "specimen": {
          "reference": "urn:uuid:d0efe3ae-e0e4-4200-8402-42b9354675e6"
        }
      }
    },
    {
      "fullUrl": "urn:uuid:0701cb4e-bd8f-4c29-ac4c-c34e5ee626e0",
      "resource": {
        "resourceType": "Device",
        "id": "0701cb4e-bd8f-4c29-ac4c-c34e5ee626e0",
        "deviceName": [
          {
            "name": "SYNDERAI Synthetic Generator",
            "type": "manufacturer-name"
          }
        ],
        "version": [
          {
            "value": "5.0"
          }
        ],
        "text": {
          "status": "generated",
          "div": "<div xmlns=\"http://www.w3.org/1999/xhtml\">SYNDERAI Synthetic Generator v5.0</div>"
        },
        "status": "active\"",
        "distinctIdentifier": "synderai-generator-50",
        "manufacturer": "SYNDERAI Project"
      }
    },
    {
      "fullUrl": "urn:uuid:43d04820-deb1-4553-a5a3-3dc5a66987ad",
      "resource": {
        "resourceType": "Provenance",
        "id": "43d04820-deb1-4553-a5a3-3dc5a66987ad",
        "target": [
          {
            "reference": "Patient/6790cbc2-70a3-488c-8f87-53449f6b0b9e"
          },
          {
            "reference": "Bundle/f5e157ac-b07b-45f6-a050-d24ccd422663"
          },
          {
            "reference": "Composition/8e70f931-fe14-4da6-8869-4a37ef98954f"
          },
          {
            "reference": "PractitionerRole/0dcf44b2-2897-48dc-b307-3ad69f0cfc81"
          },
          {
            "reference": "Practitioner/fde29950-848a-4407-97b8-37a7ed52ac82"
          },
          {
            "reference": "PractitionerRole/bb399b67-255b-45d6-83d0-9fbd7e9091d3"
          },
          {
            "reference": "Organization/536959ed-8549-4f00-b196-5f279fcb1681"
          }
        ],
        "activity": {
          "text": "Synthetic Example Data Generation"
        },
        "policy": [
          "https://synderai.net/synderai-synthetic-data-policy"
        ],
        "agent": [
          {
            "type": {
              "text": "author"
            },
            "who": {
              "reference": "Device/0701cb4e-bd8f-4c29-ac4c-c34e5ee626e0"
            }
          }
        ],
        "reason": [
          {
            "text": "Interoperability Testing and Training (non-clinical use)"
          }
        ],
        "text": {
          "status": "generated",
          "div": "<div xmlns=\"http://www.w3.org/1999/xhtml\">Provenance for SYNDERAI Synthetic Example Data Resource</div>"
        },
        "recorded": "2021-04-12T09:49:06Z"
      }
    },
    {
      "fullUrl": "urn:uuid:0dcf44b2-2897-48dc-b307-3ad69f0cfc81",
      "resource": {
        "resourceType": "PractitionerRole",
        "id": "0dcf44b2-2897-48dc-b307-3ad69f0cfc81",
        "meta": {
          "profile": [
            "http://hl7.eu/fhir/base/StructureDefinition/practitionerRole-eu"
          ]
        },
        "text": {
          "status": "generated",
          "div": "<div xmlns=\"http://www.w3.org/1999/xhtml\">Laboratory Role Id: 0dcf44b2-2897-48dc-b307-3ad69f0cfc81</div>"
        },
        "practitioner": {
          "reference": "urn:uuid:fde29950-848a-4407-97b8-37a7ed52ac82"
        }
      }
    },
    {
      "fullUrl": "urn:uuid:fde29950-848a-4407-97b8-37a7ed52ac82",
      "resource": {
        "resourceType": "Practitioner",
        "id": "fde29950-848a-4407-97b8-37a7ed52ac82",
        "meta": {
          "profile": [
            "http://hl7.eu/fhir/base/StructureDefinition/practitioner-eu"
          ]
        },
        "identifier": [
          {
            "assigner": {
              "display": "HL7 Europe"
            },
            "system": "urn:oid:2.16.840.1.113883.2.51.999",
            "value": "d6b8517f-8b2b-4338-a779-a7b1c80683ce"
          }
        ],
        "name": [
          {
            "prefix": [
              "dr"
            ],
            "given": [
              "Ex"
            ],
            "family": "Ample"
          }
        ],
        "address": [
          {
            "line": [
              "Laboratoire Central Européenne",
              "Boulevard du Jardin Botanique 32"
            ],
            "postalCode": "1000",
            "city": "Brussels",
            "country": "Belgium"
          }
        ],
        "text": {
          "status": "generated",
          "div": "<div xmlns=\"http://www.w3.org/1999/xhtml\">Laboratory: Laboratoire Central Européenne, 1000 Brussels, Belgium</div>"
        }
      }
    }
  ],
  "type": "document",
  "timestamp": "2021-04-12T09:49:06Z"
}
