{
  "resourceType": "Bundle",
  "id": "c32920e8-7ab9-42d8-91b8-f3e47633a12e",
  "meta": {
    "profile": [
      "http://hl7.eu/fhir/laboratory/StructureDefinition/Bundle-eu-lab"
    ]
  },
  "identifier": {
    "assigner": {
      "display": "HL7 Europe"
    },
    "system": "urn:oid:2.16.840.1.113883.2.51.999",
    "value": "30c67423-b11e-4143-b6ad-ec4371c135d5"
  },
  "entry": [
    {
      "fullUrl": "urn:uuid:3aca084b-8219-4790-806b-69518f91ba82",
      "resource": {
        "resourceType": "Composition",
        "id": "3aca084b-8219-4790-806b-69518f91ba82",
        "meta": {
          "profile": [
            "http://hl7.eu/fhir/laboratory/StructureDefinition/Composition-eu-lab"
          ]
        },
        "identifier": {
          "assigner": {
            "display": "HL7 Europe"
          },
          "system": "urn:oid:2.16.840.1.113883.2.51.999",
          "value": "e0bb0254-df43-43f3-a3d1-e877fa9276a1"
        },
        "author": [
          {
            "reference": "urn:uuid:35655466-0f68-41bd-84aa-2cdf39589ec2"
          }
        ],
        "category": [
          {
            "coding": [
              {
                "code": "26436-6",
                "system": "http://loinc.org",
                "display": "Laboratory studies (set)"
              }
            ]
          }
        ],
        "type": {
          "coding": [
            {
              "code": "11502-2",
              "system": "http://loinc.org",
              "display": "Laboratory report"
            }
          ],
          "text": "Laboratory Report"
        },
        "section": [
          {
            "code": {
              "coding": [
                {
                  "code": "26436-6",
                  "system": "http://loinc.org",
                  "display": "Laboratory studies (set)"
                }
              ],
              "text": "Laboratory studies"
            },
            "section": [
              {
                "code": {
                  "coding": [
                    {
                      "code": "$18719-5",
                      "system": "http://loinc.org",
                      "display": "Chemistry studies (set)"
                    }
                  ],
                  "text": "Chemistry"
                },
                "entry": [
                  {
                    "reference": "urn:uuid:71b84ccc-ec51-4ecd-b5ae-18d298f76415"
                  },
                  {
                    "reference": "urn:uuid:9c4541c4-5f70-4a73-abea-d4826c5ca9a9"
                  },
                  {
                    "reference": "urn:uuid:86a1ad20-236c-4149-be4a-85a98bd4d9c9"
                  },
                  {
                    "reference": "urn:uuid:03303b4c-cbc0-4575-ae9b-795e8fb0ba1e"
                  },
                  {
                    "reference": "urn:uuid:165e5962-5e44-4602-b549-748e7ce96efc"
                  },
                  {
                    "reference": "urn:uuid:5855c230-391b-4793-96d9-341e8e8c8162"
                  },
                  {
                    "reference": "urn:uuid:84b04494-a2d8-43b5-bde3-e496335509ad"
                  },
                  {
                    "reference": "urn:uuid:9bc571e1-ba21-47e7-acd1-d83010f143e1"
                  },
                  {
                    "reference": "urn:uuid:8462d2ae-ae18-4406-8ea4-af5f769924f9"
                  },
                  {
                    "reference": "urn:uuid:7ed57ef4-f913-4309-b3b7-7ee4342390a3"
                  },
                  {
                    "reference": "urn:uuid:18c7c7e9-6296-407a-a018-22e26b1b9436"
                  },
                  {
                    "reference": "urn:uuid:66d27695-2e3f-488c-8d74-10599bcdedd1"
                  },
                  {
                    "reference": "urn:uuid:f58cc2cf-c371-46cd-999a-d0f8c04d5b5a"
                  },
                  {
                    "reference": "urn:uuid:cfd9e466-7e6d-4553-b8b6-c6d87cf6983e"
                  },
                  {
                    "reference": "urn:uuid:f230116a-d03b-4ec4-bed5-bbffb555c7f6"
                  },
                  {
                    "reference": "urn:uuid:17c04313-07bf-44d1-9206-23eece7e2f03"
                  },
                  {
                    "reference": "urn:uuid:af0fe4fc-785b-423f-9a5f-9c03b1031c01"
                  },
                  {
                    "reference": "urn:uuid:3dddbaa2-fd5f-4376-8faf-371a924a1c0d"
                  }
                ],
                "text": {
                  "status": "generated",
                  "div": "<div xmlns=\"http://www.w3.org/1999/xhtml\"><h3>Chemistry</h3><table class=\"hl7__eu__lab__report\"><thead><tr><th>Test</th><th>08-MAY-2020</th><th>Reference&#xA0;Range</th><th>Unit</th></tr></thead><tbody><tr><td>Glucose [Mass/volume] in Serum or Plasma</td><td>95.3</td><td>70 - 140</td><td>mg/dL</td></tr><tr><td>Urea nitrogen [Mass/volume] in Serum or Plasma</td><td>8.2</td><td>7 - 20</td><td>mg/dL</td></tr><tr><td>Creatinine [Mass/volume] in Serum or Plasma</td><td><strong>2.0 H</strong></td><td>0.9 - 1.3</td><td>mg/dL</td></tr><tr><td>Calcium [Mass/volume] in Serum or Plasma</td><td>9.8</td><td>8.5 - 10.5</td><td>mg/dL</td></tr><tr><td>Sodium [Moles/volume] in Serum or Plasma</td><td>140.7</td><td>135 - 145</td><td>mmol/L</td></tr><tr><td>Potassium [Moles/volume] in Serum or Plasma</td><td>4.9</td><td>3.5 - 5.3</td><td>mmol/L</td></tr><tr><td>Chloride [Moles/volume] in Serum or Plasma</td><td><strong>109.9 H</strong></td><td>98 - 107</td><td>mmol/L</td></tr><tr><td>Carbon dioxide, total [Moles/volume] in Serum or Plasma</td><td>25.0</td><td>22 - 33</td><td>mmol/L</td></tr><tr><td>Ketones [Presence] in Urine by Test strip</td><td>Urine ketone test = ++</td><td></td><td></td></tr><tr><td>Hemoglobin A1c/Hemoglobin.total in Blood</td><td><strong>3.2 L</strong></td><td>4.3 - 6</td><td>%</td></tr><tr><td>Glucose [Mass/volume] in Blood</td><td>95.3</td><td>70 - 140</td><td>mg/dL</td></tr><tr><td>Urea nitrogen [Mass/volume] in Blood</td><td>8.2</td><td>7 - 20</td><td>mg/dL</td></tr><tr><td>Creatinine [Mass/volume] in Blood</td><td><strong>2.9 H</strong></td><td>0.9 - 1.3</td><td>mg/dL</td></tr><tr><td>Calcium [Mass/volume] in Blood</td><td>9.8</td><td>8.5 - 10.5</td><td>mg/dL</td></tr><tr><td>Sodium [Moles/volume] in Blood</td><td>140.7</td><td>135 - 145</td><td>mmol/L</td></tr><tr><td>Potassium [Moles/volume] in Blood</td><td>4.9</td><td>3.5 - 5.1</td><td>mmol/L</td></tr><tr><td>Chloride [Moles/volume] in Blood</td><td><strong>109.9 H</strong></td><td>98 - 108</td><td>mmol/L</td></tr><tr><td>Carbon dioxide, total [Moles/volume] in Blood</td><td>25.0</td><td>22 - 29</td><td>mmol/L</td></tr></tbody></table></div>"
                },
                "title": "Chemistry"
              },
              {
                "code": {
                  "coding": [
                    {
                      "code": "$18729-4",
                      "system": "http://loinc.org",
                      "display": "Urinalysis studies (set)"
                    }
                  ],
                  "text": "Urinalysis"
                },
                "entry": [
                  {
                    "reference": "urn:uuid:c5ada40d-fef2-4ba0-8580-6a81c3bb5e3b"
                  },
                  {
                    "reference": "urn:uuid:77772920-ba8f-4c83-9a49-5879cc7d3a9b"
                  },
                  {
                    "reference": "urn:uuid:36080cbb-1959-439a-ab2c-8ce576183a66"
                  },
                  {
                    "reference": "urn:uuid:4ec96d2a-c775-4f4d-97b6-b7f82b442bc3"
                  },
                  {
                    "reference": "urn:uuid:312915ae-a08b-4f95-9eb8-cf97c95bb457"
                  },
                  {
                    "reference": "urn:uuid:468d5250-4843-4cb7-80dc-e79aef024943"
                  },
                  {
                    "reference": "urn:uuid:f6ed97e0-a0b1-483e-9fe8-3d4d632194ac"
                  },
                  {
                    "reference": "urn:uuid:5684446b-98bc-4997-80ca-d61a8a36f3b8"
                  },
                  {
                    "reference": "urn:uuid:592d42ca-bfa8-407d-9e9d-611a97b8e03c"
                  },
                  {
                    "reference": "urn:uuid:208fbb8d-af00-4575-b0a7-d7d70a1187e7"
                  },
                  {
                    "reference": "urn:uuid:91bf0ba8-9472-4c3e-a759-f8c606d1b8eb"
                  },
                  {
                    "reference": "urn:uuid:b5389381-6c5d-484c-a3a0-8f82b188c236"
                  }
                ],
                "text": {
                  "status": "generated",
                  "div": "<div xmlns=\"http://www.w3.org/1999/xhtml\"><h3>Urinalysis</h3><table class=\"hl7__eu__lab__report\"><thead><tr><th>Test</th><th>08-MAY-2020</th><th>Reference&#xA0;Range</th><th>Unit</th></tr></thead><tbody><tr><td>Glucose [Mass/volume] in Urine by Test strip</td><td><strong>1.5 H</strong></td><td>0 - 0.8</td><td>mg/dL</td></tr><tr><td>Glucose [Presence] in Urine by Test strip</td><td>++</td><td></td><td></td></tr><tr><td>Bilirubin.total [Mass/volume] in Urine by Test strip</td><td>1.4</td><td>0 - 1.9</td><td>mg/dL</td></tr><tr><td>Bilirubin.total [Presence] in Urine by Test strip</td><td>Finding of bilirubin in urine</td><td></td><td></td></tr><tr><td>Ketones [Mass/volume] in Urine by Test strip</td><td>1.4</td><td>0 - 3</td><td>mg/dL</td></tr><tr><td>Specific gravity of Urine by Test strip</td><td><strong>1.0 L</strong></td><td>1.01 - 1.03</td><td>{nominal}</td></tr><tr><td>pH of Urine by Test strip</td><td>5.9</td><td>4.5 - 7.5</td><td>pH</td></tr><tr><td>Protein [Mass/volume] in Urine by Test strip</td><td><strong>249.2 H</strong></td><td>0 - 149</td><td>mg/dL</td></tr><tr><td>Protein [Presence] in Urine by Test strip</td><td>Urine protein test = ++</td><td></td><td></td></tr><tr><td>Nitrite [Presence] in Urine by Test strip</td><td>Urine nitrite negative</td><td></td><td></td></tr><tr><td>Hemoglobin [Presence] in Urine by Test strip</td><td>Urine blood test = negative</td><td></td><td></td></tr><tr><td>Leukocyte esterase [Presence] in Urine by Test strip</td><td>Urine leukocyte test negative</td><td></td><td></td></tr></tbody></table></div>"
                },
                "title": "Urinalysis"
              },
              {
                "code": {
                  "coding": [
                    {
                      "code": "$LP7846-1",
                      "system": "http://loinc.org",
                      "display": "Specimen information"
                    }
                  ],
                  "text": "Specimen information"
                },
                "entry": [
                  {
                    "reference": "urn:uuid:d4e1c776-f14e-467a-af26-0bb7b7755454"
                  },
                  {
                    "reference": "urn:uuid:bb91062d-c7f4-4475-8db3-e5a5fafccad5"
                  },
                  {
                    "reference": "urn:uuid:73ff16e2-da95-4004-9530-1107936dad92"
                  },
                  {
                    "reference": "urn:uuid:76d89531-87bf-4861-ad0d-c463216001e1"
                  }
                ],
                "text": {
                  "status": "generated",
                  "div": "<div xmlns=\"http://www.w3.org/1999/xhtml\"><h3>Specimen information</h3><table class=\"hl7__eu__lab__report\"><thead><tr><th>Test</th><th>08-MAY-2020</th><th>Specimen</th><th></th></tr></thead><tbody><tr><td>Appearance of Urine</td><td>Cloudy urine</td><td>Urine</td><td></td></tr><tr><td>Odor of Urine</td><td>Urine smell ammoniacal</td><td>Urine</td><td></td></tr><tr><td>Clarity of Urine</td><td>Translucent</td><td>Urine</td><td></td></tr><tr><td>Color of Urine</td><td>Brown color</td><td>Urine</td><td></td></tr></tbody></table></div>"
                },
                "title": "Specimen information"
              }
            ],
            "title": "Laboratory Report"
          },
          {
            "text": {
              "status": "generated",
              "div": "<div xmlns=\"http://www.w3.org/1999/xhtml\"><h3>Annotation</h3><table class=\"hl7__eu__lab__report\"><tr><th>Conclusion and Recommendations based on this report and previous findings known to us</th></tr><tr><td>The patient shows elevated creatinine, suggesting impaired renal function, and high chloride. Urinalysis reveals proteinuria, glucosuria, ketonuria, low specific gravity, and abnormal urine appearance (cloudy, brown, ammoniacal), indicating possible renal dysfunction and/or urinary tract pathology. HbA1c is low, which may reflect anemia or recent changes in glycemic control. Recommend further evaluation of renal function and possible urinary tract infection or other renal pathology.</td></tr></table></div>"
            },
            "code": {
              "coding": [
                {
                  "system": "http://loinc.org",
                  "code": "48767-8",
                  "display": "Annotation comment"
                }
              ]
            },
            "title": "Annotation comment"
          }
        ],
        "status": "final",
        "subject": {
          "reference": "urn:uuid:aba4cfcc-03b8-4a0c-ba64-4e6d3ed790e0",
          "display": "Victor Lagarde"
        },
        "date": "2020-05-08T06:48:18Z",
        "title": "Laboratory Report",
        "confidentiality": "N"
      }
    },
    {
      "fullUrl": "urn:uuid:2bf8b4e1-8ede-4c37-bc9f-4ef8d1176056",
      "resource": {
        "resourceType": "DiagnosticReport",
        "id": "2bf8b4e1-8ede-4c37-bc9f-4ef8d1176056",
        "meta": {
          "profile": [
            "http://hl7.eu/fhir/laboratory/StructureDefinition/DiagnosticReport-eu-lab"
          ]
        },
        "identifier": [
          {
            "assigner": {
              "display": "HL7 Europe"
            },
            "system": "urn:oid:2.16.840.1.113883.2.51.999",
            "value": "326e20d1-fafe-4109-b95d-53eb02452664"
          }
        ],
        "extension": [
          {
            "url": "http://hl7.org/fhir/5.0/StructureDefinition/extension-DiagnosticReport.composition",
            "valueReference": {
              "reference": "urn:uuid:e0bb0254-df43-43f3-a3d1-e877fa9276a1"
            }
          }
        ],
        "category": [
          {
            "coding": [
              {
                "code": "26436-6",
                "system": "http://loinc.org",
                "display": "Laboratory studies (set)"
              }
            ]
          }
        ],
        "specimen": [
          {
            "reference": "urn:uuid:b32aaa54-2a88-4420-8415-2e15d47bf044"
          },
          {
            "reference": "urn:uuid:917630a0-50cf-4eec-8160-d1147d0d2298"
          },
          {
            "reference": "urn:uuid:8f67b6bf-f72a-4866-b2c4-2c4d81294e8a"
          }
        ],
        "result": [
          {
            "reference": "urn:uuid:71b84ccc-ec51-4ecd-b5ae-18d298f76415"
          },
          {
            "reference": "urn:uuid:9c4541c4-5f70-4a73-abea-d4826c5ca9a9"
          },
          {
            "reference": "urn:uuid:86a1ad20-236c-4149-be4a-85a98bd4d9c9"
          },
          {
            "reference": "urn:uuid:03303b4c-cbc0-4575-ae9b-795e8fb0ba1e"
          },
          {
            "reference": "urn:uuid:165e5962-5e44-4602-b549-748e7ce96efc"
          },
          {
            "reference": "urn:uuid:5855c230-391b-4793-96d9-341e8e8c8162"
          },
          {
            "reference": "urn:uuid:84b04494-a2d8-43b5-bde3-e496335509ad"
          },
          {
            "reference": "urn:uuid:9bc571e1-ba21-47e7-acd1-d83010f143e1"
          },
          {
            "reference": "urn:uuid:d4e1c776-f14e-467a-af26-0bb7b7755454"
          },
          {
            "reference": "urn:uuid:bb91062d-c7f4-4475-8db3-e5a5fafccad5"
          },
          {
            "reference": "urn:uuid:73ff16e2-da95-4004-9530-1107936dad92"
          },
          {
            "reference": "urn:uuid:76d89531-87bf-4861-ad0d-c463216001e1"
          },
          {
            "reference": "urn:uuid:c5ada40d-fef2-4ba0-8580-6a81c3bb5e3b"
          },
          {
            "reference": "urn:uuid:77772920-ba8f-4c83-9a49-5879cc7d3a9b"
          },
          {
            "reference": "urn:uuid:36080cbb-1959-439a-ab2c-8ce576183a66"
          },
          {
            "reference": "urn:uuid:4ec96d2a-c775-4f4d-97b6-b7f82b442bc3"
          },
          {
            "reference": "urn:uuid:312915ae-a08b-4f95-9eb8-cf97c95bb457"
          },
          {
            "reference": "urn:uuid:8462d2ae-ae18-4406-8ea4-af5f769924f9"
          },
          {
            "reference": "urn:uuid:468d5250-4843-4cb7-80dc-e79aef024943"
          },
          {
            "reference": "urn:uuid:f6ed97e0-a0b1-483e-9fe8-3d4d632194ac"
          },
          {
            "reference": "urn:uuid:5684446b-98bc-4997-80ca-d61a8a36f3b8"
          },
          {
            "reference": "urn:uuid:592d42ca-bfa8-407d-9e9d-611a97b8e03c"
          },
          {
            "reference": "urn:uuid:208fbb8d-af00-4575-b0a7-d7d70a1187e7"
          },
          {
            "reference": "urn:uuid:91bf0ba8-9472-4c3e-a759-f8c606d1b8eb"
          },
          {
            "reference": "urn:uuid:b5389381-6c5d-484c-a3a0-8f82b188c236"
          },
          {
            "reference": "urn:uuid:7ed57ef4-f913-4309-b3b7-7ee4342390a3"
          },
          {
            "reference": "urn:uuid:18c7c7e9-6296-407a-a018-22e26b1b9436"
          },
          {
            "reference": "urn:uuid:66d27695-2e3f-488c-8d74-10599bcdedd1"
          },
          {
            "reference": "urn:uuid:f58cc2cf-c371-46cd-999a-d0f8c04d5b5a"
          },
          {
            "reference": "urn:uuid:cfd9e466-7e6d-4553-b8b6-c6d87cf6983e"
          },
          {
            "reference": "urn:uuid:f230116a-d03b-4ec4-bed5-bbffb555c7f6"
          },
          {
            "reference": "urn:uuid:17c04313-07bf-44d1-9206-23eece7e2f03"
          },
          {
            "reference": "urn:uuid:af0fe4fc-785b-423f-9a5f-9c03b1031c01"
          },
          {
            "reference": "urn:uuid:3dddbaa2-fd5f-4376-8faf-371a924a1c0d"
          }
        ],
        "status": "registered",
        "code": {
          "coding": [
            {
              "code": "11502-2",
              "system": "http://loinc.org",
              "display": "Laboratory report"
            }
          ]
        },
        "subject": {
          "reference": "urn:uuid:aba4cfcc-03b8-4a0c-ba64-4e6d3ed790e0",
          "display": "Victor Lagarde"
        }
      }
    },
    {
      "fullUrl": "urn:uuid:aba4cfcc-03b8-4a0c-ba64-4e6d3ed790e0",
      "resource": {
        "resourceType": "Patient",
        "id": "aba4cfcc-03b8-4a0c-ba64-4e6d3ed790e0",
        "meta": {
          "security": [
            {
              "system": "http://terminology.hl7.org/CodeSystem/v3-ActReason",
              "code": "HTEST"
            },
            {
              "system": "http://terminology.hl7.org/CodeSystem/v3-ActReason",
              "code": "TRAIN"
            }
          ],
          "tag": [
            {
              "system": "https://synderai.net/fhir/CodeSystem/tags",
              "code": "synthetic",
              "display": "SYNDERAI Synthetic data"
            }
          ],
          "profile": [
            "http://hl7.eu/fhir/base/StructureDefinition/patient-eu-core"
          ]
        },
        "identifier": [
          {
            "type": {
              "coding": [
                {
                  "code": "PT",
                  "system": "http://terminology.hl7.org/CodeSystem/v2-0203"
                }
              ]
            },
            "system": "http://ec.europa.eu/identifier/eci",
            "value": "9925-001801-9"
          },
          {
            "type": {
              "coding": [
                {
                  "code": "MR",
                  "system": "http://terminology.hl7.org/CodeSystem/v2-0203"
                }
              ]
            },
            "system": "http://local.setting.eu/identifier",
            "value": "22c2dfd0-ac57-8833-2532-848f180896a4"
          }
        ],
        "name": [
          {
            "family": "Lagarde"
          },
          {
            "given": [
              "Victor"
            ]
          },
          {
            "text": "Victor Lagarde"
          }
        ],
        "address": [
          {
            "line": [
              "avenue Robert"
            ],
            "use": "home",
            "type": "physical",
            "postalCode": "80300",
            "city": "Albert",
            "country": "France"
          }
        ],
        "telecom": [
          {
            "system": "phone",
            "value": "0177941801"
          }
        ],
        "extension": [
          {
            "url": "http://hl7.org/fhir/StructureDefinition/patient-nationality",
            "valueCodeableConcept": {
              "coding": [
                {
                  "code": "FR",
                  "system": "http://hl7.org/fhir/ValueSet/country"
                }
              ]
            }
          }
        ],
        "text": {
          "status": "generated",
          "div": "<div xmlns=\"http://www.w3.org/1999/xhtml\"><table class=\"hl7__ips\"><tr><td>Victor Lagarde</td><td>male</td><td>31-Aug-1939</td></tr></table></div>"
        },
        "gender": "male",
        "birthDate": "1939-08-31"
      }
    },
    {
      "fullUrl": "urn:uuid:1f487cc2-fb4f-455f-922e-deefdaf53452",
      "resource": {
        "resourceType": "ServiceRequest",
        "id": "1f487cc2-fb4f-455f-922e-deefdaf53452",
        "meta": {
          "profile": [
            "http://hl7.eu/fhir/laboratory/StructureDefinition/ServiceRequest-eu-lab"
          ]
        },
        "identifier": [
          {
            "system": "http://example.org",
            "value": "ef425a4f-a1cb-491c-bcf2-c60193e5b9d0"
          }
        ],
        "specimen": [
          {
            "reference": "urn:uuid:b32aaa54-2a88-4420-8415-2e15d47bf044"
          },
          {
            "reference": "urn:uuid:917630a0-50cf-4eec-8160-d1147d0d2298"
          },
          {
            "reference": "urn:uuid:8f67b6bf-f72a-4866-b2c4-2c4d81294e8a"
          }
        ],
        "reasonCode": [
          {
            "coding": [
              {
                "code": "433144002",
                "system": "http://snomed.info/sct",
                "display": "Chronic kidney disease stage 3"
              }
            ]
          },
          {
            "coding": [
              {
                "code": "157141000119108",
                "system": "http://snomed.info/sct",
                "display": "Proteinuria due to type 2 diabetes mellitus"
              }
            ]
          },
          {
            "coding": [
              {
                "code": "431856006",
                "system": "http://snomed.info/sct",
                "display": "Chronic kidney disease stage 2"
              }
            ]
          },
          {
            "coding": [
              {
                "code": "90781000119102",
                "system": "http://snomed.info/sct",
                "display": "Microalbuminuria due to type 2 diabetes mellitus"
              }
            ]
          },
          {
            "coding": [
              {
                "code": "127013003",
                "system": "http://snomed.info/sct",
                "display": "Disorder of kidney due to diabetes mellitus"
              }
            ]
          },
          {
            "coding": [
              {
                "code": "431855005",
                "system": "http://snomed.info/sct",
                "display": "Chronic kidney disease stage 1"
              }
            ]
          },
          {
            "coding": [
              {
                "code": "55822004",
                "system": "http://snomed.info/sct",
                "display": "Hyperlipidemia"
              }
            ]
          },
          {
            "coding": [
              {
                "code": "59621000",
                "system": "http://snomed.info/sct",
                "display": "Essential hypertension"
              }
            ]
          },
          {
            "coding": [
              {
                "code": "237602007",
                "system": "http://snomed.info/sct",
                "display": "Metabolic syndrome X"
              }
            ]
          },
          {
            "coding": [
              {
                "code": "414545008",
                "system": "http://snomed.info/sct",
                "display": "Ischemic heart disease"
              }
            ]
          },
          {
            "coding": [
              {
                "code": "40055000",
                "system": "http://snomed.info/sct",
                "display": "Chronic sinusitis"
              }
            ]
          },
          {
            "coding": [
              {
                "code": "15777000",
                "system": "http://snomed.info/sct",
                "display": "Prediabetes"
              }
            ]
          },
          {
            "coding": [
              {
                "code": "271737000",
                "system": "http://snomed.info/sct",
                "display": "Anemia"
              }
            ]
          }
        ],
        "status": "active",
        "intent": "order",
        "code": {
          "coding": [
            {
              "code": "108252007",
              "system": "http://snomed.info/sct",
              "display": "Laboratory procedure"
            }
          ]
        },
        "subject": {
          "reference": "urn:uuid:aba4cfcc-03b8-4a0c-ba64-4e6d3ed790e0",
          "display": "Victor Lagarde"
        },
        "requester": {
          "reference": "urn:uuid:007438d4-853c-4768-b28c-a3bc493225cb"
        }
      }
    },
    {
      "fullUrl": "urn:uuid:007438d4-853c-4768-b28c-a3bc493225cb",
      "resource": {
        "resourceType": "PractitionerRole",
        "id": "007438d4-853c-4768-b28c-a3bc493225cb",
        "meta": {
          "profile": [
            "http://hl7.eu/fhir/base/StructureDefinition/practitionerRole-eu"
          ]
        },
        "text": {
          "status": "generated",
          "div": "<div xmlns=\"http://www.w3.org/1999/xhtml\">Provider Role Id: 007438d4-853c-4768-b28c-a3bc493225cb</div>"
        },
        "organization": {
          "reference": "urn:uuid:875207c6-42d9-4705-9669-cd8eae170e56"
        }
      }
    },
    {
      "fullUrl": "urn:uuid:875207c6-42d9-4705-9669-cd8eae170e56",
      "resource": {
        "resourceType": "Organization",
        "id": "875207c6-42d9-4705-9669-cd8eae170e56",
        "meta": {
          "profile": [
            "http://hl7.eu/fhir/base/StructureDefinition/organization-eu"
          ]
        },
        "identifier": [
          {
            "assigner": {
              "display": "HL7 Europe"
            },
            "system": "urn:oid:2.16.840.1.113883.2.51.999",
            "value": "28cac002-dca8-4d26-a518-bc9a29d40fd9"
          }
        ],
        "address": [
          {
            "city": "Auxerre",
            "postalCode": "89000",
            "country": "France"
          }
        ],
        "text": {
          "status": "generated",
          "div": "<div xmlns=\"http://www.w3.org/1999/xhtml\">Provider Organization: Thiriot Didier (Cardiologie)</div>"
        },
        "name": "Thiriot Didier (Cardiologie)"
      }
    },
    {
      "fullUrl": "urn:uuid:b32aaa54-2a88-4420-8415-2e15d47bf044",
      "resource": {
        "resourceType": "Specimen",
        "id": "b32aaa54-2a88-4420-8415-2e15d47bf044",
        "meta": {
          "profile": [
            "http://hl7.eu/fhir/laboratory/StructureDefinition/Specimen-eu-lab"
          ]
        },
        "collection": {
          "collectedDateTime": "2020-05-08"
        },
        "text": {
          "status": "generated",
          "div": "<div xmlns=\"http://www.w3.org/1999/xhtml\"><table class=\"hl7__eu__lab__report\"><tr><th>Specimen</th><th>Collection Date</th></tr><tr><td>Acellular blood (serum or plasma) specimen</td><td><span class=\"nb\">08-May-2020</span></td></tr></table></div>"
        },
        "type": {
          "coding": [
            {
              "code": "122592007",
              "system": "http://snomed.info/sct",
              "display": "Acellular blood (serum or plasma) specimen"
            }
          ]
        }
      }
    },
    {
      "fullUrl": "urn:uuid:917630a0-50cf-4eec-8160-d1147d0d2298",
      "resource": {
        "resourceType": "Specimen",
        "id": "917630a0-50cf-4eec-8160-d1147d0d2298",
        "meta": {
          "profile": [
            "http://hl7.eu/fhir/laboratory/StructureDefinition/Specimen-eu-lab"
          ]
        },
        "collection": {
          "collectedDateTime": "2020-05-08"
        },
        "text": {
          "status": "generated",
          "div": "<div xmlns=\"http://www.w3.org/1999/xhtml\"><table class=\"hl7__eu__lab__report\"><tr><th>Specimen</th><th>Collection Date</th></tr><tr><td>Urine specimen</td><td><span class=\"nb\">08-May-2020</span></td></tr></table></div>"
        },
        "type": {
          "coding": [
            {
              "code": "122575003",
              "system": "http://snomed.info/sct",
              "display": "Urine specimen"
            }
          ]
        }
      }
    },
    {
      "fullUrl": "urn:uuid:8f67b6bf-f72a-4866-b2c4-2c4d81294e8a",
      "resource": {
        "resourceType": "Specimen",
        "id": "8f67b6bf-f72a-4866-b2c4-2c4d81294e8a",
        "meta": {
          "profile": [
            "http://hl7.eu/fhir/laboratory/StructureDefinition/Specimen-eu-lab"
          ]
        },
        "collection": {
          "collectedDateTime": "2020-05-08"
        },
        "text": {
          "status": "generated",
          "div": "<div xmlns=\"http://www.w3.org/1999/xhtml\"><table class=\"hl7__eu__lab__report\"><tr><th>Specimen</th><th>Collection Date</th></tr><tr><td>Whole blood specimen (specimen)</td><td><span class=\"nb\">08-May-2020</span></td></tr></table></div>"
        },
        "type": {
          "coding": [
            {
              "code": "258580003",
              "system": "http://snomed.info/sct",
              "display": "Whole blood specimen (specimen)"
            }
          ]
        }
      }
    },
    {
      "fullUrl": "urn:uuid:71b84ccc-ec51-4ecd-b5ae-18d298f76415",
      "resource": {
        "resourceType": "Observation",
        "id": "71b84ccc-ec51-4ecd-b5ae-18d298f76415",
        "meta": {
          "profile": [
            "http://hl7.eu/fhir/laboratory/StructureDefinition/Observation-resultslab-eu-lab"
          ]
        },
        "performer": [
          {
            "display": "The Central European Lab"
          }
        ],
        "category": [
          {
            "coding": [
              {
                "system": "http://terminology.hl7.org/CodeSystem/observation-category",
                "code": "laboratory"
              }
            ]
          }
        ],
        "code": {
          "coding": [
            {
              "code": "2345-7",
              "system": "http://loinc.org",
              "display": "Glucose [Mass/volume] in Serum or Plasma"
            }
          ],
          "text": "Glucose [Mass/volume] in Serum or Plasma"
        },
        "valueQuantity": {
          "system": "http://unitsofmeasure.org",
          "value": 95.3,
          "unit": "mg/dL",
          "code": "mg/dL"
        },
        "referenceRange": [
          {
            "low": {
              "value": 70,
              "code": "mg/dL",
              "system": "http://unitsofmeasure.org"
            }
          },
          {
            "high": {
              "value": 140,
              "code": "mg/dL",
              "system": "http://unitsofmeasure.org"
            }
          }
        ],
        "text": {
          "status": "generated",
          "div": "<div xmlns=\"http://www.w3.org/1999/xhtml\"><table class=\"hl7__eu__lab__report\"><tr><th>Test</th><th>08-May-2020</th><th>Reference&#xA0;Range</th><th>Unit</th></tr><tr><td>Glucose [Mass/volume] in Serum or Plasma</td><td>95.3</td><td>70 - 140</td><td></td><td>mg/dL</td></tr></table></div>"
        },
        "status": "final",
        "subject": {
          "reference": "urn:uuid:aba4cfcc-03b8-4a0c-ba64-4e6d3ed790e0",
          "display": "Victor Lagarde"
        },
        "effectiveDateTime": "2020-05-08T04:48:18Z",
        "specimen": {
          "reference": "urn:uuid:b32aaa54-2a88-4420-8415-2e15d47bf044"
        }
      }
    },
    {
      "fullUrl": "urn:uuid:9c4541c4-5f70-4a73-abea-d4826c5ca9a9",
      "resource": {
        "resourceType": "Observation",
        "id": "9c4541c4-5f70-4a73-abea-d4826c5ca9a9",
        "meta": {
          "profile": [
            "http://hl7.eu/fhir/laboratory/StructureDefinition/Observation-resultslab-eu-lab"
          ]
        },
        "performer": [
          {
            "display": "The Central European Lab"
          }
        ],
        "category": [
          {
            "coding": [
              {
                "system": "http://terminology.hl7.org/CodeSystem/observation-category",
                "code": "laboratory"
              }
            ]
          }
        ],
        "code": {
          "coding": [
            {
              "code": "3094-0",
              "system": "http://loinc.org",
              "display": "Urea nitrogen [Mass/volume] in Serum or Plasma"
            }
          ],
          "text": "Urea nitrogen [Mass/volume] in Serum or Plasma"
        },
        "valueQuantity": {
          "system": "http://unitsofmeasure.org",
          "value": 8.2,
          "unit": "mg/dL",
          "code": "mg/dL"
        },
        "referenceRange": [
          {
            "low": {
              "value": 7,
              "code": "mg/dL",
              "system": "http://unitsofmeasure.org"
            }
          },
          {
            "high": {
              "value": 20,
              "code": "mg/dL",
              "system": "http://unitsofmeasure.org"
            }
          }
        ],
        "text": {
          "status": "generated",
          "div": "<div xmlns=\"http://www.w3.org/1999/xhtml\"><table class=\"hl7__eu__lab__report\"><tr><th>Test</th><th>08-May-2020</th><th>Reference&#xA0;Range</th><th>Unit</th></tr><tr><td>Urea nitrogen [Mass/volume] in Serum or Plasma</td><td>8.2</td><td>7 - 20</td><td></td><td>mg/dL</td></tr></table></div>"
        },
        "status": "final",
        "subject": {
          "reference": "urn:uuid:aba4cfcc-03b8-4a0c-ba64-4e6d3ed790e0",
          "display": "Victor Lagarde"
        },
        "effectiveDateTime": "2020-05-08T04:48:18Z",
        "specimen": {
          "reference": "urn:uuid:b32aaa54-2a88-4420-8415-2e15d47bf044"
        }
      }
    },
    {
      "fullUrl": "urn:uuid:86a1ad20-236c-4149-be4a-85a98bd4d9c9",
      "resource": {
        "resourceType": "Observation",
        "id": "86a1ad20-236c-4149-be4a-85a98bd4d9c9",
        "meta": {
          "profile": [
            "http://hl7.eu/fhir/laboratory/StructureDefinition/Observation-resultslab-eu-lab"
          ]
        },
        "performer": [
          {
            "display": "The Central European Lab"
          }
        ],
        "category": [
          {
            "coding": [
              {
                "system": "http://terminology.hl7.org/CodeSystem/observation-category",
                "code": "laboratory"
              }
            ]
          }
        ],
        "code": {
          "coding": [
            {
              "code": "2160-0",
              "system": "http://loinc.org",
              "display": "Creatinine [Mass/volume] in Serum or Plasma"
            }
          ],
          "text": "Creatinine [Mass/volume] in Serum or Plasma"
        },
        "valueQuantity": {
          "system": "http://unitsofmeasure.org",
          "value": 2,
          "unit": "mg/dL",
          "code": "mg/dL"
        },
        "referenceRange": [
          {
            "low": {
              "value": 0.9,
              "code": "mg/dL",
              "system": "http://unitsofmeasure.org"
            }
          },
          {
            "high": {
              "value": 1.3,
              "code": "mg/dL",
              "system": "http://unitsofmeasure.org"
            }
          }
        ],
        "interpretation": [
          {
            "coding": [
              {
                "code": "H",
                "system": "http://terminology.hl7.org/CodeSystem/v3-ObservationInterpretation",
                "display": "High"
              }
            ]
          }
        ],
        "text": {
          "status": "generated",
          "div": "<div xmlns=\"http://www.w3.org/1999/xhtml\"><table class=\"hl7__eu__lab__report\"><tr><th>Test</th><th>08-May-2020</th><th>Reference&#xA0;Range</th><th>Unit</th></tr><tr><td>Creatinine [Mass/volume] in Serum or Plasma</td><td>2.0</td><td>0.9 - 1.3</td><td>H</td><td>mg/dL</td></tr></table></div>"
        },
        "status": "final",
        "subject": {
          "reference": "urn:uuid:aba4cfcc-03b8-4a0c-ba64-4e6d3ed790e0",
          "display": "Victor Lagarde"
        },
        "effectiveDateTime": "2020-05-08T04:48:18Z",
        "specimen": {
          "reference": "urn:uuid:b32aaa54-2a88-4420-8415-2e15d47bf044"
        }
      }
    },
    {
      "fullUrl": "urn:uuid:03303b4c-cbc0-4575-ae9b-795e8fb0ba1e",
      "resource": {
        "resourceType": "Observation",
        "id": "03303b4c-cbc0-4575-ae9b-795e8fb0ba1e",
        "meta": {
          "profile": [
            "http://hl7.eu/fhir/laboratory/StructureDefinition/Observation-resultslab-eu-lab"
          ]
        },
        "performer": [
          {
            "display": "The Central European Lab"
          }
        ],
        "category": [
          {
            "coding": [
              {
                "system": "http://terminology.hl7.org/CodeSystem/observation-category",
                "code": "laboratory"
              }
            ]
          }
        ],
        "code": {
          "coding": [
            {
              "code": "17861-6",
              "system": "http://loinc.org",
              "display": "Calcium [Mass/volume] in Serum or Plasma"
            }
          ],
          "text": "Calcium [Mass/volume] in Serum or Plasma"
        },
        "valueQuantity": {
          "system": "http://unitsofmeasure.org",
          "value": 9.8,
          "unit": "mg/dL",
          "code": "mg/dL"
        },
        "referenceRange": [
          {
            "low": {
              "value": 8.5,
              "code": "mg/dL",
              "system": "http://unitsofmeasure.org"
            }
          },
          {
            "high": {
              "value": 10.5,
              "code": "mg/dL",
              "system": "http://unitsofmeasure.org"
            }
          }
        ],
        "text": {
          "status": "generated",
          "div": "<div xmlns=\"http://www.w3.org/1999/xhtml\"><table class=\"hl7__eu__lab__report\"><tr><th>Test</th><th>08-May-2020</th><th>Reference&#xA0;Range</th><th>Unit</th></tr><tr><td>Calcium [Mass/volume] in Serum or Plasma</td><td>9.8</td><td>8.5 - 10.5</td><td></td><td>mg/dL</td></tr></table></div>"
        },
        "status": "final",
        "subject": {
          "reference": "urn:uuid:aba4cfcc-03b8-4a0c-ba64-4e6d3ed790e0",
          "display": "Victor Lagarde"
        },
        "effectiveDateTime": "2020-05-08T04:48:18Z",
        "specimen": {
          "reference": "urn:uuid:b32aaa54-2a88-4420-8415-2e15d47bf044"
        }
      }
    },
    {
      "fullUrl": "urn:uuid:165e5962-5e44-4602-b549-748e7ce96efc",
      "resource": {
        "resourceType": "Observation",
        "id": "165e5962-5e44-4602-b549-748e7ce96efc",
        "meta": {
          "profile": [
            "http://hl7.eu/fhir/laboratory/StructureDefinition/Observation-resultslab-eu-lab"
          ]
        },
        "performer": [
          {
            "display": "The Central European Lab"
          }
        ],
        "category": [
          {
            "coding": [
              {
                "system": "http://terminology.hl7.org/CodeSystem/observation-category",
                "code": "laboratory"
              }
            ]
          }
        ],
        "code": {
          "coding": [
            {
              "code": "2951-2",
              "system": "http://loinc.org",
              "display": "Sodium [Moles/volume] in Serum or Plasma"
            }
          ],
          "text": "Sodium [Moles/volume] in Serum or Plasma"
        },
        "valueQuantity": {
          "system": "http://unitsofmeasure.org",
          "value": 140.7,
          "unit": "mmol/L",
          "code": "mmol/L"
        },
        "referenceRange": [
          {
            "low": {
              "value": 135,
              "code": "mmol/L",
              "system": "http://unitsofmeasure.org"
            }
          },
          {
            "high": {
              "value": 145,
              "code": "mmol/L",
              "system": "http://unitsofmeasure.org"
            }
          }
        ],
        "text": {
          "status": "generated",
          "div": "<div xmlns=\"http://www.w3.org/1999/xhtml\"><table class=\"hl7__eu__lab__report\"><tr><th>Test</th><th>08-May-2020</th><th>Reference&#xA0;Range</th><th>Unit</th></tr><tr><td>Sodium [Moles/volume] in Serum or Plasma</td><td>140.7</td><td>135 - 145</td><td></td><td>mmol/L</td></tr></table></div>"
        },
        "status": "final",
        "subject": {
          "reference": "urn:uuid:aba4cfcc-03b8-4a0c-ba64-4e6d3ed790e0",
          "display": "Victor Lagarde"
        },
        "effectiveDateTime": "2020-05-08T04:48:18Z",
        "specimen": {
          "reference": "urn:uuid:b32aaa54-2a88-4420-8415-2e15d47bf044"
        }
      }
    },
    {
      "fullUrl": "urn:uuid:5855c230-391b-4793-96d9-341e8e8c8162",
      "resource": {
        "resourceType": "Observation",
        "id": "5855c230-391b-4793-96d9-341e8e8c8162",
        "meta": {
          "profile": [
            "http://hl7.eu/fhir/laboratory/StructureDefinition/Observation-resultslab-eu-lab"
          ]
        },
        "performer": [
          {
            "display": "The Central European Lab"
          }
        ],
        "category": [
          {
            "coding": [
              {
                "system": "http://terminology.hl7.org/CodeSystem/observation-category",
                "code": "laboratory"
              }
            ]
          }
        ],
        "code": {
          "coding": [
            {
              "code": "2823-3",
              "system": "http://loinc.org",
              "display": "Potassium [Moles/volume] in Serum or Plasma"
            }
          ],
          "text": "Potassium [Moles/volume] in Serum or Plasma"
        },
        "valueQuantity": {
          "system": "http://unitsofmeasure.org",
          "value": 4.9,
          "unit": "mmol/L",
          "code": "mmol/L"
        },
        "referenceRange": [
          {
            "low": {
              "value": 3.5,
              "code": "mmol/L",
              "system": "http://unitsofmeasure.org"
            }
          },
          {
            "high": {
              "value": 5.3,
              "code": "mmol/L",
              "system": "http://unitsofmeasure.org"
            }
          }
        ],
        "text": {
          "status": "generated",
          "div": "<div xmlns=\"http://www.w3.org/1999/xhtml\"><table class=\"hl7__eu__lab__report\"><tr><th>Test</th><th>08-May-2020</th><th>Reference&#xA0;Range</th><th>Unit</th></tr><tr><td>Potassium [Moles/volume] in Serum or Plasma</td><td>4.9</td><td>3.5 - 5.3</td><td></td><td>mmol/L</td></tr></table></div>"
        },
        "status": "final",
        "subject": {
          "reference": "urn:uuid:aba4cfcc-03b8-4a0c-ba64-4e6d3ed790e0",
          "display": "Victor Lagarde"
        },
        "effectiveDateTime": "2020-05-08T04:48:18Z",
        "specimen": {
          "reference": "urn:uuid:b32aaa54-2a88-4420-8415-2e15d47bf044"
        }
      }
    },
    {
      "fullUrl": "urn:uuid:84b04494-a2d8-43b5-bde3-e496335509ad",
      "resource": {
        "resourceType": "Observation",
        "id": "84b04494-a2d8-43b5-bde3-e496335509ad",
        "meta": {
          "profile": [
            "http://hl7.eu/fhir/laboratory/StructureDefinition/Observation-resultslab-eu-lab"
          ]
        },
        "performer": [
          {
            "display": "The Central European Lab"
          }
        ],
        "category": [
          {
            "coding": [
              {
                "system": "http://terminology.hl7.org/CodeSystem/observation-category",
                "code": "laboratory"
              }
            ]
          }
        ],
        "code": {
          "coding": [
            {
              "code": "2075-0",
              "system": "http://loinc.org",
              "display": "Chloride [Moles/volume] in Serum or Plasma"
            }
          ],
          "text": "Chloride [Moles/volume] in Serum or Plasma"
        },
        "valueQuantity": {
          "system": "http://unitsofmeasure.org",
          "value": 109.9,
          "unit": "mmol/L",
          "code": "mmol/L"
        },
        "referenceRange": [
          {
            "low": {
              "value": 98,
              "code": "mmol/L",
              "system": "http://unitsofmeasure.org"
            }
          },
          {
            "high": {
              "value": 107,
              "code": "mmol/L",
              "system": "http://unitsofmeasure.org"
            }
          }
        ],
        "interpretation": [
          {
            "coding": [
              {
                "code": "H",
                "system": "http://terminology.hl7.org/CodeSystem/v3-ObservationInterpretation",
                "display": "High"
              }
            ]
          }
        ],
        "text": {
          "status": "generated",
          "div": "<div xmlns=\"http://www.w3.org/1999/xhtml\"><table class=\"hl7__eu__lab__report\"><tr><th>Test</th><th>08-May-2020</th><th>Reference&#xA0;Range</th><th>Unit</th></tr><tr><td>Chloride [Moles/volume] in Serum or Plasma</td><td>109.9</td><td>98 - 107</td><td>H</td><td>mmol/L</td></tr></table></div>"
        },
        "status": "final",
        "subject": {
          "reference": "urn:uuid:aba4cfcc-03b8-4a0c-ba64-4e6d3ed790e0",
          "display": "Victor Lagarde"
        },
        "effectiveDateTime": "2020-05-08T04:48:18Z",
        "specimen": {
          "reference": "urn:uuid:b32aaa54-2a88-4420-8415-2e15d47bf044"
        }
      }
    },
    {
      "fullUrl": "urn:uuid:9bc571e1-ba21-47e7-acd1-d83010f143e1",
      "resource": {
        "resourceType": "Observation",
        "id": "9bc571e1-ba21-47e7-acd1-d83010f143e1",
        "meta": {
          "profile": [
            "http://hl7.eu/fhir/laboratory/StructureDefinition/Observation-resultslab-eu-lab"
          ]
        },
        "performer": [
          {
            "display": "The Central European Lab"
          }
        ],
        "category": [
          {
            "coding": [
              {
                "system": "http://terminology.hl7.org/CodeSystem/observation-category",
                "code": "laboratory"
              }
            ]
          }
        ],
        "code": {
          "coding": [
            {
              "code": "2028-9",
              "system": "http://loinc.org",
              "display": "Carbon dioxide, total [Moles/volume] in Serum or Plasma"
            }
          ],
          "text": "Carbon dioxide, total [Moles/volume] in Serum or Plasma"
        },
        "valueQuantity": {
          "system": "http://unitsofmeasure.org",
          "value": 25,
          "unit": "mmol/L",
          "code": "mmol/L"
        },
        "referenceRange": [
          {
            "low": {
              "value": 22,
              "code": "mmol/L",
              "system": "http://unitsofmeasure.org"
            }
          },
          {
            "high": {
              "value": 33,
              "code": "mmol/L",
              "system": "http://unitsofmeasure.org"
            }
          }
        ],
        "text": {
          "status": "generated",
          "div": "<div xmlns=\"http://www.w3.org/1999/xhtml\"><table class=\"hl7__eu__lab__report\"><tr><th>Test</th><th>08-May-2020</th><th>Reference&#xA0;Range</th><th>Unit</th></tr><tr><td>Carbon dioxide, total [Moles/volume] in Serum or Plasma</td><td>25.0</td><td>22 - 33</td><td></td><td>mmol/L</td></tr></table></div>"
        },
        "status": "final",
        "subject": {
          "reference": "urn:uuid:aba4cfcc-03b8-4a0c-ba64-4e6d3ed790e0",
          "display": "Victor Lagarde"
        },
        "effectiveDateTime": "2020-05-08T04:48:18Z",
        "specimen": {
          "reference": "urn:uuid:b32aaa54-2a88-4420-8415-2e15d47bf044"
        }
      }
    },
    {
      "fullUrl": "urn:uuid:d4e1c776-f14e-467a-af26-0bb7b7755454",
      "resource": {
        "resourceType": "Observation",
        "id": "d4e1c776-f14e-467a-af26-0bb7b7755454",
        "meta": {
          "profile": [
            "http://hl7.eu/fhir/laboratory/StructureDefinition/Observation-resultslab-eu-lab"
          ]
        },
        "performer": [
          {
            "display": "The Central European Lab"
          }
        ],
        "category": [
          {
            "coding": [
              {
                "system": "http://terminology.hl7.org/CodeSystem/observation-category",
                "code": "laboratory"
              }
            ]
          }
        ],
        "code": {
          "coding": [
            {
              "code": "5767-9",
              "system": "http://loinc.org",
              "display": "Appearance of Urine"
            }
          ],
          "text": "Appearance of Urine"
        },
        "text": {
          "status": "generated",
          "div": "<div xmlns=\"http://www.w3.org/1999/xhtml\"><table class=\"hl7__eu__lab__report\"><tr><th>Test</th><th>08-May-2020</th><th>Reference&#xA0;Range</th><th>Unit</th></tr><tr><td>Appearance of Urine</td></tr></table></div>"
        },
        "status": "final",
        "subject": {
          "reference": "urn:uuid:aba4cfcc-03b8-4a0c-ba64-4e6d3ed790e0",
          "display": "Victor Lagarde"
        },
        "effectiveDateTime": "2020-05-08T04:48:18Z",
        "specimen": {
          "reference": "urn:uuid:917630a0-50cf-4eec-8160-d1147d0d2298"
        }
      }
    },
    {
      "fullUrl": "urn:uuid:bb91062d-c7f4-4475-8db3-e5a5fafccad5",
      "resource": {
        "resourceType": "Observation",
        "id": "bb91062d-c7f4-4475-8db3-e5a5fafccad5",
        "meta": {
          "profile": [
            "http://hl7.eu/fhir/laboratory/StructureDefinition/Observation-resultslab-eu-lab"
          ]
        },
        "performer": [
          {
            "display": "The Central European Lab"
          }
        ],
        "category": [
          {
            "coding": [
              {
                "system": "http://terminology.hl7.org/CodeSystem/observation-category",
                "code": "laboratory"
              }
            ]
          }
        ],
        "code": {
          "coding": [
            {
              "code": "34533-0",
              "system": "http://loinc.org",
              "display": "Odor of Urine"
            }
          ],
          "text": "Odor of Urine"
        },
        "text": {
          "status": "generated",
          "div": "<div xmlns=\"http://www.w3.org/1999/xhtml\"><table class=\"hl7__eu__lab__report\"><tr><th>Test</th><th>08-May-2020</th><th>Reference&#xA0;Range</th><th>Unit</th></tr><tr><td>Odor of Urine</td></tr></table></div>"
        },
        "status": "final",
        "subject": {
          "reference": "urn:uuid:aba4cfcc-03b8-4a0c-ba64-4e6d3ed790e0",
          "display": "Victor Lagarde"
        },
        "effectiveDateTime": "2020-05-08T04:48:18Z",
        "specimen": {
          "reference": "urn:uuid:917630a0-50cf-4eec-8160-d1147d0d2298"
        }
      }
    },
    {
      "fullUrl": "urn:uuid:73ff16e2-da95-4004-9530-1107936dad92",
      "resource": {
        "resourceType": "Observation",
        "id": "73ff16e2-da95-4004-9530-1107936dad92",
        "meta": {
          "profile": [
            "http://hl7.eu/fhir/laboratory/StructureDefinition/Observation-resultslab-eu-lab"
          ]
        },
        "performer": [
          {
            "display": "The Central European Lab"
          }
        ],
        "category": [
          {
            "coding": [
              {
                "system": "http://terminology.hl7.org/CodeSystem/observation-category",
                "code": "laboratory"
              }
            ]
          }
        ],
        "code": {
          "coding": [
            {
              "code": "32167-9",
              "system": "http://loinc.org",
              "display": "Clarity of Urine"
            }
          ],
          "text": "Clarity of Urine"
        },
        "text": {
          "status": "generated",
          "div": "<div xmlns=\"http://www.w3.org/1999/xhtml\"><table class=\"hl7__eu__lab__report\"><tr><th>Test</th><th>08-May-2020</th><th>Reference&#xA0;Range</th><th>Unit</th></tr><tr><td>Clarity of Urine</td></tr></table></div>"
        },
        "status": "final",
        "subject": {
          "reference": "urn:uuid:aba4cfcc-03b8-4a0c-ba64-4e6d3ed790e0",
          "display": "Victor Lagarde"
        },
        "effectiveDateTime": "2020-05-08T04:48:18Z",
        "specimen": {
          "reference": "urn:uuid:917630a0-50cf-4eec-8160-d1147d0d2298"
        }
      }
    },
    {
      "fullUrl": "urn:uuid:76d89531-87bf-4861-ad0d-c463216001e1",
      "resource": {
        "resourceType": "Observation",
        "id": "76d89531-87bf-4861-ad0d-c463216001e1",
        "meta": {
          "profile": [
            "http://hl7.eu/fhir/laboratory/StructureDefinition/Observation-resultslab-eu-lab"
          ]
        },
        "performer": [
          {
            "display": "The Central European Lab"
          }
        ],
        "category": [
          {
            "coding": [
              {
                "system": "http://terminology.hl7.org/CodeSystem/observation-category",
                "code": "laboratory"
              }
            ]
          }
        ],
        "code": {
          "coding": [
            {
              "code": "5778-6",
              "system": "http://loinc.org",
              "display": "Color of Urine"
            }
          ],
          "text": "Color of Urine"
        },
        "text": {
          "status": "generated",
          "div": "<div xmlns=\"http://www.w3.org/1999/xhtml\"><table class=\"hl7__eu__lab__report\"><tr><th>Test</th><th>08-May-2020</th><th>Reference&#xA0;Range</th><th>Unit</th></tr><tr><td>Color of Urine</td></tr></table></div>"
        },
        "status": "final",
        "subject": {
          "reference": "urn:uuid:aba4cfcc-03b8-4a0c-ba64-4e6d3ed790e0",
          "display": "Victor Lagarde"
        },
        "effectiveDateTime": "2020-05-08T04:48:18Z",
        "specimen": {
          "reference": "urn:uuid:917630a0-50cf-4eec-8160-d1147d0d2298"
        }
      }
    },
    {
      "fullUrl": "urn:uuid:c5ada40d-fef2-4ba0-8580-6a81c3bb5e3b",
      "resource": {
        "resourceType": "Observation",
        "id": "c5ada40d-fef2-4ba0-8580-6a81c3bb5e3b",
        "meta": {
          "profile": [
            "http://hl7.eu/fhir/laboratory/StructureDefinition/Observation-resultslab-eu-lab"
          ]
        },
        "performer": [
          {
            "display": "The Central European Lab"
          }
        ],
        "category": [
          {
            "coding": [
              {
                "system": "http://terminology.hl7.org/CodeSystem/observation-category",
                "code": "laboratory"
              }
            ]
          }
        ],
        "code": {
          "coding": [
            {
              "code": "5792-7",
              "system": "http://loinc.org",
              "display": "Glucose [Mass/volume] in Urine by Test strip"
            }
          ],
          "text": "Glucose [Mass/volume] in Urine by Test strip"
        },
        "valueQuantity": {
          "system": "http://unitsofmeasure.org",
          "value": 1.5,
          "unit": "mg/dL",
          "code": "mg/dL"
        },
        "referenceRange": [
          {
            "low": {
              "value": 0,
              "code": "mg/dL",
              "system": "http://unitsofmeasure.org"
            }
          },
          {
            "high": {
              "value": 0.8,
              "code": "mg/dL",
              "system": "http://unitsofmeasure.org"
            }
          }
        ],
        "interpretation": [
          {
            "coding": [
              {
                "code": "H",
                "system": "http://terminology.hl7.org/CodeSystem/v3-ObservationInterpretation",
                "display": "High"
              }
            ]
          }
        ],
        "text": {
          "status": "generated",
          "div": "<div xmlns=\"http://www.w3.org/1999/xhtml\"><table class=\"hl7__eu__lab__report\"><tr><th>Test</th><th>08-May-2020</th><th>Reference&#xA0;Range</th><th>Unit</th></tr><tr><td>Glucose [Mass/volume] in Urine by Test strip</td><td>1.5</td><td>0 - 0.8</td><td>H</td><td>mg/dL</td></tr></table></div>"
        },
        "status": "final",
        "subject": {
          "reference": "urn:uuid:aba4cfcc-03b8-4a0c-ba64-4e6d3ed790e0",
          "display": "Victor Lagarde"
        },
        "effectiveDateTime": "2020-05-08T04:48:18Z",
        "specimen": {
          "reference": "urn:uuid:917630a0-50cf-4eec-8160-d1147d0d2298"
        }
      }
    },
    {
      "fullUrl": "urn:uuid:77772920-ba8f-4c83-9a49-5879cc7d3a9b",
      "resource": {
        "resourceType": "Observation",
        "id": "77772920-ba8f-4c83-9a49-5879cc7d3a9b",
        "meta": {
          "profile": [
            "http://hl7.eu/fhir/laboratory/StructureDefinition/Observation-resultslab-eu-lab"
          ]
        },
        "performer": [
          {
            "display": "The Central European Lab"
          }
        ],
        "category": [
          {
            "coding": [
              {
                "system": "http://terminology.hl7.org/CodeSystem/observation-category",
                "code": "laboratory"
              }
            ]
          }
        ],
        "code": {
          "coding": [
            {
              "code": "25428-4",
              "system": "http://loinc.org",
              "display": "Glucose [Presence] in Urine by Test strip"
            }
          ],
          "text": "Glucose [Presence] in Urine by Test strip"
        },
        "text": {
          "status": "generated",
          "div": "<div xmlns=\"http://www.w3.org/1999/xhtml\"><table class=\"hl7__eu__lab__report\"><tr><th>Test</th><th>08-May-2020</th><th>Reference&#xA0;Range</th><th>Unit</th></tr><tr><td>Glucose [Presence] in Urine by Test strip</td></tr></table></div>"
        },
        "status": "final",
        "subject": {
          "reference": "urn:uuid:aba4cfcc-03b8-4a0c-ba64-4e6d3ed790e0",
          "display": "Victor Lagarde"
        },
        "effectiveDateTime": "2020-05-08T04:48:18Z",
        "specimen": {
          "reference": "urn:uuid:917630a0-50cf-4eec-8160-d1147d0d2298"
        }
      }
    },
    {
      "fullUrl": "urn:uuid:36080cbb-1959-439a-ab2c-8ce576183a66",
      "resource": {
        "resourceType": "Observation",
        "id": "36080cbb-1959-439a-ab2c-8ce576183a66",
        "meta": {
          "profile": [
            "http://hl7.eu/fhir/laboratory/StructureDefinition/Observation-resultslab-eu-lab"
          ]
        },
        "performer": [
          {
            "display": "The Central European Lab"
          }
        ],
        "category": [
          {
            "coding": [
              {
                "system": "http://terminology.hl7.org/CodeSystem/observation-category",
                "code": "laboratory"
              }
            ]
          }
        ],
        "code": {
          "coding": [
            {
              "code": "20505-4",
              "system": "http://loinc.org",
              "display": "Bilirubin.total [Mass/volume] in Urine by Test strip"
            }
          ],
          "text": "Bilirubin.total [Mass/volume] in Urine by Test strip"
        },
        "valueQuantity": {
          "system": "http://unitsofmeasure.org",
          "value": 1.4,
          "unit": "mg/dL",
          "code": "mg/dL"
        },
        "referenceRange": [
          {
            "low": {
              "value": 0,
              "code": "mg/dL",
              "system": "http://unitsofmeasure.org"
            }
          },
          {
            "high": {
              "value": 1.9,
              "code": "mg/dL",
              "system": "http://unitsofmeasure.org"
            }
          }
        ],
        "text": {
          "status": "generated",
          "div": "<div xmlns=\"http://www.w3.org/1999/xhtml\"><table class=\"hl7__eu__lab__report\"><tr><th>Test</th><th>08-May-2020</th><th>Reference&#xA0;Range</th><th>Unit</th></tr><tr><td>Bilirubin.total [Mass/volume] in Urine by Test strip</td><td>1.4</td><td>0 - 1.9</td><td></td><td>mg/dL</td></tr></table></div>"
        },
        "status": "final",
        "subject": {
          "reference": "urn:uuid:aba4cfcc-03b8-4a0c-ba64-4e6d3ed790e0",
          "display": "Victor Lagarde"
        },
        "effectiveDateTime": "2020-05-08T04:48:18Z",
        "specimen": {
          "reference": "urn:uuid:917630a0-50cf-4eec-8160-d1147d0d2298"
        }
      }
    },
    {
      "fullUrl": "urn:uuid:4ec96d2a-c775-4f4d-97b6-b7f82b442bc3",
      "resource": {
        "resourceType": "Observation",
        "id": "4ec96d2a-c775-4f4d-97b6-b7f82b442bc3",
        "meta": {
          "profile": [
            "http://hl7.eu/fhir/laboratory/StructureDefinition/Observation-resultslab-eu-lab"
          ]
        },
        "performer": [
          {
            "display": "The Central European Lab"
          }
        ],
        "category": [
          {
            "coding": [
              {
                "system": "http://terminology.hl7.org/CodeSystem/observation-category",
                "code": "laboratory"
              }
            ]
          }
        ],
        "code": {
          "coding": [
            {
              "code": "5770-3",
              "system": "http://loinc.org",
              "display": "Bilirubin.total [Presence] in Urine by Test strip"
            }
          ],
          "text": "Bilirubin.total [Presence] in Urine by Test strip"
        },
        "text": {
          "status": "generated",
          "div": "<div xmlns=\"http://www.w3.org/1999/xhtml\"><table class=\"hl7__eu__lab__report\"><tr><th>Test</th><th>08-May-2020</th><th>Reference&#xA0;Range</th><th>Unit</th></tr><tr><td>Bilirubin.total [Presence] in Urine by Test strip</td></tr></table></div>"
        },
        "status": "final",
        "subject": {
          "reference": "urn:uuid:aba4cfcc-03b8-4a0c-ba64-4e6d3ed790e0",
          "display": "Victor Lagarde"
        },
        "effectiveDateTime": "2020-05-08T04:48:18Z",
        "specimen": {
          "reference": "urn:uuid:917630a0-50cf-4eec-8160-d1147d0d2298"
        }
      }
    },
    {
      "fullUrl": "urn:uuid:312915ae-a08b-4f95-9eb8-cf97c95bb457",
      "resource": {
        "resourceType": "Observation",
        "id": "312915ae-a08b-4f95-9eb8-cf97c95bb457",
        "meta": {
          "profile": [
            "http://hl7.eu/fhir/laboratory/StructureDefinition/Observation-resultslab-eu-lab"
          ]
        },
        "performer": [
          {
            "display": "The Central European Lab"
          }
        ],
        "category": [
          {
            "coding": [
              {
                "system": "http://terminology.hl7.org/CodeSystem/observation-category",
                "code": "laboratory"
              }
            ]
          }
        ],
        "code": {
          "coding": [
            {
              "code": "5797-6",
              "system": "http://loinc.org",
              "display": "Ketones [Mass/volume] in Urine by Test strip"
            }
          ],
          "text": "Ketones [Mass/volume] in Urine by Test strip"
        },
        "valueQuantity": {
          "system": "http://unitsofmeasure.org",
          "value": 1.4,
          "unit": "mg/dL",
          "code": "mg/dL"
        },
        "referenceRange": [
          {
            "low": {
              "value": 0,
              "code": "mg/dL",
              "system": "http://unitsofmeasure.org"
            }
          },
          {
            "high": {
              "value": 3,
              "code": "mg/dL",
              "system": "http://unitsofmeasure.org"
            }
          }
        ],
        "text": {
          "status": "generated",
          "div": "<div xmlns=\"http://www.w3.org/1999/xhtml\"><table class=\"hl7__eu__lab__report\"><tr><th>Test</th><th>08-May-2020</th><th>Reference&#xA0;Range</th><th>Unit</th></tr><tr><td>Ketones [Mass/volume] in Urine by Test strip</td><td>1.4</td><td>0 - 3</td><td></td><td>mg/dL</td></tr></table></div>"
        },
        "status": "final",
        "subject": {
          "reference": "urn:uuid:aba4cfcc-03b8-4a0c-ba64-4e6d3ed790e0",
          "display": "Victor Lagarde"
        },
        "effectiveDateTime": "2020-05-08T04:48:18Z",
        "specimen": {
          "reference": "urn:uuid:917630a0-50cf-4eec-8160-d1147d0d2298"
        }
      }
    },
    {
      "fullUrl": "urn:uuid:8462d2ae-ae18-4406-8ea4-af5f769924f9",
      "resource": {
        "resourceType": "Observation",
        "id": "8462d2ae-ae18-4406-8ea4-af5f769924f9",
        "meta": {
          "profile": [
            "http://hl7.eu/fhir/laboratory/StructureDefinition/Observation-resultslab-eu-lab"
          ]
        },
        "performer": [
          {
            "display": "The Central European Lab"
          }
        ],
        "category": [
          {
            "coding": [
              {
                "system": "http://terminology.hl7.org/CodeSystem/observation-category",
                "code": "laboratory"
              }
            ]
          }
        ],
        "code": {
          "coding": [
            {
              "code": "2514-8",
              "system": "http://loinc.org",
              "display": "Ketones [Presence] in Urine by Test strip"
            }
          ],
          "text": "Ketones [Presence] in Urine by Test strip"
        },
        "text": {
          "status": "generated",
          "div": "<div xmlns=\"http://www.w3.org/1999/xhtml\"><table class=\"hl7__eu__lab__report\"><tr><th>Test</th><th>08-May-2020</th><th>Reference&#xA0;Range</th><th>Unit</th></tr><tr><td>Ketones [Presence] in Urine by Test strip</td></tr></table></div>"
        },
        "status": "final",
        "subject": {
          "reference": "urn:uuid:aba4cfcc-03b8-4a0c-ba64-4e6d3ed790e0",
          "display": "Victor Lagarde"
        },
        "effectiveDateTime": "2020-05-08T04:48:18Z",
        "specimen": {
          "reference": "urn:uuid:917630a0-50cf-4eec-8160-d1147d0d2298"
        }
      }
    },
    {
      "fullUrl": "urn:uuid:468d5250-4843-4cb7-80dc-e79aef024943",
      "resource": {
        "resourceType": "Observation",
        "id": "468d5250-4843-4cb7-80dc-e79aef024943",
        "meta": {
          "profile": [
            "http://hl7.eu/fhir/laboratory/StructureDefinition/Observation-resultslab-eu-lab"
          ]
        },
        "performer": [
          {
            "display": "The Central European Lab"
          }
        ],
        "category": [
          {
            "coding": [
              {
                "system": "http://terminology.hl7.org/CodeSystem/observation-category",
                "code": "laboratory"
              }
            ]
          }
        ],
        "code": {
          "coding": [
            {
              "code": "5811-5",
              "system": "http://loinc.org",
              "display": "Specific gravity of Urine by Test strip"
            }
          ],
          "text": "Specific gravity of Urine by Test strip"
        },
        "valueQuantity": {
          "system": "http://unitsofmeasure.org",
          "value": 1,
          "unit": "{nominal}",
          "code": "{nominal}"
        },
        "referenceRange": [
          {
            "low": {
              "value": 1.01,
              "code": "g/mL",
              "system": "http://unitsofmeasure.org"
            }
          },
          {
            "high": {
              "value": 1.03,
              "code": "g/mL",
              "system": "http://unitsofmeasure.org"
            }
          }
        ],
        "interpretation": [
          {
            "coding": [
              {
                "code": "L",
                "system": "http://terminology.hl7.org/CodeSystem/v3-ObservationInterpretation",
                "display": "Low"
              }
            ]
          }
        ],
        "text": {
          "status": "generated",
          "div": "<div xmlns=\"http://www.w3.org/1999/xhtml\"><table class=\"hl7__eu__lab__report\"><tr><th>Test</th><th>08-May-2020</th><th>Reference&#xA0;Range</th><th>Unit</th></tr><tr><td>Specific gravity of Urine by Test strip</td><td>1.0</td><td>1.01 - 1.03</td><td>L</td><td>{nominal}</td></tr></table></div>"
        },
        "status": "final",
        "subject": {
          "reference": "urn:uuid:aba4cfcc-03b8-4a0c-ba64-4e6d3ed790e0",
          "display": "Victor Lagarde"
        },
        "effectiveDateTime": "2020-05-08T04:48:18Z",
        "specimen": {
          "reference": "urn:uuid:917630a0-50cf-4eec-8160-d1147d0d2298"
        }
      }
    },
    {
      "fullUrl": "urn:uuid:f6ed97e0-a0b1-483e-9fe8-3d4d632194ac",
      "resource": {
        "resourceType": "Observation",
        "id": "f6ed97e0-a0b1-483e-9fe8-3d4d632194ac",
        "meta": {
          "profile": [
            "http://hl7.eu/fhir/laboratory/StructureDefinition/Observation-resultslab-eu-lab"
          ]
        },
        "performer": [
          {
            "display": "The Central European Lab"
          }
        ],
        "category": [
          {
            "coding": [
              {
                "system": "http://terminology.hl7.org/CodeSystem/observation-category",
                "code": "laboratory"
              }
            ]
          }
        ],
        "code": {
          "coding": [
            {
              "code": "5803-2",
              "system": "http://loinc.org",
              "display": "pH of Urine by Test strip"
            }
          ],
          "text": "pH of Urine by Test strip"
        },
        "valueQuantity": {
          "system": "http://unitsofmeasure.org",
          "value": 5.9,
          "unit": "pH",
          "code": "pH"
        },
        "referenceRange": [
          {
            "low": {
              "value": 4.5,
              "code": "pH",
              "system": "http://unitsofmeasure.org"
            }
          },
          {
            "high": {
              "value": 7.5,
              "code": "pH",
              "system": "http://unitsofmeasure.org"
            }
          }
        ],
        "text": {
          "status": "generated",
          "div": "<div xmlns=\"http://www.w3.org/1999/xhtml\"><table class=\"hl7__eu__lab__report\"><tr><th>Test</th><th>08-May-2020</th><th>Reference&#xA0;Range</th><th>Unit</th></tr><tr><td>pH of Urine by Test strip</td><td>5.9</td><td>4.5 - 7.5</td><td></td><td>pH</td></tr></table></div>"
        },
        "status": "final",
        "subject": {
          "reference": "urn:uuid:aba4cfcc-03b8-4a0c-ba64-4e6d3ed790e0",
          "display": "Victor Lagarde"
        },
        "effectiveDateTime": "2020-05-08T04:48:18Z",
        "specimen": {
          "reference": "urn:uuid:917630a0-50cf-4eec-8160-d1147d0d2298"
        }
      }
    },
    {
      "fullUrl": "urn:uuid:5684446b-98bc-4997-80ca-d61a8a36f3b8",
      "resource": {
        "resourceType": "Observation",
        "id": "5684446b-98bc-4997-80ca-d61a8a36f3b8",
        "meta": {
          "profile": [
            "http://hl7.eu/fhir/laboratory/StructureDefinition/Observation-resultslab-eu-lab"
          ]
        },
        "performer": [
          {
            "display": "The Central European Lab"
          }
        ],
        "category": [
          {
            "coding": [
              {
                "system": "http://terminology.hl7.org/CodeSystem/observation-category",
                "code": "laboratory"
              }
            ]
          }
        ],
        "code": {
          "coding": [
            {
              "code": "5804-0",
              "system": "http://loinc.org",
              "display": "Protein [Mass/volume] in Urine by Test strip"
            }
          ],
          "text": "Protein [Mass/volume] in Urine by Test strip"
        },
        "valueQuantity": {
          "system": "http://unitsofmeasure.org",
          "value": 249.2,
          "unit": "mg/dL",
          "code": "mg/dL"
        },
        "referenceRange": [
          {
            "low": {
              "value": 0,
              "code": "mg/dL",
              "system": "http://unitsofmeasure.org"
            }
          },
          {
            "high": {
              "value": 149,
              "code": "mg/dL",
              "system": "http://unitsofmeasure.org"
            }
          }
        ],
        "interpretation": [
          {
            "coding": [
              {
                "code": "H",
                "system": "http://terminology.hl7.org/CodeSystem/v3-ObservationInterpretation",
                "display": "High"
              }
            ]
          }
        ],
        "text": {
          "status": "generated",
          "div": "<div xmlns=\"http://www.w3.org/1999/xhtml\"><table class=\"hl7__eu__lab__report\"><tr><th>Test</th><th>08-May-2020</th><th>Reference&#xA0;Range</th><th>Unit</th></tr><tr><td>Protein [Mass/volume] in Urine by Test strip</td><td>249.2</td><td>0 - 149</td><td>H</td><td>mg/dL</td></tr></table></div>"
        },
        "status": "final",
        "subject": {
          "reference": "urn:uuid:aba4cfcc-03b8-4a0c-ba64-4e6d3ed790e0",
          "display": "Victor Lagarde"
        },
        "effectiveDateTime": "2020-05-08T04:48:18Z",
        "specimen": {
          "reference": "urn:uuid:917630a0-50cf-4eec-8160-d1147d0d2298"
        }
      }
    },
    {
      "fullUrl": "urn:uuid:592d42ca-bfa8-407d-9e9d-611a97b8e03c",
      "resource": {
        "resourceType": "Observation",
        "id": "592d42ca-bfa8-407d-9e9d-611a97b8e03c",
        "meta": {
          "profile": [
            "http://hl7.eu/fhir/laboratory/StructureDefinition/Observation-resultslab-eu-lab"
          ]
        },
        "performer": [
          {
            "display": "The Central European Lab"
          }
        ],
        "category": [
          {
            "coding": [
              {
                "system": "http://terminology.hl7.org/CodeSystem/observation-category",
                "code": "laboratory"
              }
            ]
          }
        ],
        "code": {
          "coding": [
            {
              "code": "20454-5",
              "system": "http://loinc.org",
              "display": "Protein [Presence] in Urine by Test strip"
            }
          ],
          "text": "Protein [Presence] in Urine by Test strip"
        },
        "text": {
          "status": "generated",
          "div": "<div xmlns=\"http://www.w3.org/1999/xhtml\"><table class=\"hl7__eu__lab__report\"><tr><th>Test</th><th>08-May-2020</th><th>Reference&#xA0;Range</th><th>Unit</th></tr><tr><td>Protein [Presence] in Urine by Test strip</td></tr></table></div>"
        },
        "status": "final",
        "subject": {
          "reference": "urn:uuid:aba4cfcc-03b8-4a0c-ba64-4e6d3ed790e0",
          "display": "Victor Lagarde"
        },
        "effectiveDateTime": "2020-05-08T04:48:18Z",
        "specimen": {
          "reference": "urn:uuid:917630a0-50cf-4eec-8160-d1147d0d2298"
        }
      }
    },
    {
      "fullUrl": "urn:uuid:208fbb8d-af00-4575-b0a7-d7d70a1187e7",
      "resource": {
        "resourceType": "Observation",
        "id": "208fbb8d-af00-4575-b0a7-d7d70a1187e7",
        "meta": {
          "profile": [
            "http://hl7.eu/fhir/laboratory/StructureDefinition/Observation-resultslab-eu-lab"
          ]
        },
        "performer": [
          {
            "display": "The Central European Lab"
          }
        ],
        "category": [
          {
            "coding": [
              {
                "system": "http://terminology.hl7.org/CodeSystem/observation-category",
                "code": "laboratory"
              }
            ]
          }
        ],
        "code": {
          "coding": [
            {
              "code": "5802-4",
              "system": "http://loinc.org",
              "display": "Nitrite [Presence] in Urine by Test strip"
            }
          ],
          "text": "Nitrite [Presence] in Urine by Test strip"
        },
        "text": {
          "status": "generated",
          "div": "<div xmlns=\"http://www.w3.org/1999/xhtml\"><table class=\"hl7__eu__lab__report\"><tr><th>Test</th><th>08-May-2020</th><th>Reference&#xA0;Range</th><th>Unit</th></tr><tr><td>Nitrite [Presence] in Urine by Test strip</td></tr></table></div>"
        },
        "status": "final",
        "subject": {
          "reference": "urn:uuid:aba4cfcc-03b8-4a0c-ba64-4e6d3ed790e0",
          "display": "Victor Lagarde"
        },
        "effectiveDateTime": "2020-05-08T04:48:18Z",
        "specimen": {
          "reference": "urn:uuid:917630a0-50cf-4eec-8160-d1147d0d2298"
        }
      }
    },
    {
      "fullUrl": "urn:uuid:91bf0ba8-9472-4c3e-a759-f8c606d1b8eb",
      "resource": {
        "resourceType": "Observation",
        "id": "91bf0ba8-9472-4c3e-a759-f8c606d1b8eb",
        "meta": {
          "profile": [
            "http://hl7.eu/fhir/laboratory/StructureDefinition/Observation-resultslab-eu-lab"
          ]
        },
        "performer": [
          {
            "display": "The Central European Lab"
          }
        ],
        "category": [
          {
            "coding": [
              {
                "system": "http://terminology.hl7.org/CodeSystem/observation-category",
                "code": "laboratory"
              }
            ]
          }
        ],
        "code": {
          "coding": [
            {
              "code": "5794-3",
              "system": "http://loinc.org",
              "display": "Hemoglobin [Presence] in Urine by Test strip"
            }
          ],
          "text": "Hemoglobin [Presence] in Urine by Test strip"
        },
        "text": {
          "status": "generated",
          "div": "<div xmlns=\"http://www.w3.org/1999/xhtml\"><table class=\"hl7__eu__lab__report\"><tr><th>Test</th><th>08-May-2020</th><th>Reference&#xA0;Range</th><th>Unit</th></tr><tr><td>Hemoglobin [Presence] in Urine by Test strip</td></tr></table></div>"
        },
        "status": "final",
        "subject": {
          "reference": "urn:uuid:aba4cfcc-03b8-4a0c-ba64-4e6d3ed790e0",
          "display": "Victor Lagarde"
        },
        "effectiveDateTime": "2020-05-08T04:48:18Z",
        "specimen": {
          "reference": "urn:uuid:917630a0-50cf-4eec-8160-d1147d0d2298"
        }
      }
    },
    {
      "fullUrl": "urn:uuid:b5389381-6c5d-484c-a3a0-8f82b188c236",
      "resource": {
        "resourceType": "Observation",
        "id": "b5389381-6c5d-484c-a3a0-8f82b188c236",
        "meta": {
          "profile": [
            "http://hl7.eu/fhir/laboratory/StructureDefinition/Observation-resultslab-eu-lab"
          ]
        },
        "performer": [
          {
            "display": "The Central European Lab"
          }
        ],
        "category": [
          {
            "coding": [
              {
                "system": "http://terminology.hl7.org/CodeSystem/observation-category",
                "code": "laboratory"
              }
            ]
          }
        ],
        "code": {
          "coding": [
            {
              "code": "5799-2",
              "system": "http://loinc.org",
              "display": "Leukocyte esterase [Presence] in Urine by Test strip"
            }
          ],
          "text": "Leukocyte esterase [Presence] in Urine by Test strip"
        },
        "text": {
          "status": "generated",
          "div": "<div xmlns=\"http://www.w3.org/1999/xhtml\"><table class=\"hl7__eu__lab__report\"><tr><th>Test</th><th>08-May-2020</th><th>Reference&#xA0;Range</th><th>Unit</th></tr><tr><td>Leukocyte esterase [Presence] in Urine by Test strip</td></tr></table></div>"
        },
        "status": "final",
        "subject": {
          "reference": "urn:uuid:aba4cfcc-03b8-4a0c-ba64-4e6d3ed790e0",
          "display": "Victor Lagarde"
        },
        "effectiveDateTime": "2020-05-08T04:48:18Z",
        "specimen": {
          "reference": "urn:uuid:917630a0-50cf-4eec-8160-d1147d0d2298"
        }
      }
    },
    {
      "fullUrl": "urn:uuid:7ed57ef4-f913-4309-b3b7-7ee4342390a3",
      "resource": {
        "resourceType": "Observation",
        "id": "7ed57ef4-f913-4309-b3b7-7ee4342390a3",
        "meta": {
          "profile": [
            "http://hl7.eu/fhir/laboratory/StructureDefinition/Observation-resultslab-eu-lab"
          ]
        },
        "performer": [
          {
            "display": "The Central European Lab"
          }
        ],
        "category": [
          {
            "coding": [
              {
                "system": "http://terminology.hl7.org/CodeSystem/observation-category",
                "code": "laboratory"
              }
            ]
          }
        ],
        "code": {
          "coding": [
            {
              "code": "4548-4",
              "system": "http://loinc.org",
              "display": "Hemoglobin A1c/Hemoglobin.total in Blood"
            }
          ],
          "text": "Hemoglobin A1c/Hemoglobin.total in Blood"
        },
        "valueQuantity": {
          "system": "http://unitsofmeasure.org",
          "value": 3.2,
          "unit": "%",
          "code": "%"
        },
        "referenceRange": [
          {
            "low": {
              "value": 4.3,
              "code": "%",
              "system": "http://unitsofmeasure.org"
            }
          },
          {
            "high": {
              "value": 6,
              "code": "%",
              "system": "http://unitsofmeasure.org"
            }
          }
        ],
        "interpretation": [
          {
            "coding": [
              {
                "code": "L",
                "system": "http://terminology.hl7.org/CodeSystem/v3-ObservationInterpretation",
                "display": "Low"
              }
            ]
          }
        ],
        "text": {
          "status": "generated",
          "div": "<div xmlns=\"http://www.w3.org/1999/xhtml\"><table class=\"hl7__eu__lab__report\"><tr><th>Test</th><th>08-May-2020</th><th>Reference&#xA0;Range</th><th>Unit</th></tr><tr><td>Hemoglobin A1c/Hemoglobin.total in Blood</td><td>3.2</td><td>4.3 - 6</td><td>L</td><td>%</td></tr></table></div>"
        },
        "status": "final",
        "subject": {
          "reference": "urn:uuid:aba4cfcc-03b8-4a0c-ba64-4e6d3ed790e0",
          "display": "Victor Lagarde"
        },
        "effectiveDateTime": "2020-05-08T04:48:18Z",
        "specimen": {
          "reference": "urn:uuid:8f67b6bf-f72a-4866-b2c4-2c4d81294e8a"
        }
      }
    },
    {
      "fullUrl": "urn:uuid:18c7c7e9-6296-407a-a018-22e26b1b9436",
      "resource": {
        "resourceType": "Observation",
        "id": "18c7c7e9-6296-407a-a018-22e26b1b9436",
        "meta": {
          "profile": [
            "http://hl7.eu/fhir/laboratory/StructureDefinition/Observation-resultslab-eu-lab"
          ]
        },
        "performer": [
          {
            "display": "The Central European Lab"
          }
        ],
        "category": [
          {
            "coding": [
              {
                "system": "http://terminology.hl7.org/CodeSystem/observation-category",
                "code": "laboratory"
              }
            ]
          }
        ],
        "code": {
          "coding": [
            {
              "code": "2339-0",
              "system": "http://loinc.org",
              "display": "Glucose [Mass/volume] in Blood"
            }
          ],
          "text": "Glucose [Mass/volume] in Blood"
        },
        "valueQuantity": {
          "system": "http://unitsofmeasure.org",
          "value": 95.3,
          "unit": "mg/dL",
          "code": "mg/dL"
        },
        "referenceRange": [
          {
            "low": {
              "value": 70,
              "code": "mg/dL",
              "system": "http://unitsofmeasure.org"
            }
          },
          {
            "high": {
              "value": 140,
              "code": "mg/dL",
              "system": "http://unitsofmeasure.org"
            }
          }
        ],
        "text": {
          "status": "generated",
          "div": "<div xmlns=\"http://www.w3.org/1999/xhtml\"><table class=\"hl7__eu__lab__report\"><tr><th>Test</th><th>08-May-2020</th><th>Reference&#xA0;Range</th><th>Unit</th></tr><tr><td>Glucose [Mass/volume] in Blood</td><td>95.3</td><td>70 - 140</td><td></td><td>mg/dL</td></tr></table></div>"
        },
        "status": "final",
        "subject": {
          "reference": "urn:uuid:aba4cfcc-03b8-4a0c-ba64-4e6d3ed790e0",
          "display": "Victor Lagarde"
        },
        "effectiveDateTime": "2020-05-08T04:48:18Z",
        "specimen": {
          "reference": "urn:uuid:8f67b6bf-f72a-4866-b2c4-2c4d81294e8a"
        }
      }
    },
    {
      "fullUrl": "urn:uuid:66d27695-2e3f-488c-8d74-10599bcdedd1",
      "resource": {
        "resourceType": "Observation",
        "id": "66d27695-2e3f-488c-8d74-10599bcdedd1",
        "meta": {
          "profile": [
            "http://hl7.eu/fhir/laboratory/StructureDefinition/Observation-resultslab-eu-lab"
          ]
        },
        "performer": [
          {
            "display": "The Central European Lab"
          }
        ],
        "category": [
          {
            "coding": [
              {
                "system": "http://terminology.hl7.org/CodeSystem/observation-category",
                "code": "laboratory"
              }
            ]
          }
        ],
        "code": {
          "coding": [
            {
              "code": "6299-2",
              "system": "http://loinc.org",
              "display": "Urea nitrogen [Mass/volume] in Blood"
            }
          ],
          "text": "Urea nitrogen [Mass/volume] in Blood"
        },
        "valueQuantity": {
          "system": "http://unitsofmeasure.org",
          "value": 8.2,
          "unit": "mg/dL",
          "code": "mg/dL"
        },
        "referenceRange": [
          {
            "low": {
              "value": 7,
              "code": "mg/dL",
              "system": "http://unitsofmeasure.org"
            }
          },
          {
            "high": {
              "value": 20,
              "code": "mg/dL",
              "system": "http://unitsofmeasure.org"
            }
          }
        ],
        "text": {
          "status": "generated",
          "div": "<div xmlns=\"http://www.w3.org/1999/xhtml\"><table class=\"hl7__eu__lab__report\"><tr><th>Test</th><th>08-May-2020</th><th>Reference&#xA0;Range</th><th>Unit</th></tr><tr><td>Urea nitrogen [Mass/volume] in Blood</td><td>8.2</td><td>7 - 20</td><td></td><td>mg/dL</td></tr></table></div>"
        },
        "status": "final",
        "subject": {
          "reference": "urn:uuid:aba4cfcc-03b8-4a0c-ba64-4e6d3ed790e0",
          "display": "Victor Lagarde"
        },
        "effectiveDateTime": "2020-05-08T04:48:18Z",
        "specimen": {
          "reference": "urn:uuid:8f67b6bf-f72a-4866-b2c4-2c4d81294e8a"
        }
      }
    },
    {
      "fullUrl": "urn:uuid:f58cc2cf-c371-46cd-999a-d0f8c04d5b5a",
      "resource": {
        "resourceType": "Observation",
        "id": "f58cc2cf-c371-46cd-999a-d0f8c04d5b5a",
        "meta": {
          "profile": [
            "http://hl7.eu/fhir/laboratory/StructureDefinition/Observation-resultslab-eu-lab"
          ]
        },
        "performer": [
          {
            "display": "The Central European Lab"
          }
        ],
        "category": [
          {
            "coding": [
              {
                "system": "http://terminology.hl7.org/CodeSystem/observation-category",
                "code": "laboratory"
              }
            ]
          }
        ],
        "code": {
          "coding": [
            {
              "code": "38483-4",
              "system": "http://loinc.org",
              "display": "Creatinine [Mass/volume] in Blood"
            }
          ],
          "text": "Creatinine [Mass/volume] in Blood"
        },
        "valueQuantity": {
          "system": "http://unitsofmeasure.org",
          "value": 2.9,
          "unit": "mg/dL",
          "code": "mg/dL"
        },
        "referenceRange": [
          {
            "low": {
              "value": 0.9,
              "code": "mg/dL",
              "system": "http://unitsofmeasure.org"
            }
          },
          {
            "high": {
              "value": 1.3,
              "code": "mg/dL",
              "system": "http://unitsofmeasure.org"
            }
          }
        ],
        "interpretation": [
          {
            "coding": [
              {
                "code": "H",
                "system": "http://terminology.hl7.org/CodeSystem/v3-ObservationInterpretation",
                "display": "High"
              }
            ]
          }
        ],
        "text": {
          "status": "generated",
          "div": "<div xmlns=\"http://www.w3.org/1999/xhtml\"><table class=\"hl7__eu__lab__report\"><tr><th>Test</th><th>08-May-2020</th><th>Reference&#xA0;Range</th><th>Unit</th></tr><tr><td>Creatinine [Mass/volume] in Blood</td><td>2.9</td><td>0.9 - 1.3</td><td>H</td><td>mg/dL</td></tr></table></div>"
        },
        "status": "final",
        "subject": {
          "reference": "urn:uuid:aba4cfcc-03b8-4a0c-ba64-4e6d3ed790e0",
          "display": "Victor Lagarde"
        },
        "effectiveDateTime": "2020-05-08T04:48:18Z",
        "specimen": {
          "reference": "urn:uuid:8f67b6bf-f72a-4866-b2c4-2c4d81294e8a"
        }
      }
    },
    {
      "fullUrl": "urn:uuid:cfd9e466-7e6d-4553-b8b6-c6d87cf6983e",
      "resource": {
        "resourceType": "Observation",
        "id": "cfd9e466-7e6d-4553-b8b6-c6d87cf6983e",
        "meta": {
          "profile": [
            "http://hl7.eu/fhir/laboratory/StructureDefinition/Observation-resultslab-eu-lab"
          ]
        },
        "performer": [
          {
            "display": "The Central European Lab"
          }
        ],
        "category": [
          {
            "coding": [
              {
                "system": "http://terminology.hl7.org/CodeSystem/observation-category",
                "code": "laboratory"
              }
            ]
          }
        ],
        "code": {
          "coding": [
            {
              "code": "49765-1",
              "system": "http://loinc.org",
              "display": "Calcium [Mass/volume] in Blood"
            }
          ],
          "text": "Calcium [Mass/volume] in Blood"
        },
        "valueQuantity": {
          "system": "http://unitsofmeasure.org",
          "value": 9.8,
          "unit": "mg/dL",
          "code": "mg/dL"
        },
        "referenceRange": [
          {
            "low": {
              "value": 8.5,
              "code": "mg/dL",
              "system": "http://unitsofmeasure.org"
            }
          },
          {
            "high": {
              "value": 10.5,
              "code": "mg/dL",
              "system": "http://unitsofmeasure.org"
            }
          }
        ],
        "text": {
          "status": "generated",
          "div": "<div xmlns=\"http://www.w3.org/1999/xhtml\"><table class=\"hl7__eu__lab__report\"><tr><th>Test</th><th>08-May-2020</th><th>Reference&#xA0;Range</th><th>Unit</th></tr><tr><td>Calcium [Mass/volume] in Blood</td><td>9.8</td><td>8.5 - 10.5</td><td></td><td>mg/dL</td></tr></table></div>"
        },
        "status": "final",
        "subject": {
          "reference": "urn:uuid:aba4cfcc-03b8-4a0c-ba64-4e6d3ed790e0",
          "display": "Victor Lagarde"
        },
        "effectiveDateTime": "2020-05-08T04:48:18Z",
        "specimen": {
          "reference": "urn:uuid:8f67b6bf-f72a-4866-b2c4-2c4d81294e8a"
        }
      }
    },
    {
      "fullUrl": "urn:uuid:f230116a-d03b-4ec4-bed5-bbffb555c7f6",
      "resource": {
        "resourceType": "Observation",
        "id": "f230116a-d03b-4ec4-bed5-bbffb555c7f6",
        "meta": {
          "profile": [
            "http://hl7.eu/fhir/laboratory/StructureDefinition/Observation-resultslab-eu-lab"
          ]
        },
        "performer": [
          {
            "display": "The Central European Lab"
          }
        ],
        "category": [
          {
            "coding": [
              {
                "system": "http://terminology.hl7.org/CodeSystem/observation-category",
                "code": "laboratory"
              }
            ]
          }
        ],
        "code": {
          "coding": [
            {
              "code": "2947-0",
              "system": "http://loinc.org",
              "display": "Sodium [Moles/volume] in Blood"
            }
          ],
          "text": "Sodium [Moles/volume] in Blood"
        },
        "valueQuantity": {
          "system": "http://unitsofmeasure.org",
          "value": 140.7,
          "unit": "mmol/L",
          "code": "mmol/L"
        },
        "referenceRange": [
          {
            "low": {
              "value": 135,
              "code": "mmol/L",
              "system": "http://unitsofmeasure.org"
            }
          },
          {
            "high": {
              "value": 145,
              "code": "mmol/L",
              "system": "http://unitsofmeasure.org"
            }
          }
        ],
        "text": {
          "status": "generated",
          "div": "<div xmlns=\"http://www.w3.org/1999/xhtml\"><table class=\"hl7__eu__lab__report\"><tr><th>Test</th><th>08-May-2020</th><th>Reference&#xA0;Range</th><th>Unit</th></tr><tr><td>Sodium [Moles/volume] in Blood</td><td>140.7</td><td>135 - 145</td><td></td><td>mmol/L</td></tr></table></div>"
        },
        "status": "final",
        "subject": {
          "reference": "urn:uuid:aba4cfcc-03b8-4a0c-ba64-4e6d3ed790e0",
          "display": "Victor Lagarde"
        },
        "effectiveDateTime": "2020-05-08T04:48:18Z",
        "specimen": {
          "reference": "urn:uuid:8f67b6bf-f72a-4866-b2c4-2c4d81294e8a"
        }
      }
    },
    {
      "fullUrl": "urn:uuid:17c04313-07bf-44d1-9206-23eece7e2f03",
      "resource": {
        "resourceType": "Observation",
        "id": "17c04313-07bf-44d1-9206-23eece7e2f03",
        "meta": {
          "profile": [
            "http://hl7.eu/fhir/laboratory/StructureDefinition/Observation-resultslab-eu-lab"
          ]
        },
        "performer": [
          {
            "display": "The Central European Lab"
          }
        ],
        "category": [
          {
            "coding": [
              {
                "system": "http://terminology.hl7.org/CodeSystem/observation-category",
                "code": "laboratory"
              }
            ]
          }
        ],
        "code": {
          "coding": [
            {
              "code": "6298-4",
              "system": "http://loinc.org",
              "display": "Potassium [Moles/volume] in Blood"
            }
          ],
          "text": "Potassium [Moles/volume] in Blood"
        },
        "valueQuantity": {
          "system": "http://unitsofmeasure.org",
          "value": 4.9,
          "unit": "mmol/L",
          "code": "mmol/L"
        },
        "referenceRange": [
          {
            "low": {
              "value": 3.5,
              "code": "mmol/L",
              "system": "http://unitsofmeasure.org"
            }
          },
          {
            "high": {
              "value": 5.1,
              "code": "mmol/L",
              "system": "http://unitsofmeasure.org"
            }
          }
        ],
        "text": {
          "status": "generated",
          "div": "<div xmlns=\"http://www.w3.org/1999/xhtml\"><table class=\"hl7__eu__lab__report\"><tr><th>Test</th><th>08-May-2020</th><th>Reference&#xA0;Range</th><th>Unit</th></tr><tr><td>Potassium [Moles/volume] in Blood</td><td>4.9</td><td>3.5 - 5.1</td><td></td><td>mmol/L</td></tr></table></div>"
        },
        "status": "final",
        "subject": {
          "reference": "urn:uuid:aba4cfcc-03b8-4a0c-ba64-4e6d3ed790e0",
          "display": "Victor Lagarde"
        },
        "effectiveDateTime": "2020-05-08T04:48:18Z",
        "specimen": {
          "reference": "urn:uuid:8f67b6bf-f72a-4866-b2c4-2c4d81294e8a"
        }
      }
    },
    {
      "fullUrl": "urn:uuid:af0fe4fc-785b-423f-9a5f-9c03b1031c01",
      "resource": {
        "resourceType": "Observation",
        "id": "af0fe4fc-785b-423f-9a5f-9c03b1031c01",
        "meta": {
          "profile": [
            "http://hl7.eu/fhir/laboratory/StructureDefinition/Observation-resultslab-eu-lab"
          ]
        },
        "performer": [
          {
            "display": "The Central European Lab"
          }
        ],
        "category": [
          {
            "coding": [
              {
                "system": "http://terminology.hl7.org/CodeSystem/observation-category",
                "code": "laboratory"
              }
            ]
          }
        ],
        "code": {
          "coding": [
            {
              "code": "2069-3",
              "system": "http://loinc.org",
              "display": "Chloride [Moles/volume] in Blood"
            }
          ],
          "text": "Chloride [Moles/volume] in Blood"
        },
        "valueQuantity": {
          "system": "http://unitsofmeasure.org",
          "value": 109.9,
          "unit": "mmol/L",
          "code": "mmol/L"
        },
        "referenceRange": [
          {
            "low": {
              "value": 98,
              "code": "mmol/L",
              "system": "http://unitsofmeasure.org"
            }
          },
          {
            "high": {
              "value": 108,
              "code": "mmol/L",
              "system": "http://unitsofmeasure.org"
            }
          }
        ],
        "interpretation": [
          {
            "coding": [
              {
                "code": "H",
                "system": "http://terminology.hl7.org/CodeSystem/v3-ObservationInterpretation",
                "display": "High"
              }
            ]
          }
        ],
        "text": {
          "status": "generated",
          "div": "<div xmlns=\"http://www.w3.org/1999/xhtml\"><table class=\"hl7__eu__lab__report\"><tr><th>Test</th><th>08-May-2020</th><th>Reference&#xA0;Range</th><th>Unit</th></tr><tr><td>Chloride [Moles/volume] in Blood</td><td>109.9</td><td>98 - 108</td><td>H</td><td>mmol/L</td></tr></table></div>"
        },
        "status": "final",
        "subject": {
          "reference": "urn:uuid:aba4cfcc-03b8-4a0c-ba64-4e6d3ed790e0",
          "display": "Victor Lagarde"
        },
        "effectiveDateTime": "2020-05-08T04:48:18Z",
        "specimen": {
          "reference": "urn:uuid:8f67b6bf-f72a-4866-b2c4-2c4d81294e8a"
        }
      }
    },
    {
      "fullUrl": "urn:uuid:3dddbaa2-fd5f-4376-8faf-371a924a1c0d",
      "resource": {
        "resourceType": "Observation",
        "id": "3dddbaa2-fd5f-4376-8faf-371a924a1c0d",
        "meta": {
          "profile": [
            "http://hl7.eu/fhir/laboratory/StructureDefinition/Observation-resultslab-eu-lab"
          ]
        },
        "performer": [
          {
            "display": "The Central European Lab"
          }
        ],
        "category": [
          {
            "coding": [
              {
                "system": "http://terminology.hl7.org/CodeSystem/observation-category",
                "code": "laboratory"
              }
            ]
          }
        ],
        "code": {
          "coding": [
            {
              "code": "20565-8",
              "system": "http://loinc.org",
              "display": "Carbon dioxide, total [Moles/volume] in Blood"
            }
          ],
          "text": "Carbon dioxide, total [Moles/volume] in Blood"
        },
        "valueQuantity": {
          "system": "http://unitsofmeasure.org",
          "value": 25,
          "unit": "mmol/L",
          "code": "mmol/L"
        },
        "referenceRange": [
          {
            "low": {
              "value": 22,
              "code": "mmol/L",
              "system": "http://unitsofmeasure.org"
            }
          },
          {
            "high": {
              "value": 29,
              "code": "mmol/L",
              "system": "http://unitsofmeasure.org"
            }
          }
        ],
        "text": {
          "status": "generated",
          "div": "<div xmlns=\"http://www.w3.org/1999/xhtml\"><table class=\"hl7__eu__lab__report\"><tr><th>Test</th><th>08-May-2020</th><th>Reference&#xA0;Range</th><th>Unit</th></tr><tr><td>Carbon dioxide, total [Moles/volume] in Blood</td><td>25.0</td><td>22 - 29</td><td></td><td>mmol/L</td></tr></table></div>"
        },
        "status": "final",
        "subject": {
          "reference": "urn:uuid:aba4cfcc-03b8-4a0c-ba64-4e6d3ed790e0",
          "display": "Victor Lagarde"
        },
        "effectiveDateTime": "2020-05-08T04:48:18Z",
        "specimen": {
          "reference": "urn:uuid:8f67b6bf-f72a-4866-b2c4-2c4d81294e8a"
        }
      }
    },
    {
      "fullUrl": "urn:uuid:9f365683-76b6-4596-a950-7016675549ab",
      "resource": {
        "resourceType": "Device",
        "id": "9f365683-76b6-4596-a950-7016675549ab",
        "deviceName": [
          {
            "name": "SYNDERAI Synthetic Generator",
            "type": "manufacturer-name"
          }
        ],
        "version": [
          {
            "value": "5.0"
          }
        ],
        "text": {
          "status": "generated",
          "div": "<div xmlns=\"http://www.w3.org/1999/xhtml\">SYNDERAI Synthetic Generator v5.0</div>"
        },
        "status": "active\"",
        "distinctIdentifier": "synderai-generator-50",
        "manufacturer": "SYNDERAI Project"
      }
    },
    {
      "fullUrl": "urn:uuid:611eebdc-6fb9-4ac4-a722-005409792151",
      "resource": {
        "resourceType": "Provenance",
        "id": "611eebdc-6fb9-4ac4-a722-005409792151",
        "target": [
          {
            "reference": "Patient/aba4cfcc-03b8-4a0c-ba64-4e6d3ed790e0"
          },
          {
            "reference": "Bundle/c32920e8-7ab9-42d8-91b8-f3e47633a12e"
          },
          {
            "reference": "Composition/3aca084b-8219-4790-806b-69518f91ba82"
          },
          {
            "reference": "PractitionerRole/35655466-0f68-41bd-84aa-2cdf39589ec2"
          },
          {
            "reference": "Practitioner/6c378ece-8c87-4268-ac0a-b28bb1e591f3"
          },
          {
            "reference": "PractitionerRole/007438d4-853c-4768-b28c-a3bc493225cb"
          },
          {
            "reference": "Organization/875207c6-42d9-4705-9669-cd8eae170e56"
          }
        ],
        "activity": {
          "text": "Synthetic Example Data Generation"
        },
        "policy": [
          "https://synderai.net/synderai-synthetic-data-policy"
        ],
        "agent": [
          {
            "type": {
              "text": "author"
            },
            "who": {
              "reference": "Device/9f365683-76b6-4596-a950-7016675549ab"
            }
          }
        ],
        "reason": [
          {
            "text": "Interoperability Testing and Training (non-clinical use)"
          }
        ],
        "text": {
          "status": "generated",
          "div": "<div xmlns=\"http://www.w3.org/1999/xhtml\">Provenance for SYNDERAI Synthetic Example Data Resource</div>"
        },
        "recorded": "2020-05-08T06:48:18Z"
      }
    },
    {
      "fullUrl": "urn:uuid:35655466-0f68-41bd-84aa-2cdf39589ec2",
      "resource": {
        "resourceType": "PractitionerRole",
        "id": "35655466-0f68-41bd-84aa-2cdf39589ec2",
        "meta": {
          "profile": [
            "http://hl7.eu/fhir/base/StructureDefinition/practitionerRole-eu"
          ]
        },
        "text": {
          "status": "generated",
          "div": "<div xmlns=\"http://www.w3.org/1999/xhtml\">Laboratory Role Id: 35655466-0f68-41bd-84aa-2cdf39589ec2</div>"
        },
        "practitioner": {
          "reference": "urn:uuid:6c378ece-8c87-4268-ac0a-b28bb1e591f3"
        }
      }
    },
    {
      "fullUrl": "urn:uuid:6c378ece-8c87-4268-ac0a-b28bb1e591f3",
      "resource": {
        "resourceType": "Practitioner",
        "id": "6c378ece-8c87-4268-ac0a-b28bb1e591f3",
        "meta": {
          "profile": [
            "http://hl7.eu/fhir/base/StructureDefinition/practitioner-eu"
          ]
        },
        "identifier": [
          {
            "assigner": {
              "display": "HL7 Europe"
            },
            "system": "urn:oid:2.16.840.1.113883.2.51.999",
            "value": "a71b5d04-26c0-448c-8789-143857a2d3fc"
          }
        ],
        "name": [
          {
            "prefix": [
              "dr"
            ],
            "given": [
              "Ex"
            ],
            "family": "Ample"
          }
        ],
        "address": [
          {
            "line": [
              "Laboratoire Central Europenne",
              "Boulevard du Jardin Botanique 32"
            ],
            "postalCode": "1000",
            "city": "Brussels",
            "country": "Belgium"
          }
        ],
        "text": {
          "status": "generated",
          "div": "<div xmlns=\"http://www.w3.org/1999/xhtml\">Laboratory: Laboratoire Central Europenne, 1000 Brussels, Belgium</div>"
        }
      }
    }
  ],
  "type": "document",
  "timestamp": "2020-05-08T06:48:18Z"
}
