{
  "resourceType": "Bundle",
  "id": "8c34625f-6b2a-44ba-bef3-9e629fd674ed",
  "meta": {
    "profile": [
      "http://hl7.eu/fhir/laboratory/StructureDefinition/Bundle-eu-lab"
    ]
  },
  "identifier": {
    "assigner": {
      "display": "HL7 Europe"
    },
    "system": "urn:oid:2.16.840.1.113883.2.51.999",
    "value": "91cf11bd-2da0-4fcc-b3bc-0e71db9e8781"
  },
  "entry": [
    {
      "fullUrl": "urn:uuid:87167f27-0928-4e80-a1c1-b8453edffb7b",
      "resource": {
        "resourceType": "Composition",
        "id": "87167f27-0928-4e80-a1c1-b8453edffb7b",
        "meta": {
          "profile": [
            "http://hl7.eu/fhir/laboratory/StructureDefinition/Composition-eu-lab"
          ]
        },
        "identifier": {
          "assigner": {
            "display": "HL7 Europe"
          },
          "system": "urn:oid:2.16.840.1.113883.2.51.999",
          "value": "e183b418-621a-46ec-9391-797ec50c3585"
        },
        "author": [
          {
            "reference": "urn:uuid:3a1220b6-db99-45d3-826d-aa9fc2dbb018"
          }
        ],
        "category": [
          {
            "coding": [
              {
                "code": "26436-6",
                "system": "http://loinc.org",
                "display": "Laboratory studies (set)"
              }
            ]
          }
        ],
        "type": {
          "coding": [
            {
              "code": "11502-2",
              "system": "http://loinc.org",
              "display": "Laboratory report"
            }
          ],
          "text": "Laboratory Report"
        },
        "section": [
          {
            "code": {
              "coding": [
                {
                  "code": "26436-6",
                  "system": "http://loinc.org",
                  "display": "Laboratory studies (set)"
                }
              ],
              "text": "Laboratory studies"
            },
            "section": [
              {
                "code": {
                  "coding": [
                    {
                      "code": "$18719-5",
                      "system": "http://loinc.org",
                      "display": "Chemistry studies (set)"
                    }
                  ],
                  "text": "Chemistry"
                },
                "entry": [
                  {
                    "reference": "urn:uuid:3c8e02c0-b01f-4535-acbf-195dcc6975a5"
                  },
                  {
                    "reference": "urn:uuid:faf4b2e1-15f9-4dce-b780-c87323e662db"
                  },
                  {
                    "reference": "urn:uuid:edef2ea0-7f1b-4e81-a2d4-235f77d20bd7"
                  },
                  {
                    "reference": "urn:uuid:dcdf0d49-773a-4bc1-8c10-0b8470528cf5"
                  },
                  {
                    "reference": "urn:uuid:5c384da4-90a8-4efb-bb64-7120eb46cead"
                  },
                  {
                    "reference": "urn:uuid:57d0faf9-7af1-4c32-bf9f-9c9a25655cb5"
                  },
                  {
                    "reference": "urn:uuid:c2a81256-b40f-4b47-9fb5-c8fcb5deda19"
                  },
                  {
                    "reference": "urn:uuid:19a6cab7-ecd1-4389-b367-f0ec5b9615a0"
                  },
                  {
                    "reference": "urn:uuid:14f85ed7-acb7-4b1a-a3e6-12ecbab0331e"
                  },
                  {
                    "reference": "urn:uuid:c3bd3fe3-5a09-47cd-b5d8-7c1f56aeda23"
                  },
                  {
                    "reference": "urn:uuid:dcfd11c3-76a2-4501-b14a-b9b454233722"
                  },
                  {
                    "reference": "urn:uuid:074b48d2-4998-46df-b9e1-6907494f66e0"
                  },
                  {
                    "reference": "urn:uuid:2dab00b1-9f57-4b1d-a882-5ad6313202e2"
                  },
                  {
                    "reference": "urn:uuid:a55f03eb-1982-4a55-8675-460166c346e4"
                  },
                  {
                    "reference": "urn:uuid:b1e2b4bf-c5ea-4058-9041-161f897d5b67"
                  },
                  {
                    "reference": "urn:uuid:da19736b-589f-4ddf-8578-cc2ac9ace29d"
                  },
                  {
                    "reference": "urn:uuid:45f96dc5-f51d-4319-b8e8-e34cfd392944"
                  },
                  {
                    "reference": "urn:uuid:7783c01f-1783-4c96-8ca0-94b7cf96f07d"
                  },
                  {
                    "reference": "urn:uuid:65039d9e-9948-4ae8-8bc6-7721840b9785"
                  }
                ],
                "text": {
                  "status": "generated",
                  "div": "<div xmlns=\"http://www.w3.org/1999/xhtml\"><h3>Chemistry</h3><table class=\"hl7__eu__lab__report\"><thead><tr><th>Test</th><th>12-MAR-2021</th><th>Reference&#xA0;Range</th><th>Unit</th></tr></thead><tbody><tr><td>Glucose [Mass/volume] in Blood</td><td>82.6</td><td>70 - 99</td><td>mg/dL</td></tr><tr><td>Urea nitrogen [Mass/volume] in Blood</td><td>9.3</td><td>7 - 45</td><td>mg/dL</td></tr><tr><td>Creatinine [Mass/volume] in Blood</td><td><strong>3.2 H</strong></td><td>0.6 - 1.1</td><td>mg/dL</td></tr><tr><td>Calcium [Mass/volume] in Blood</td><td>9.4</td><td>8.5 - 10.4</td><td>mg/dL</td></tr><tr><td>Sodium [Moles/volume] in Blood</td><td>138.0</td><td>135 - 145</td><td>mmol/L</td></tr><tr><td>Potassium [Moles/volume] in Blood</td><td>4.6</td><td>3.5 - 5.1</td><td>mmol/L</td></tr><tr><td>Chloride [Moles/volume] in Blood</td><td>101.1</td><td>98 - 110</td><td>mmol/L</td></tr><tr><td>Carbon dioxide, total [Moles/volume] in Blood</td><td>25.3</td><td>22 - 29</td><td>mmol/L</td></tr><tr><td>Protein [Mass/volume] in Serum or Plasma</td><td>6.0</td><td>6 - 8.3</td><td>g/dL</td></tr><tr><td>Albumin [Mass/volume] in Serum or Plasma</td><td>4.6</td><td>3.5 - 5.5</td><td>g/dL</td></tr><tr><td>Globulin [Mass/volume] in Serum by calculation</td><td>2.1</td><td>2 - 3.5</td><td>g/L</td></tr><tr><td>Bilirubin.total [Mass/volume] in Serum or Plasma</td><td><strong>0.2 L</strong></td><td>0.3 - 1.2</td><td>mg/dL</td></tr><tr><td>Alkaline phosphatase [Enzymatic activity/volume] in Serum or Plasma</td><td>110.9</td><td>44 - 130</td><td>U/L</td></tr><tr><td>Alanine aminotransferase [Enzymatic activity/volume] in Serum or Plasma</td><td>23.7</td><td>7 - 33</td><td>U/L</td></tr><tr><td>Aspartate aminotransferase [Enzymatic activity/volume] in Serum or Plasma</td><td>24.3</td><td>10 - 40</td><td>U/L</td></tr><tr><td>Cholesterol [Mass/volume] in Serum or Plasma</td><td>178.2</td><td>125 - 200</td><td>mg/dL</td></tr><tr><td>Triglyceride [Mass/volume] in Serum or Plasma</td><td>138.8</td><td>10 - 175</td><td>mg/dL</td></tr><tr><td>Cholesterol in LDL [Mass/volume] in Serum or Plasma by Direct assay</td><td>96.5</td><td>0 - 130</td><td>mg/dL</td></tr><tr><td>Cholesterol in HDL [Mass/volume] in Serum or Plasma</td><td>57.5</td><td>40 - 100</td><td>mg/dL</td></tr></tbody></table></div>"
                },
                "title": "Chemistry"
              }
            ],
            "title": "Laboratory Report"
          },
          {
            "text": {
              "status": "generated",
              "div": "<div xmlns=\"http://www.w3.org/1999/xhtml\"><h3>Annotation</h3><table class=\"hl7__eu__lab__report\"><tr><th>Conclusion and Recommendations based on this report and previous findings known to us</th></tr><tr><td>Renal function is impaired, as indicated by significantly elevated creatinine, suggesting possible chronic kidney disease or acute renal dysfunction. All other parameters, including electrolytes, liver enzymes, glucose, and lipid profile, are within normal limits. The low total bilirubin is not clinically significant. Recommend clinical correlation and further nephrological evaluation for renal impairment.</td></tr></table></div>"
            },
            "code": {
              "coding": [
                {
                  "system": "http://loinc.org",
                  "code": "48767-8",
                  "display": "Annotation comment"
                }
              ]
            },
            "title": "Annotation comment"
          }
        ],
        "status": "final",
        "subject": {
          "reference": "urn:uuid:0a801a0e-4d37-4f9c-8030-136238365776",
          "display": "Marthe Gallet"
        },
        "date": "2021-03-12T20:05:43Z",
        "title": "Laboratory Report",
        "confidentiality": "N"
      }
    },
    {
      "fullUrl": "urn:uuid:f0c9294f-bb41-4af5-8359-6f8242444549",
      "resource": {
        "resourceType": "DiagnosticReport",
        "id": "f0c9294f-bb41-4af5-8359-6f8242444549",
        "meta": {
          "profile": [
            "http://hl7.eu/fhir/laboratory/StructureDefinition/DiagnosticReport-eu-lab"
          ]
        },
        "identifier": [
          {
            "assigner": {
              "display": "HL7 Europe"
            },
            "system": "urn:oid:2.16.840.1.113883.2.51.999",
            "value": "24383f70-8107-4c41-bf3c-32c926b78f32"
          }
        ],
        "extension": [
          {
            "url": "http://hl7.org/fhir/5.0/StructureDefinition/extension-DiagnosticReport.composition",
            "valueReference": {
              "reference": "urn:uuid:e183b418-621a-46ec-9391-797ec50c3585"
            }
          }
        ],
        "category": [
          {
            "coding": [
              {
                "code": "26436-6",
                "system": "http://loinc.org",
                "display": "Laboratory studies (set)"
              }
            ]
          }
        ],
        "specimen": [
          {
            "reference": "urn:uuid:f0b0ad94-8d76-43b0-99e9-5b82457706f6"
          },
          {
            "reference": "urn:uuid:b7e545e4-fb67-45ea-9c85-21f114cbcfdb"
          },
          {
            "reference": "urn:uuid:fb95035e-f971-4db8-a9e2-c89c830a08ee"
          }
        ],
        "result": [
          {
            "reference": "urn:uuid:3c8e02c0-b01f-4535-acbf-195dcc6975a5"
          },
          {
            "reference": "urn:uuid:faf4b2e1-15f9-4dce-b780-c87323e662db"
          },
          {
            "reference": "urn:uuid:edef2ea0-7f1b-4e81-a2d4-235f77d20bd7"
          },
          {
            "reference": "urn:uuid:dcdf0d49-773a-4bc1-8c10-0b8470528cf5"
          },
          {
            "reference": "urn:uuid:5c384da4-90a8-4efb-bb64-7120eb46cead"
          },
          {
            "reference": "urn:uuid:57d0faf9-7af1-4c32-bf9f-9c9a25655cb5"
          },
          {
            "reference": "urn:uuid:c2a81256-b40f-4b47-9fb5-c8fcb5deda19"
          },
          {
            "reference": "urn:uuid:19a6cab7-ecd1-4389-b367-f0ec5b9615a0"
          },
          {
            "reference": "urn:uuid:14f85ed7-acb7-4b1a-a3e6-12ecbab0331e"
          },
          {
            "reference": "urn:uuid:c3bd3fe3-5a09-47cd-b5d8-7c1f56aeda23"
          },
          {
            "reference": "urn:uuid:dcfd11c3-76a2-4501-b14a-b9b454233722"
          },
          {
            "reference": "urn:uuid:074b48d2-4998-46df-b9e1-6907494f66e0"
          },
          {
            "reference": "urn:uuid:2dab00b1-9f57-4b1d-a882-5ad6313202e2"
          },
          {
            "reference": "urn:uuid:a55f03eb-1982-4a55-8675-460166c346e4"
          },
          {
            "reference": "urn:uuid:b1e2b4bf-c5ea-4058-9041-161f897d5b67"
          },
          {
            "reference": "urn:uuid:da19736b-589f-4ddf-8578-cc2ac9ace29d"
          },
          {
            "reference": "urn:uuid:45f96dc5-f51d-4319-b8e8-e34cfd392944"
          },
          {
            "reference": "urn:uuid:7783c01f-1783-4c96-8ca0-94b7cf96f07d"
          },
          {
            "reference": "urn:uuid:65039d9e-9948-4ae8-8bc6-7721840b9785"
          }
        ],
        "status": "registered",
        "code": {
          "coding": [
            {
              "code": "11502-2",
              "system": "http://loinc.org",
              "display": "Laboratory report"
            }
          ]
        },
        "subject": {
          "reference": "urn:uuid:0a801a0e-4d37-4f9c-8030-136238365776",
          "display": "Marthe Gallet"
        }
      }
    },
    {
      "fullUrl": "urn:uuid:0a801a0e-4d37-4f9c-8030-136238365776",
      "resource": {
        "resourceType": "Patient",
        "id": "0a801a0e-4d37-4f9c-8030-136238365776",
        "meta": {
          "security": [
            {
              "system": "http://terminology.hl7.org/CodeSystem/v3-ActReason",
              "code": "HTEST"
            },
            {
              "system": "http://terminology.hl7.org/CodeSystem/v3-ActReason",
              "code": "TRAIN"
            }
          ],
          "tag": [
            {
              "system": "https://synderai.net/fhir/CodeSystem/tags",
              "code": "synthetic",
              "display": "SYNDERAI Synthetic data"
            }
          ],
          "profile": [
            "http://hl7.eu/fhir/base/StructureDefinition/patient-eu-core"
          ]
        },
        "identifier": [
          {
            "type": {
              "coding": [
                {
                  "code": "PT",
                  "system": "http://terminology.hl7.org/CodeSystem/v2-0203"
                }
              ]
            },
            "system": "http://ec.europa.eu/identifier/eci",
            "value": "9444-947487-6"
          },
          {
            "type": {
              "coding": [
                {
                  "code": "MR",
                  "system": "http://terminology.hl7.org/CodeSystem/v2-0203"
                }
              ]
            },
            "system": "http://local.setting.eu/identifier",
            "value": "854228d5-a476-2d9c-a1d7-c3202375a617"
          }
        ],
        "name": [
          {
            "family": "Gallet"
          },
          {
            "given": [
              "Marthe"
            ]
          },
          {
            "text": "Marthe Gallet"
          }
        ],
        "address": [
          {
            "line": [
              "3, rue Emmanuel Goncalves"
            ],
            "use": "home",
            "type": "physical",
            "postalCode": "49490",
            "city": "Briand",
            "country": "France"
          }
        ],
        "telecom": [
          {
            "system": "phone",
            "value": "+33 1 70 99 82 74"
          }
        ],
        "extension": [
          {
            "url": "http://hl7.org/fhir/StructureDefinition/patient-nationality",
            "valueCodeableConcept": {
              "coding": [
                {
                  "code": "FR",
                  "system": "http://hl7.org/fhir/ValueSet/country"
                }
              ]
            }
          }
        ],
        "text": {
          "status": "generated",
          "div": "<div xmlns=\"http://www.w3.org/1999/xhtml\"><table class=\"hl7__ips\"><tr><td>Marthe Gallet</td><td>female</td><td>29-Oct-1950</td></tr></table></div>"
        },
        "gender": "female",
        "birthDate": "1950-10-29"
      }
    },
    {
      "fullUrl": "urn:uuid:e8f77d6f-4a57-4754-8ba5-c2e74d1ac95c",
      "resource": {
        "resourceType": "ServiceRequest",
        "id": "e8f77d6f-4a57-4754-8ba5-c2e74d1ac95c",
        "meta": {
          "profile": [
            "http://hl7.eu/fhir/laboratory/StructureDefinition/ServiceRequest-eu-lab"
          ]
        },
        "identifier": [
          {
            "system": "http://example.org",
            "value": "74c577eb-74a4-4824-a228-e7050b500750"
          }
        ],
        "specimen": [
          {
            "reference": "urn:uuid:f0b0ad94-8d76-43b0-99e9-5b82457706f6"
          },
          {
            "reference": "urn:uuid:b7e545e4-fb67-45ea-9c85-21f114cbcfdb"
          },
          {
            "reference": "urn:uuid:fb95035e-f971-4db8-a9e2-c89c830a08ee"
          }
        ],
        "reasonCode": [
          {
            "coding": [
              {
                "code": "431856006",
                "system": "http://snomed.info/sct",
                "display": "Chronic kidney disease stage 2"
              }
            ]
          },
          {
            "coding": [
              {
                "code": "90781000119102",
                "system": "http://snomed.info/sct",
                "display": "Microalbuminuria due to type 2 diabetes mellitus"
              }
            ]
          },
          {
            "coding": [
              {
                "code": "127013003",
                "system": "http://snomed.info/sct",
                "display": "Disorder of kidney due to diabetes mellitus"
              }
            ]
          },
          {
            "coding": [
              {
                "code": "431855005",
                "system": "http://snomed.info/sct",
                "display": "Chronic kidney disease stage 1"
              }
            ]
          },
          {
            "coding": [
              {
                "code": "55822004",
                "system": "http://snomed.info/sct",
                "display": "Hyperlipidemia"
              }
            ]
          },
          {
            "coding": [
              {
                "code": "59621000",
                "system": "http://snomed.info/sct",
                "display": "Essential hypertension"
              }
            ]
          }
        ],
        "status": "active",
        "intent": "order",
        "code": {
          "coding": [
            {
              "code": "108252007",
              "system": "http://snomed.info/sct",
              "display": "Laboratory procedure"
            }
          ]
        },
        "subject": {
          "reference": "urn:uuid:0a801a0e-4d37-4f9c-8030-136238365776",
          "display": "Marthe Gallet"
        },
        "requester": {
          "reference": "urn:uuid:1ddc0912-0fa2-404a-a443-9681035928e8"
        }
      }
    },
    {
      "fullUrl": "urn:uuid:1ddc0912-0fa2-404a-a443-9681035928e8",
      "resource": {
        "resourceType": "PractitionerRole",
        "id": "1ddc0912-0fa2-404a-a443-9681035928e8",
        "meta": {
          "profile": [
            "http://hl7.eu/fhir/base/StructureDefinition/practitionerRole-eu"
          ]
        },
        "text": {
          "status": "generated",
          "div": "<div xmlns=\"http://www.w3.org/1999/xhtml\">Provider Role Id: 1ddc0912-0fa2-404a-a443-9681035928e8</div>"
        },
        "organization": {
          "reference": "urn:uuid:d845b909-ce0e-45b1-b5f5-cfa108166067"
        }
      }
    },
    {
      "fullUrl": "urn:uuid:d845b909-ce0e-45b1-b5f5-cfa108166067",
      "resource": {
        "resourceType": "Organization",
        "id": "d845b909-ce0e-45b1-b5f5-cfa108166067",
        "meta": {
          "profile": [
            "http://hl7.eu/fhir/base/StructureDefinition/organization-eu"
          ]
        },
        "identifier": [
          {
            "assigner": {
              "display": "HL7 Europe"
            },
            "system": "urn:oid:2.16.840.1.113883.2.51.999",
            "value": "c6e7f1b4-a204-4e2c-97fd-5dbf6003ef5a"
          }
        ],
        "address": [
          {
            "line": [
              "Rue Larrey nan"
            ],
            "city": "Angers",
            "postalCode": "49100",
            "country": "France"
          }
        ],
        "text": {
          "status": "generated",
          "div": "<div xmlns=\"http://www.w3.org/1999/xhtml\">Provider Organization: CHU d&#039;Angers</div>"
        },
        "name": "CHU d&#039;Angers"
      }
    },
    {
      "fullUrl": "urn:uuid:f0b0ad94-8d76-43b0-99e9-5b82457706f6",
      "resource": {
        "resourceType": "Specimen",
        "id": "f0b0ad94-8d76-43b0-99e9-5b82457706f6",
        "meta": {
          "profile": [
            "http://hl7.eu/fhir/laboratory/StructureDefinition/Specimen-eu-lab"
          ]
        },
        "collection": {
          "collectedDateTime": "2021-03-12"
        },
        "text": {
          "status": "generated",
          "div": "<div xmlns=\"http://www.w3.org/1999/xhtml\"><table class=\"hl7__eu__lab__report\"><tr><th>Specimen</th><th>Collection Date</th></tr><tr><td>Whole blood specimen (specimen)</td><td><span class=\"nb\">12-Mar-2021</span></td></tr></table></div>"
        },
        "type": {
          "coding": [
            {
              "code": "258580003",
              "system": "http://snomed.info/sct",
              "display": "Whole blood specimen (specimen)"
            }
          ]
        }
      }
    },
    {
      "fullUrl": "urn:uuid:b7e545e4-fb67-45ea-9c85-21f114cbcfdb",
      "resource": {
        "resourceType": "Specimen",
        "id": "b7e545e4-fb67-45ea-9c85-21f114cbcfdb",
        "meta": {
          "profile": [
            "http://hl7.eu/fhir/laboratory/StructureDefinition/Specimen-eu-lab"
          ]
        },
        "collection": {
          "collectedDateTime": "2021-03-12"
        },
        "text": {
          "status": "generated",
          "div": "<div xmlns=\"http://www.w3.org/1999/xhtml\"><table class=\"hl7__eu__lab__report\"><tr><th>Specimen</th><th>Collection Date</th></tr><tr><td>Acellular blood (serum or plasma) specimen</td><td><span class=\"nb\">12-Mar-2021</span></td></tr></table></div>"
        },
        "type": {
          "coding": [
            {
              "code": "122592007",
              "system": "http://snomed.info/sct",
              "display": "Acellular blood (serum or plasma) specimen"
            }
          ]
        }
      }
    },
    {
      "fullUrl": "urn:uuid:fb95035e-f971-4db8-a9e2-c89c830a08ee",
      "resource": {
        "resourceType": "Specimen",
        "id": "fb95035e-f971-4db8-a9e2-c89c830a08ee",
        "meta": {
          "profile": [
            "http://hl7.eu/fhir/laboratory/StructureDefinition/Specimen-eu-lab"
          ]
        },
        "collection": {
          "collectedDateTime": "2021-03-12"
        },
        "text": {
          "status": "generated",
          "div": "<div xmlns=\"http://www.w3.org/1999/xhtml\"><table class=\"hl7__eu__lab__report\"><tr><th>Specimen</th><th>Collection Date</th></tr><tr><td>Serum specimen</td><td><span class=\"nb\">12-Mar-2021</span></td></tr></table></div>"
        },
        "type": {
          "coding": [
            {
              "code": "119364003",
              "system": "http://snomed.info/sct",
              "display": "Serum specimen"
            }
          ]
        }
      }
    },
    {
      "fullUrl": "urn:uuid:3c8e02c0-b01f-4535-acbf-195dcc6975a5",
      "resource": {
        "resourceType": "Observation",
        "id": "3c8e02c0-b01f-4535-acbf-195dcc6975a5",
        "meta": {
          "profile": [
            "http://hl7.eu/fhir/laboratory/StructureDefinition/Observation-resultslab-eu-lab"
          ]
        },
        "performer": [
          {
            "display": "The Central European Lab"
          }
        ],
        "category": [
          {
            "coding": [
              {
                "system": "http://terminology.hl7.org/CodeSystem/observation-category",
                "code": "laboratory"
              }
            ]
          }
        ],
        "code": {
          "coding": [
            {
              "code": "2339-0",
              "system": "http://loinc.org",
              "display": "Glucose [Mass/volume] in Blood"
            }
          ],
          "text": "Glucose [Mass/volume] in Blood"
        },
        "valueQuantity": {
          "system": "http://unitsofmeasure.org",
          "value": 82.6,
          "unit": "mg/dL",
          "code": "mg/dL"
        },
        "referenceRange": [
          {
            "low": {
              "value": 70,
              "code": "mg/dL",
              "system": "http://unitsofmeasure.org"
            }
          },
          {
            "high": {
              "value": 99,
              "code": "mg/dL",
              "system": "http://unitsofmeasure.org"
            }
          }
        ],
        "text": {
          "status": "generated",
          "div": "<div xmlns=\"http://www.w3.org/1999/xhtml\"><table class=\"hl7__eu__lab__report\"><tr><th>Test</th><th>12-Mar-2021</th><th>Reference&#xA0;Range</th><th>Unit</th></tr><tr><td>Glucose [Mass/volume] in Blood</td><td>82.6</td><td>70 - 99</td><td></td><td>mg/dL</td></tr></table></div>"
        },
        "status": "final",
        "subject": {
          "reference": "urn:uuid:0a801a0e-4d37-4f9c-8030-136238365776",
          "display": "Marthe Gallet"
        },
        "effectiveDateTime": "2021-03-12T19:05:43Z",
        "specimen": {
          "reference": "urn:uuid:f0b0ad94-8d76-43b0-99e9-5b82457706f6"
        }
      }
    },
    {
      "fullUrl": "urn:uuid:faf4b2e1-15f9-4dce-b780-c87323e662db",
      "resource": {
        "resourceType": "Observation",
        "id": "faf4b2e1-15f9-4dce-b780-c87323e662db",
        "meta": {
          "profile": [
            "http://hl7.eu/fhir/laboratory/StructureDefinition/Observation-resultslab-eu-lab"
          ]
        },
        "performer": [
          {
            "display": "The Central European Lab"
          }
        ],
        "category": [
          {
            "coding": [
              {
                "system": "http://terminology.hl7.org/CodeSystem/observation-category",
                "code": "laboratory"
              }
            ]
          }
        ],
        "code": {
          "coding": [
            {
              "code": "6299-2",
              "system": "http://loinc.org",
              "display": "Urea nitrogen [Mass/volume] in Blood"
            }
          ],
          "text": "Urea nitrogen [Mass/volume] in Blood"
        },
        "valueQuantity": {
          "system": "http://unitsofmeasure.org",
          "value": 9.3,
          "unit": "mg/dL",
          "code": "mg/dL"
        },
        "referenceRange": [
          {
            "low": {
              "value": 7,
              "code": "mg/dL",
              "system": "http://unitsofmeasure.org"
            }
          },
          {
            "high": {
              "value": 45,
              "code": "mg/dL",
              "system": "http://unitsofmeasure.org"
            }
          }
        ],
        "text": {
          "status": "generated",
          "div": "<div xmlns=\"http://www.w3.org/1999/xhtml\"><table class=\"hl7__eu__lab__report\"><tr><th>Test</th><th>12-Mar-2021</th><th>Reference&#xA0;Range</th><th>Unit</th></tr><tr><td>Urea nitrogen [Mass/volume] in Blood</td><td>9.3</td><td>7 - 45</td><td></td><td>mg/dL</td></tr></table></div>"
        },
        "status": "final",
        "subject": {
          "reference": "urn:uuid:0a801a0e-4d37-4f9c-8030-136238365776",
          "display": "Marthe Gallet"
        },
        "effectiveDateTime": "2021-03-12T19:05:43Z",
        "specimen": {
          "reference": "urn:uuid:f0b0ad94-8d76-43b0-99e9-5b82457706f6"
        }
      }
    },
    {
      "fullUrl": "urn:uuid:edef2ea0-7f1b-4e81-a2d4-235f77d20bd7",
      "resource": {
        "resourceType": "Observation",
        "id": "edef2ea0-7f1b-4e81-a2d4-235f77d20bd7",
        "meta": {
          "profile": [
            "http://hl7.eu/fhir/laboratory/StructureDefinition/Observation-resultslab-eu-lab"
          ]
        },
        "performer": [
          {
            "display": "The Central European Lab"
          }
        ],
        "category": [
          {
            "coding": [
              {
                "system": "http://terminology.hl7.org/CodeSystem/observation-category",
                "code": "laboratory"
              }
            ]
          }
        ],
        "code": {
          "coding": [
            {
              "code": "38483-4",
              "system": "http://loinc.org",
              "display": "Creatinine [Mass/volume] in Blood"
            }
          ],
          "text": "Creatinine [Mass/volume] in Blood"
        },
        "valueQuantity": {
          "system": "http://unitsofmeasure.org",
          "value": 3.2,
          "unit": "mg/dL",
          "code": "mg/dL"
        },
        "referenceRange": [
          {
            "low": {
              "value": 0.6,
              "code": "mg/dL",
              "system": "http://unitsofmeasure.org"
            }
          },
          {
            "high": {
              "value": 1.1,
              "code": "mg/dL",
              "system": "http://unitsofmeasure.org"
            }
          }
        ],
        "interpretation": [
          {
            "coding": [
              {
                "code": "H",
                "system": "http://terminology.hl7.org/CodeSystem/v3-ObservationInterpretation",
                "display": "High"
              }
            ]
          }
        ],
        "text": {
          "status": "generated",
          "div": "<div xmlns=\"http://www.w3.org/1999/xhtml\"><table class=\"hl7__eu__lab__report\"><tr><th>Test</th><th>12-Mar-2021</th><th>Reference&#xA0;Range</th><th>Unit</th></tr><tr><td>Creatinine [Mass/volume] in Blood</td><td>3.2</td><td>0.6 - 1.1</td><td>H</td><td>mg/dL</td></tr></table></div>"
        },
        "status": "final",
        "subject": {
          "reference": "urn:uuid:0a801a0e-4d37-4f9c-8030-136238365776",
          "display": "Marthe Gallet"
        },
        "effectiveDateTime": "2021-03-12T19:05:43Z",
        "specimen": {
          "reference": "urn:uuid:f0b0ad94-8d76-43b0-99e9-5b82457706f6"
        }
      }
    },
    {
      "fullUrl": "urn:uuid:dcdf0d49-773a-4bc1-8c10-0b8470528cf5",
      "resource": {
        "resourceType": "Observation",
        "id": "dcdf0d49-773a-4bc1-8c10-0b8470528cf5",
        "meta": {
          "profile": [
            "http://hl7.eu/fhir/laboratory/StructureDefinition/Observation-resultslab-eu-lab"
          ]
        },
        "performer": [
          {
            "display": "The Central European Lab"
          }
        ],
        "category": [
          {
            "coding": [
              {
                "system": "http://terminology.hl7.org/CodeSystem/observation-category",
                "code": "laboratory"
              }
            ]
          }
        ],
        "code": {
          "coding": [
            {
              "code": "49765-1",
              "system": "http://loinc.org",
              "display": "Calcium [Mass/volume] in Blood"
            }
          ],
          "text": "Calcium [Mass/volume] in Blood"
        },
        "valueQuantity": {
          "system": "http://unitsofmeasure.org",
          "value": 9.4,
          "unit": "mg/dL",
          "code": "mg/dL"
        },
        "referenceRange": [
          {
            "low": {
              "value": 8.5,
              "code": "mg/dL",
              "system": "http://unitsofmeasure.org"
            }
          },
          {
            "high": {
              "value": 10.4,
              "code": "mg/dL",
              "system": "http://unitsofmeasure.org"
            }
          }
        ],
        "text": {
          "status": "generated",
          "div": "<div xmlns=\"http://www.w3.org/1999/xhtml\"><table class=\"hl7__eu__lab__report\"><tr><th>Test</th><th>12-Mar-2021</th><th>Reference&#xA0;Range</th><th>Unit</th></tr><tr><td>Calcium [Mass/volume] in Blood</td><td>9.4</td><td>8.5 - 10.4</td><td></td><td>mg/dL</td></tr></table></div>"
        },
        "status": "final",
        "subject": {
          "reference": "urn:uuid:0a801a0e-4d37-4f9c-8030-136238365776",
          "display": "Marthe Gallet"
        },
        "effectiveDateTime": "2021-03-12T19:05:43Z",
        "specimen": {
          "reference": "urn:uuid:f0b0ad94-8d76-43b0-99e9-5b82457706f6"
        }
      }
    },
    {
      "fullUrl": "urn:uuid:5c384da4-90a8-4efb-bb64-7120eb46cead",
      "resource": {
        "resourceType": "Observation",
        "id": "5c384da4-90a8-4efb-bb64-7120eb46cead",
        "meta": {
          "profile": [
            "http://hl7.eu/fhir/laboratory/StructureDefinition/Observation-resultslab-eu-lab"
          ]
        },
        "performer": [
          {
            "display": "The Central European Lab"
          }
        ],
        "category": [
          {
            "coding": [
              {
                "system": "http://terminology.hl7.org/CodeSystem/observation-category",
                "code": "laboratory"
              }
            ]
          }
        ],
        "code": {
          "coding": [
            {
              "code": "2947-0",
              "system": "http://loinc.org",
              "display": "Sodium [Moles/volume] in Blood"
            }
          ],
          "text": "Sodium [Moles/volume] in Blood"
        },
        "valueQuantity": {
          "system": "http://unitsofmeasure.org",
          "value": 138,
          "unit": "mmol/L",
          "code": "mmol/L"
        },
        "referenceRange": [
          {
            "low": {
              "value": 135,
              "code": "mmol/L",
              "system": "http://unitsofmeasure.org"
            }
          },
          {
            "high": {
              "value": 145,
              "code": "mmol/L",
              "system": "http://unitsofmeasure.org"
            }
          }
        ],
        "text": {
          "status": "generated",
          "div": "<div xmlns=\"http://www.w3.org/1999/xhtml\"><table class=\"hl7__eu__lab__report\"><tr><th>Test</th><th>12-Mar-2021</th><th>Reference&#xA0;Range</th><th>Unit</th></tr><tr><td>Sodium [Moles/volume] in Blood</td><td>138.0</td><td>135 - 145</td><td></td><td>mmol/L</td></tr></table></div>"
        },
        "status": "final",
        "subject": {
          "reference": "urn:uuid:0a801a0e-4d37-4f9c-8030-136238365776",
          "display": "Marthe Gallet"
        },
        "effectiveDateTime": "2021-03-12T19:05:43Z",
        "specimen": {
          "reference": "urn:uuid:f0b0ad94-8d76-43b0-99e9-5b82457706f6"
        }
      }
    },
    {
      "fullUrl": "urn:uuid:57d0faf9-7af1-4c32-bf9f-9c9a25655cb5",
      "resource": {
        "resourceType": "Observation",
        "id": "57d0faf9-7af1-4c32-bf9f-9c9a25655cb5",
        "meta": {
          "profile": [
            "http://hl7.eu/fhir/laboratory/StructureDefinition/Observation-resultslab-eu-lab"
          ]
        },
        "performer": [
          {
            "display": "The Central European Lab"
          }
        ],
        "category": [
          {
            "coding": [
              {
                "system": "http://terminology.hl7.org/CodeSystem/observation-category",
                "code": "laboratory"
              }
            ]
          }
        ],
        "code": {
          "coding": [
            {
              "code": "6298-4",
              "system": "http://loinc.org",
              "display": "Potassium [Moles/volume] in Blood"
            }
          ],
          "text": "Potassium [Moles/volume] in Blood"
        },
        "valueQuantity": {
          "system": "http://unitsofmeasure.org",
          "value": 4.6,
          "unit": "mmol/L",
          "code": "mmol/L"
        },
        "referenceRange": [
          {
            "low": {
              "value": 3.5,
              "code": "mmol/L",
              "system": "http://unitsofmeasure.org"
            }
          },
          {
            "high": {
              "value": 5.1,
              "code": "mmol/L",
              "system": "http://unitsofmeasure.org"
            }
          }
        ],
        "text": {
          "status": "generated",
          "div": "<div xmlns=\"http://www.w3.org/1999/xhtml\"><table class=\"hl7__eu__lab__report\"><tr><th>Test</th><th>12-Mar-2021</th><th>Reference&#xA0;Range</th><th>Unit</th></tr><tr><td>Potassium [Moles/volume] in Blood</td><td>4.6</td><td>3.5 - 5.1</td><td></td><td>mmol/L</td></tr></table></div>"
        },
        "status": "final",
        "subject": {
          "reference": "urn:uuid:0a801a0e-4d37-4f9c-8030-136238365776",
          "display": "Marthe Gallet"
        },
        "effectiveDateTime": "2021-03-12T19:05:43Z",
        "specimen": {
          "reference": "urn:uuid:f0b0ad94-8d76-43b0-99e9-5b82457706f6"
        }
      }
    },
    {
      "fullUrl": "urn:uuid:c2a81256-b40f-4b47-9fb5-c8fcb5deda19",
      "resource": {
        "resourceType": "Observation",
        "id": "c2a81256-b40f-4b47-9fb5-c8fcb5deda19",
        "meta": {
          "profile": [
            "http://hl7.eu/fhir/laboratory/StructureDefinition/Observation-resultslab-eu-lab"
          ]
        },
        "performer": [
          {
            "display": "The Central European Lab"
          }
        ],
        "category": [
          {
            "coding": [
              {
                "system": "http://terminology.hl7.org/CodeSystem/observation-category",
                "code": "laboratory"
              }
            ]
          }
        ],
        "code": {
          "coding": [
            {
              "code": "2069-3",
              "system": "http://loinc.org",
              "display": "Chloride [Moles/volume] in Blood"
            }
          ],
          "text": "Chloride [Moles/volume] in Blood"
        },
        "valueQuantity": {
          "system": "http://unitsofmeasure.org",
          "value": 101.1,
          "unit": "mmol/L",
          "code": "mmol/L"
        },
        "referenceRange": [
          {
            "low": {
              "value": 98,
              "code": "mmol/L",
              "system": "http://unitsofmeasure.org"
            }
          },
          {
            "high": {
              "value": 110,
              "code": "mmol/L",
              "system": "http://unitsofmeasure.org"
            }
          }
        ],
        "text": {
          "status": "generated",
          "div": "<div xmlns=\"http://www.w3.org/1999/xhtml\"><table class=\"hl7__eu__lab__report\"><tr><th>Test</th><th>12-Mar-2021</th><th>Reference&#xA0;Range</th><th>Unit</th></tr><tr><td>Chloride [Moles/volume] in Blood</td><td>101.1</td><td>98 - 110</td><td></td><td>mmol/L</td></tr></table></div>"
        },
        "status": "final",
        "subject": {
          "reference": "urn:uuid:0a801a0e-4d37-4f9c-8030-136238365776",
          "display": "Marthe Gallet"
        },
        "effectiveDateTime": "2021-03-12T19:05:43Z",
        "specimen": {
          "reference": "urn:uuid:f0b0ad94-8d76-43b0-99e9-5b82457706f6"
        }
      }
    },
    {
      "fullUrl": "urn:uuid:19a6cab7-ecd1-4389-b367-f0ec5b9615a0",
      "resource": {
        "resourceType": "Observation",
        "id": "19a6cab7-ecd1-4389-b367-f0ec5b9615a0",
        "meta": {
          "profile": [
            "http://hl7.eu/fhir/laboratory/StructureDefinition/Observation-resultslab-eu-lab"
          ]
        },
        "performer": [
          {
            "display": "The Central European Lab"
          }
        ],
        "category": [
          {
            "coding": [
              {
                "system": "http://terminology.hl7.org/CodeSystem/observation-category",
                "code": "laboratory"
              }
            ]
          }
        ],
        "code": {
          "coding": [
            {
              "code": "20565-8",
              "system": "http://loinc.org",
              "display": "Carbon dioxide, total [Moles/volume] in Blood"
            }
          ],
          "text": "Carbon dioxide, total [Moles/volume] in Blood"
        },
        "valueQuantity": {
          "system": "http://unitsofmeasure.org",
          "value": 25.3,
          "unit": "mmol/L",
          "code": "mmol/L"
        },
        "referenceRange": [
          {
            "low": {
              "value": 22,
              "code": "mmol/L",
              "system": "http://unitsofmeasure.org"
            }
          },
          {
            "high": {
              "value": 29,
              "code": "mmol/L",
              "system": "http://unitsofmeasure.org"
            }
          }
        ],
        "text": {
          "status": "generated",
          "div": "<div xmlns=\"http://www.w3.org/1999/xhtml\"><table class=\"hl7__eu__lab__report\"><tr><th>Test</th><th>12-Mar-2021</th><th>Reference&#xA0;Range</th><th>Unit</th></tr><tr><td>Carbon dioxide, total [Moles/volume] in Blood</td><td>25.3</td><td>22 - 29</td><td></td><td>mmol/L</td></tr></table></div>"
        },
        "status": "final",
        "subject": {
          "reference": "urn:uuid:0a801a0e-4d37-4f9c-8030-136238365776",
          "display": "Marthe Gallet"
        },
        "effectiveDateTime": "2021-03-12T19:05:43Z",
        "specimen": {
          "reference": "urn:uuid:f0b0ad94-8d76-43b0-99e9-5b82457706f6"
        }
      }
    },
    {
      "fullUrl": "urn:uuid:14f85ed7-acb7-4b1a-a3e6-12ecbab0331e",
      "resource": {
        "resourceType": "Observation",
        "id": "14f85ed7-acb7-4b1a-a3e6-12ecbab0331e",
        "meta": {
          "profile": [
            "http://hl7.eu/fhir/laboratory/StructureDefinition/Observation-resultslab-eu-lab"
          ]
        },
        "performer": [
          {
            "display": "The Central European Lab"
          }
        ],
        "category": [
          {
            "coding": [
              {
                "system": "http://terminology.hl7.org/CodeSystem/observation-category",
                "code": "laboratory"
              }
            ]
          }
        ],
        "code": {
          "coding": [
            {
              "code": "2885-2",
              "system": "http://loinc.org",
              "display": "Protein [Mass/volume] in Serum or Plasma"
            }
          ],
          "text": "Protein [Mass/volume] in Serum or Plasma"
        },
        "valueQuantity": {
          "system": "http://unitsofmeasure.org",
          "value": 6,
          "unit": "g/dL",
          "code": "g/dL"
        },
        "referenceRange": [
          {
            "low": {
              "value": 6,
              "code": "g/dL",
              "system": "http://unitsofmeasure.org"
            }
          },
          {
            "high": {
              "value": 8.3,
              "code": "g/dL",
              "system": "http://unitsofmeasure.org"
            }
          }
        ],
        "text": {
          "status": "generated",
          "div": "<div xmlns=\"http://www.w3.org/1999/xhtml\"><table class=\"hl7__eu__lab__report\"><tr><th>Test</th><th>12-Mar-2021</th><th>Reference&#xA0;Range</th><th>Unit</th></tr><tr><td>Protein [Mass/volume] in Serum or Plasma</td><td>6.0</td><td>6 - 8.3</td><td></td><td>g/dL</td></tr></table></div>"
        },
        "status": "final",
        "subject": {
          "reference": "urn:uuid:0a801a0e-4d37-4f9c-8030-136238365776",
          "display": "Marthe Gallet"
        },
        "effectiveDateTime": "2021-03-12T19:05:43Z",
        "specimen": {
          "reference": "urn:uuid:b7e545e4-fb67-45ea-9c85-21f114cbcfdb"
        }
      }
    },
    {
      "fullUrl": "urn:uuid:c3bd3fe3-5a09-47cd-b5d8-7c1f56aeda23",
      "resource": {
        "resourceType": "Observation",
        "id": "c3bd3fe3-5a09-47cd-b5d8-7c1f56aeda23",
        "meta": {
          "profile": [
            "http://hl7.eu/fhir/laboratory/StructureDefinition/Observation-resultslab-eu-lab"
          ]
        },
        "performer": [
          {
            "display": "The Central European Lab"
          }
        ],
        "category": [
          {
            "coding": [
              {
                "system": "http://terminology.hl7.org/CodeSystem/observation-category",
                "code": "laboratory"
              }
            ]
          }
        ],
        "code": {
          "coding": [
            {
              "code": "1751-7",
              "system": "http://loinc.org",
              "display": "Albumin [Mass/volume] in Serum or Plasma"
            }
          ],
          "text": "Albumin [Mass/volume] in Serum or Plasma"
        },
        "valueQuantity": {
          "system": "http://unitsofmeasure.org",
          "value": 4.6,
          "unit": "g/dL",
          "code": "g/dL"
        },
        "referenceRange": [
          {
            "low": {
              "value": 3.5,
              "code": "g/dL",
              "system": "http://unitsofmeasure.org"
            }
          },
          {
            "high": {
              "value": 5.5,
              "code": "g/dL",
              "system": "http://unitsofmeasure.org"
            }
          }
        ],
        "text": {
          "status": "generated",
          "div": "<div xmlns=\"http://www.w3.org/1999/xhtml\"><table class=\"hl7__eu__lab__report\"><tr><th>Test</th><th>12-Mar-2021</th><th>Reference&#xA0;Range</th><th>Unit</th></tr><tr><td>Albumin [Mass/volume] in Serum or Plasma</td><td>4.6</td><td>3.5 - 5.5</td><td></td><td>g/dL</td></tr></table></div>"
        },
        "status": "final",
        "subject": {
          "reference": "urn:uuid:0a801a0e-4d37-4f9c-8030-136238365776",
          "display": "Marthe Gallet"
        },
        "effectiveDateTime": "2021-03-12T19:05:43Z",
        "specimen": {
          "reference": "urn:uuid:b7e545e4-fb67-45ea-9c85-21f114cbcfdb"
        }
      }
    },
    {
      "fullUrl": "urn:uuid:dcfd11c3-76a2-4501-b14a-b9b454233722",
      "resource": {
        "resourceType": "Observation",
        "id": "dcfd11c3-76a2-4501-b14a-b9b454233722",
        "meta": {
          "profile": [
            "http://hl7.eu/fhir/laboratory/StructureDefinition/Observation-resultslab-eu-lab"
          ]
        },
        "performer": [
          {
            "display": "The Central European Lab"
          }
        ],
        "category": [
          {
            "coding": [
              {
                "system": "http://terminology.hl7.org/CodeSystem/observation-category",
                "code": "laboratory"
              }
            ]
          }
        ],
        "code": {
          "coding": [
            {
              "code": "10834-0",
              "system": "http://loinc.org",
              "display": "Globulin [Mass/volume] in Serum by calculation"
            }
          ],
          "text": "Globulin [Mass/volume] in Serum by calculation"
        },
        "valueQuantity": {
          "system": "http://unitsofmeasure.org",
          "value": 2.1,
          "unit": "g/L",
          "code": "g/L"
        },
        "referenceRange": [
          {
            "low": {
              "value": 2,
              "code": "g/L",
              "system": "http://unitsofmeasure.org"
            }
          },
          {
            "high": {
              "value": 3.5,
              "code": "g/L",
              "system": "http://unitsofmeasure.org"
            }
          }
        ],
        "text": {
          "status": "generated",
          "div": "<div xmlns=\"http://www.w3.org/1999/xhtml\"><table class=\"hl7__eu__lab__report\"><tr><th>Test</th><th>12-Mar-2021</th><th>Reference&#xA0;Range</th><th>Unit</th></tr><tr><td>Globulin [Mass/volume] in Serum by calculation</td><td>2.1</td><td>2 - 3.5</td><td></td><td>g/L</td></tr></table></div>"
        },
        "status": "final",
        "subject": {
          "reference": "urn:uuid:0a801a0e-4d37-4f9c-8030-136238365776",
          "display": "Marthe Gallet"
        },
        "effectiveDateTime": "2021-03-12T19:05:43Z",
        "specimen": {
          "reference": "urn:uuid:fb95035e-f971-4db8-a9e2-c89c830a08ee"
        }
      }
    },
    {
      "fullUrl": "urn:uuid:074b48d2-4998-46df-b9e1-6907494f66e0",
      "resource": {
        "resourceType": "Observation",
        "id": "074b48d2-4998-46df-b9e1-6907494f66e0",
        "meta": {
          "profile": [
            "http://hl7.eu/fhir/laboratory/StructureDefinition/Observation-resultslab-eu-lab"
          ]
        },
        "performer": [
          {
            "display": "The Central European Lab"
          }
        ],
        "category": [
          {
            "coding": [
              {
                "system": "http://terminology.hl7.org/CodeSystem/observation-category",
                "code": "laboratory"
              }
            ]
          }
        ],
        "code": {
          "coding": [
            {
              "code": "1975-2",
              "system": "http://loinc.org",
              "display": "Bilirubin.total [Mass/volume] in Serum or Plasma"
            }
          ],
          "text": "Bilirubin.total [Mass/volume] in Serum or Plasma"
        },
        "valueQuantity": {
          "system": "http://unitsofmeasure.org",
          "value": 0.2,
          "unit": "mg/dL",
          "code": "mg/dL"
        },
        "referenceRange": [
          {
            "low": {
              "value": 0.3,
              "code": "mg/dL",
              "system": "http://unitsofmeasure.org"
            }
          },
          {
            "high": {
              "value": 1.2,
              "code": "mg/dL",
              "system": "http://unitsofmeasure.org"
            }
          }
        ],
        "interpretation": [
          {
            "coding": [
              {
                "code": "L",
                "system": "http://terminology.hl7.org/CodeSystem/v3-ObservationInterpretation",
                "display": "Low"
              }
            ]
          }
        ],
        "text": {
          "status": "generated",
          "div": "<div xmlns=\"http://www.w3.org/1999/xhtml\"><table class=\"hl7__eu__lab__report\"><tr><th>Test</th><th>12-Mar-2021</th><th>Reference&#xA0;Range</th><th>Unit</th></tr><tr><td>Bilirubin.total [Mass/volume] in Serum or Plasma</td><td>0.2</td><td>0.3 - 1.2</td><td>L</td><td>mg/dL</td></tr></table></div>"
        },
        "status": "final",
        "subject": {
          "reference": "urn:uuid:0a801a0e-4d37-4f9c-8030-136238365776",
          "display": "Marthe Gallet"
        },
        "effectiveDateTime": "2021-03-12T19:05:43Z",
        "specimen": {
          "reference": "urn:uuid:b7e545e4-fb67-45ea-9c85-21f114cbcfdb"
        }
      }
    },
    {
      "fullUrl": "urn:uuid:2dab00b1-9f57-4b1d-a882-5ad6313202e2",
      "resource": {
        "resourceType": "Observation",
        "id": "2dab00b1-9f57-4b1d-a882-5ad6313202e2",
        "meta": {
          "profile": [
            "http://hl7.eu/fhir/laboratory/StructureDefinition/Observation-resultslab-eu-lab"
          ]
        },
        "performer": [
          {
            "display": "The Central European Lab"
          }
        ],
        "category": [
          {
            "coding": [
              {
                "system": "http://terminology.hl7.org/CodeSystem/observation-category",
                "code": "laboratory"
              }
            ]
          }
        ],
        "code": {
          "coding": [
            {
              "code": "6768-6",
              "system": "http://loinc.org",
              "display": "Alkaline phosphatase [Enzymatic activity/volume] in Serum or Plasma"
            }
          ],
          "text": "Alkaline phosphatase [Enzymatic activity/volume] in Serum or Plasma"
        },
        "valueQuantity": {
          "system": "http://unitsofmeasure.org",
          "value": 110.9,
          "unit": "U/L",
          "code": "U/L"
        },
        "referenceRange": [
          {
            "low": {
              "value": 44,
              "code": "U/L",
              "system": "http://unitsofmeasure.org"
            }
          },
          {
            "high": {
              "value": 130,
              "code": "U/L",
              "system": "http://unitsofmeasure.org"
            }
          }
        ],
        "text": {
          "status": "generated",
          "div": "<div xmlns=\"http://www.w3.org/1999/xhtml\"><table class=\"hl7__eu__lab__report\"><tr><th>Test</th><th>12-Mar-2021</th><th>Reference&#xA0;Range</th><th>Unit</th></tr><tr><td>Alkaline phosphatase [Enzymatic activity/volume] in Serum or Plasma</td><td>110.9</td><td>44 - 130</td><td></td><td>U/L</td></tr></table></div>"
        },
        "status": "final",
        "subject": {
          "reference": "urn:uuid:0a801a0e-4d37-4f9c-8030-136238365776",
          "display": "Marthe Gallet"
        },
        "effectiveDateTime": "2021-03-12T19:05:43Z",
        "specimen": {
          "reference": "urn:uuid:b7e545e4-fb67-45ea-9c85-21f114cbcfdb"
        }
      }
    },
    {
      "fullUrl": "urn:uuid:a55f03eb-1982-4a55-8675-460166c346e4",
      "resource": {
        "resourceType": "Observation",
        "id": "a55f03eb-1982-4a55-8675-460166c346e4",
        "meta": {
          "profile": [
            "http://hl7.eu/fhir/laboratory/StructureDefinition/Observation-resultslab-eu-lab"
          ]
        },
        "performer": [
          {
            "display": "The Central European Lab"
          }
        ],
        "category": [
          {
            "coding": [
              {
                "system": "http://terminology.hl7.org/CodeSystem/observation-category",
                "code": "laboratory"
              }
            ]
          }
        ],
        "code": {
          "coding": [
            {
              "code": "1742-6",
              "system": "http://loinc.org",
              "display": "Alanine aminotransferase [Enzymatic activity/volume] in Serum or Plasma"
            }
          ],
          "text": "Alanine aminotransferase [Enzymatic activity/volume] in Serum or Plasma"
        },
        "valueQuantity": {
          "system": "http://unitsofmeasure.org",
          "value": 23.7,
          "unit": "U/L",
          "code": "U/L"
        },
        "referenceRange": [
          {
            "low": {
              "value": 7,
              "code": "U/L",
              "system": "http://unitsofmeasure.org"
            }
          },
          {
            "high": {
              "value": 33,
              "code": "U/L",
              "system": "http://unitsofmeasure.org"
            }
          }
        ],
        "text": {
          "status": "generated",
          "div": "<div xmlns=\"http://www.w3.org/1999/xhtml\"><table class=\"hl7__eu__lab__report\"><tr><th>Test</th><th>12-Mar-2021</th><th>Reference&#xA0;Range</th><th>Unit</th></tr><tr><td>Alanine aminotransferase [Enzymatic activity/volume] in Serum or Plasma</td><td>23.7</td><td>7 - 33</td><td></td><td>U/L</td></tr></table></div>"
        },
        "status": "final",
        "subject": {
          "reference": "urn:uuid:0a801a0e-4d37-4f9c-8030-136238365776",
          "display": "Marthe Gallet"
        },
        "effectiveDateTime": "2021-03-12T19:05:43Z",
        "specimen": {
          "reference": "urn:uuid:b7e545e4-fb67-45ea-9c85-21f114cbcfdb"
        }
      }
    },
    {
      "fullUrl": "urn:uuid:b1e2b4bf-c5ea-4058-9041-161f897d5b67",
      "resource": {
        "resourceType": "Observation",
        "id": "b1e2b4bf-c5ea-4058-9041-161f897d5b67",
        "meta": {
          "profile": [
            "http://hl7.eu/fhir/laboratory/StructureDefinition/Observation-resultslab-eu-lab"
          ]
        },
        "performer": [
          {
            "display": "The Central European Lab"
          }
        ],
        "category": [
          {
            "coding": [
              {
                "system": "http://terminology.hl7.org/CodeSystem/observation-category",
                "code": "laboratory"
              }
            ]
          }
        ],
        "code": {
          "coding": [
            {
              "code": "1920-8",
              "system": "http://loinc.org",
              "display": "Aspartate aminotransferase [Enzymatic activity/volume] in Serum or Plasma"
            }
          ],
          "text": "Aspartate aminotransferase [Enzymatic activity/volume] in Serum or Plasma"
        },
        "valueQuantity": {
          "system": "http://unitsofmeasure.org",
          "value": 24.3,
          "unit": "U/L",
          "code": "U/L"
        },
        "referenceRange": [
          {
            "low": {
              "value": 10,
              "code": "U/L",
              "system": "http://unitsofmeasure.org"
            }
          },
          {
            "high": {
              "value": 40,
              "code": "U/L",
              "system": "http://unitsofmeasure.org"
            }
          }
        ],
        "text": {
          "status": "generated",
          "div": "<div xmlns=\"http://www.w3.org/1999/xhtml\"><table class=\"hl7__eu__lab__report\"><tr><th>Test</th><th>12-Mar-2021</th><th>Reference&#xA0;Range</th><th>Unit</th></tr><tr><td>Aspartate aminotransferase [Enzymatic activity/volume] in Serum or Plasma</td><td>24.3</td><td>10 - 40</td><td></td><td>U/L</td></tr></table></div>"
        },
        "status": "final",
        "subject": {
          "reference": "urn:uuid:0a801a0e-4d37-4f9c-8030-136238365776",
          "display": "Marthe Gallet"
        },
        "effectiveDateTime": "2021-03-12T19:05:43Z",
        "specimen": {
          "reference": "urn:uuid:b7e545e4-fb67-45ea-9c85-21f114cbcfdb"
        }
      }
    },
    {
      "fullUrl": "urn:uuid:da19736b-589f-4ddf-8578-cc2ac9ace29d",
      "resource": {
        "resourceType": "Observation",
        "id": "da19736b-589f-4ddf-8578-cc2ac9ace29d",
        "meta": {
          "profile": [
            "http://hl7.eu/fhir/laboratory/StructureDefinition/Observation-resultslab-eu-lab"
          ]
        },
        "performer": [
          {
            "display": "The Central European Lab"
          }
        ],
        "category": [
          {
            "coding": [
              {
                "system": "http://terminology.hl7.org/CodeSystem/observation-category",
                "code": "laboratory"
              }
            ]
          }
        ],
        "code": {
          "coding": [
            {
              "code": "2093-3",
              "system": "http://loinc.org",
              "display": "Cholesterol [Mass/volume] in Serum or Plasma"
            }
          ],
          "text": "Cholesterol [Mass/volume] in Serum or Plasma"
        },
        "valueQuantity": {
          "system": "http://unitsofmeasure.org",
          "value": 178.2,
          "unit": "mg/dL",
          "code": "mg/dL"
        },
        "referenceRange": [
          {
            "low": {
              "value": 125,
              "code": "mg/dL",
              "system": "http://unitsofmeasure.org"
            }
          },
          {
            "high": {
              "value": 200,
              "code": "mg/dL",
              "system": "http://unitsofmeasure.org"
            }
          }
        ],
        "text": {
          "status": "generated",
          "div": "<div xmlns=\"http://www.w3.org/1999/xhtml\"><table class=\"hl7__eu__lab__report\"><tr><th>Test</th><th>12-Mar-2021</th><th>Reference&#xA0;Range</th><th>Unit</th></tr><tr><td>Cholesterol [Mass/volume] in Serum or Plasma</td><td>178.2</td><td>125 - 200</td><td></td><td>mg/dL</td></tr></table></div>"
        },
        "status": "final",
        "subject": {
          "reference": "urn:uuid:0a801a0e-4d37-4f9c-8030-136238365776",
          "display": "Marthe Gallet"
        },
        "effectiveDateTime": "2021-03-12T19:05:43Z",
        "specimen": {
          "reference": "urn:uuid:b7e545e4-fb67-45ea-9c85-21f114cbcfdb"
        }
      }
    },
    {
      "fullUrl": "urn:uuid:45f96dc5-f51d-4319-b8e8-e34cfd392944",
      "resource": {
        "resourceType": "Observation",
        "id": "45f96dc5-f51d-4319-b8e8-e34cfd392944",
        "meta": {
          "profile": [
            "http://hl7.eu/fhir/laboratory/StructureDefinition/Observation-resultslab-eu-lab"
          ]
        },
        "performer": [
          {
            "display": "The Central European Lab"
          }
        ],
        "category": [
          {
            "coding": [
              {
                "system": "http://terminology.hl7.org/CodeSystem/observation-category",
                "code": "laboratory"
              }
            ]
          }
        ],
        "code": {
          "coding": [
            {
              "code": "2571-8",
              "system": "http://loinc.org",
              "display": "Triglyceride [Mass/volume] in Serum or Plasma"
            }
          ],
          "text": "Triglyceride [Mass/volume] in Serum or Plasma"
        },
        "valueQuantity": {
          "system": "http://unitsofmeasure.org",
          "value": 138.8,
          "unit": "mg/dL",
          "code": "mg/dL"
        },
        "referenceRange": [
          {
            "low": {
              "value": 10,
              "code": "mg/dL",
              "system": "http://unitsofmeasure.org"
            }
          },
          {
            "high": {
              "value": 175,
              "code": "mg/dL",
              "system": "http://unitsofmeasure.org"
            }
          }
        ],
        "text": {
          "status": "generated",
          "div": "<div xmlns=\"http://www.w3.org/1999/xhtml\"><table class=\"hl7__eu__lab__report\"><tr><th>Test</th><th>12-Mar-2021</th><th>Reference&#xA0;Range</th><th>Unit</th></tr><tr><td>Triglyceride [Mass/volume] in Serum or Plasma</td><td>138.8</td><td>10 - 175</td><td></td><td>mg/dL</td></tr></table></div>"
        },
        "status": "final",
        "subject": {
          "reference": "urn:uuid:0a801a0e-4d37-4f9c-8030-136238365776",
          "display": "Marthe Gallet"
        },
        "effectiveDateTime": "2021-03-12T19:05:43Z",
        "specimen": {
          "reference": "urn:uuid:b7e545e4-fb67-45ea-9c85-21f114cbcfdb"
        }
      }
    },
    {
      "fullUrl": "urn:uuid:7783c01f-1783-4c96-8ca0-94b7cf96f07d",
      "resource": {
        "resourceType": "Observation",
        "id": "7783c01f-1783-4c96-8ca0-94b7cf96f07d",
        "meta": {
          "profile": [
            "http://hl7.eu/fhir/laboratory/StructureDefinition/Observation-resultslab-eu-lab"
          ]
        },
        "performer": [
          {
            "display": "The Central European Lab"
          }
        ],
        "category": [
          {
            "coding": [
              {
                "system": "http://terminology.hl7.org/CodeSystem/observation-category",
                "code": "laboratory"
              }
            ]
          }
        ],
        "code": {
          "coding": [
            {
              "code": "18262-6",
              "system": "http://loinc.org",
              "display": "Cholesterol in LDL [Mass/volume] in Serum or Plasma by Direct assay"
            }
          ],
          "text": "Cholesterol in LDL [Mass/volume] in Serum or Plasma by Direct assay"
        },
        "valueQuantity": {
          "system": "http://unitsofmeasure.org",
          "value": 96.5,
          "unit": "mg/dL",
          "code": "mg/dL"
        },
        "referenceRange": [
          {
            "low": {
              "value": 0,
              "code": "mg/dL",
              "system": "http://unitsofmeasure.org"
            }
          },
          {
            "high": {
              "value": 130,
              "code": "mg/dL",
              "system": "http://unitsofmeasure.org"
            }
          }
        ],
        "text": {
          "status": "generated",
          "div": "<div xmlns=\"http://www.w3.org/1999/xhtml\"><table class=\"hl7__eu__lab__report\"><tr><th>Test</th><th>12-Mar-2021</th><th>Reference&#xA0;Range</th><th>Unit</th></tr><tr><td>Cholesterol in LDL [Mass/volume] in Serum or Plasma by Direct assay</td><td>96.5</td><td>0 - 130</td><td></td><td>mg/dL</td></tr></table></div>"
        },
        "status": "final",
        "subject": {
          "reference": "urn:uuid:0a801a0e-4d37-4f9c-8030-136238365776",
          "display": "Marthe Gallet"
        },
        "effectiveDateTime": "2021-03-12T19:05:43Z",
        "specimen": {
          "reference": "urn:uuid:b7e545e4-fb67-45ea-9c85-21f114cbcfdb"
        }
      }
    },
    {
      "fullUrl": "urn:uuid:65039d9e-9948-4ae8-8bc6-7721840b9785",
      "resource": {
        "resourceType": "Observation",
        "id": "65039d9e-9948-4ae8-8bc6-7721840b9785",
        "meta": {
          "profile": [
            "http://hl7.eu/fhir/laboratory/StructureDefinition/Observation-resultslab-eu-lab"
          ]
        },
        "performer": [
          {
            "display": "The Central European Lab"
          }
        ],
        "category": [
          {
            "coding": [
              {
                "system": "http://terminology.hl7.org/CodeSystem/observation-category",
                "code": "laboratory"
              }
            ]
          }
        ],
        "code": {
          "coding": [
            {
              "code": "2085-9",
              "system": "http://loinc.org",
              "display": "Cholesterol in HDL [Mass/volume] in Serum or Plasma"
            }
          ],
          "text": "Cholesterol in HDL [Mass/volume] in Serum or Plasma"
        },
        "valueQuantity": {
          "system": "http://unitsofmeasure.org",
          "value": 57.5,
          "unit": "mg/dL",
          "code": "mg/dL"
        },
        "referenceRange": [
          {
            "low": {
              "value": 40,
              "code": "mg/dL",
              "system": "http://unitsofmeasure.org"
            }
          },
          {
            "high": {
              "value": 100,
              "code": "mg/dL",
              "system": "http://unitsofmeasure.org"
            }
          }
        ],
        "text": {
          "status": "generated",
          "div": "<div xmlns=\"http://www.w3.org/1999/xhtml\"><table class=\"hl7__eu__lab__report\"><tr><th>Test</th><th>12-Mar-2021</th><th>Reference&#xA0;Range</th><th>Unit</th></tr><tr><td>Cholesterol in HDL [Mass/volume] in Serum or Plasma</td><td>57.5</td><td>40 - 100</td><td></td><td>mg/dL</td></tr></table></div>"
        },
        "status": "final",
        "subject": {
          "reference": "urn:uuid:0a801a0e-4d37-4f9c-8030-136238365776",
          "display": "Marthe Gallet"
        },
        "effectiveDateTime": "2021-03-12T19:05:43Z",
        "specimen": {
          "reference": "urn:uuid:b7e545e4-fb67-45ea-9c85-21f114cbcfdb"
        }
      }
    },
    {
      "fullUrl": "urn:uuid:dc7958fd-2ba8-42cf-bbae-46957de2a554",
      "resource": {
        "resourceType": "Device",
        "id": "dc7958fd-2ba8-42cf-bbae-46957de2a554",
        "deviceName": [
          {
            "name": "SYNDERAI Synthetic Generator",
            "type": "manufacturer-name"
          }
        ],
        "version": [
          {
            "value": "5.0"
          }
        ],
        "text": {
          "status": "generated",
          "div": "<div xmlns=\"http://www.w3.org/1999/xhtml\">SYNDERAI Synthetic Generator v5.0</div>"
        },
        "status": "active\"",
        "distinctIdentifier": "synderai-generator-50",
        "manufacturer": "SYNDERAI Project"
      }
    },
    {
      "fullUrl": "urn:uuid:6abfbbcf-5537-489e-86d6-04b57d3f61be",
      "resource": {
        "resourceType": "Provenance",
        "id": "6abfbbcf-5537-489e-86d6-04b57d3f61be",
        "target": [
          {
            "reference": "Patient/0a801a0e-4d37-4f9c-8030-136238365776"
          },
          {
            "reference": "Bundle/8c34625f-6b2a-44ba-bef3-9e629fd674ed"
          },
          {
            "reference": "Composition/87167f27-0928-4e80-a1c1-b8453edffb7b"
          },
          {
            "reference": "PractitionerRole/3a1220b6-db99-45d3-826d-aa9fc2dbb018"
          },
          {
            "reference": "Practitioner/1fff1b5d-54a5-4be1-a2cb-334022df92c5"
          },
          {
            "reference": "PractitionerRole/1ddc0912-0fa2-404a-a443-9681035928e8"
          },
          {
            "reference": "Organization/d845b909-ce0e-45b1-b5f5-cfa108166067"
          }
        ],
        "activity": {
          "text": "Synthetic Example Data Generation"
        },
        "policy": [
          "https://synderai.net/synderai-synthetic-data-policy"
        ],
        "agent": [
          {
            "type": {
              "text": "author"
            },
            "who": {
              "reference": "Device/dc7958fd-2ba8-42cf-bbae-46957de2a554"
            }
          }
        ],
        "reason": [
          {
            "text": "Interoperability Testing and Training (non-clinical use)"
          }
        ],
        "text": {
          "status": "generated",
          "div": "<div xmlns=\"http://www.w3.org/1999/xhtml\">Provenance for SYNDERAI Synthetic Example Data Resource</div>"
        },
        "recorded": "2021-03-12T20:05:43Z"
      }
    },
    {
      "fullUrl": "urn:uuid:3a1220b6-db99-45d3-826d-aa9fc2dbb018",
      "resource": {
        "resourceType": "PractitionerRole",
        "id": "3a1220b6-db99-45d3-826d-aa9fc2dbb018",
        "meta": {
          "profile": [
            "http://hl7.eu/fhir/base/StructureDefinition/practitionerRole-eu"
          ]
        },
        "text": {
          "status": "generated",
          "div": "<div xmlns=\"http://www.w3.org/1999/xhtml\">Laboratory Role Id: 3a1220b6-db99-45d3-826d-aa9fc2dbb018</div>"
        },
        "practitioner": {
          "reference": "urn:uuid:1fff1b5d-54a5-4be1-a2cb-334022df92c5"
        }
      }
    },
    {
      "fullUrl": "urn:uuid:1fff1b5d-54a5-4be1-a2cb-334022df92c5",
      "resource": {
        "resourceType": "Practitioner",
        "id": "1fff1b5d-54a5-4be1-a2cb-334022df92c5",
        "meta": {
          "profile": [
            "http://hl7.eu/fhir/base/StructureDefinition/practitioner-eu"
          ]
        },
        "identifier": [
          {
            "assigner": {
              "display": "HL7 Europe"
            },
            "system": "urn:oid:2.16.840.1.113883.2.51.999",
            "value": "8505955f-860b-4352-a8a2-98d28e1dad37"
          }
        ],
        "name": [
          {
            "prefix": [
              "dr"
            ],
            "given": [
              "Ex"
            ],
            "family": "Ample"
          }
        ],
        "address": [
          {
            "line": [
              "Laboratoire Central Europenne",
              "Boulevard du Jardin Botanique 32"
            ],
            "postalCode": "1000",
            "city": "Brussels",
            "country": "Belgium"
          }
        ],
        "text": {
          "status": "generated",
          "div": "<div xmlns=\"http://www.w3.org/1999/xhtml\">Laboratory: Laboratoire Central Europenne, 1000 Brussels, Belgium</div>"
        }
      }
    }
  ],
  "type": "document",
  "timestamp": "2021-03-12T20:05:43Z"
}
