{
  "resourceType": "Bundle",
  "id": "efee68f4-99a7-4bc1-8c75-e6545e454be6",
  "meta": {
    "profile": [
      "http://hl7.eu/fhir/laboratory/StructureDefinition/Bundle-eu-lab"
    ]
  },
  "identifier": {
    "assigner": {
      "display": "HL7 Europe"
    },
    "system": "urn:oid:2.16.840.1.113883.2.51.999",
    "value": "398dba39-8341-4ee9-9d02-f68c6be05bb9"
  },
  "entry": [
    {
      "fullUrl": "urn:uuid:619fb801-ad82-4f4b-b717-3567242cea87",
      "resource": {
        "resourceType": "Composition",
        "id": "619fb801-ad82-4f4b-b717-3567242cea87",
        "meta": {
          "profile": [
            "http://hl7.eu/fhir/laboratory/StructureDefinition/Composition-eu-lab"
          ]
        },
        "identifier": {
          "assigner": {
            "display": "HL7 Europe"
          },
          "system": "urn:oid:2.16.840.1.113883.2.51.999",
          "value": "1e8f2a34-988b-4053-84b3-ed83ef2d2419"
        },
        "author": [
          {
            "reference": "urn:uuid:721418cc-aadb-4ac9-bd57-9a294cfd093e"
          }
        ],
        "category": [
          {
            "coding": [
              {
                "code": "26436-6",
                "system": "http://loinc.org",
                "display": "Laboratory studies (set)"
              }
            ]
          }
        ],
        "type": {
          "coding": [
            {
              "code": "11502-2",
              "system": "http://loinc.org",
              "display": "Laboratory report"
            }
          ],
          "text": "Laboratory Report"
        },
        "section": [
          {
            "code": {
              "coding": [
                {
                  "code": "26436-6",
                  "system": "http://loinc.org",
                  "display": "Laboratory studies (set)"
                }
              ],
              "text": "Laboratory studies"
            },
            "section": [
              {
                "code": {
                  "coding": [
                    {
                      "code": "$18719-5",
                      "system": "http://loinc.org",
                      "display": "Chemistry studies (set)"
                    }
                  ],
                  "text": "Chemistry"
                },
                "entry": [
                  {
                    "reference": "urn:uuid:b8495d4a-e258-49dd-8f81-481137cb8eac"
                  },
                  {
                    "reference": "urn:uuid:c9d97135-a103-4cff-a256-b7ed1bfa000a"
                  },
                  {
                    "reference": "urn:uuid:2896a490-598b-4fbc-a79e-d373ed9df014"
                  },
                  {
                    "reference": "urn:uuid:73151ddb-68ef-4b6c-8330-3dfc53cb3cc8"
                  },
                  {
                    "reference": "urn:uuid:bc63c325-2c01-43f6-804e-3ecac108b0e0"
                  },
                  {
                    "reference": "urn:uuid:236ccd4f-eca3-484c-84d2-217c1cba603a"
                  },
                  {
                    "reference": "urn:uuid:de575af8-4760-4b9f-a70e-d41e1db2172c"
                  },
                  {
                    "reference": "urn:uuid:f9c0093d-2ecf-4bdd-a683-1745027837f8"
                  },
                  {
                    "reference": "urn:uuid:2d66a5d4-3eec-4006-bfc9-85c372c07c54"
                  },
                  {
                    "reference": "urn:uuid:2bdb437b-74ae-48f9-b7ad-e9d83fea43e4"
                  },
                  {
                    "reference": "urn:uuid:52a4a33f-6b55-4267-beb6-751df3bfcf50"
                  },
                  {
                    "reference": "urn:uuid:f4fde313-6962-4e86-9bb5-86d68560e203"
                  },
                  {
                    "reference": "urn:uuid:61deef89-f1d5-48ac-8243-75c263a4639e"
                  },
                  {
                    "reference": "urn:uuid:5342f999-4cad-4dfd-9754-542f6307036d"
                  },
                  {
                    "reference": "urn:uuid:7da49cc7-ae8f-4a83-8d20-360472e6a8f9"
                  },
                  {
                    "reference": "urn:uuid:70f3dbac-916a-4db9-9ee1-c2f84884e92f"
                  },
                  {
                    "reference": "urn:uuid:374e848b-2584-4b02-bb57-1a12de059818"
                  },
                  {
                    "reference": "urn:uuid:dc078af7-8ca0-4a72-bbea-ea127c2c698d"
                  },
                  {
                    "reference": "urn:uuid:7f2498d5-3992-4579-8833-121fe1f54150"
                  }
                ],
                "text": {
                  "status": "generated",
                  "div": "<div xmlns=\"http://www.w3.org/1999/xhtml\"><h3>Chemistry</h3><table class=\"hl7__eu__lab__report\"><thead><tr><th>Test</th><th>29-MAR-2023</th><th>Reference&#xA0;Range</th><th>Unit</th></tr></thead><tbody><tr><td>Glucose [Mass/volume] in Blood</td><td><strong>68.6 L</strong></td><td>70 - 140</td><td>mg/dL</td></tr><tr><td>Urea nitrogen [Mass/volume] in Blood</td><td>13.8</td><td>7 - 20</td><td>mg/dL</td></tr><tr><td>Creatinine [Mass/volume] in Blood</td><td><strong>2.8 H</strong></td><td>0.5 - 1.3</td><td>mg/dL</td></tr><tr><td>Calcium [Mass/volume] in Blood</td><td>8.9</td><td>8.5 - 10.5</td><td>mg/dL</td></tr><tr><td>Sodium [Moles/volume] in Blood</td><td>140.6</td><td>135 - 145</td><td>mmol/L</td></tr><tr><td>Potassium [Moles/volume] in Blood</td><td>4.5</td><td>3.5 - 5.1</td><td>mmol/L</td></tr><tr><td>Chloride [Moles/volume] in Blood</td><td>101.7</td><td>98 - 108</td><td>mmol/L</td></tr><tr><td>Carbon dioxide, total [Moles/volume] in Blood</td><td>25.5</td><td>22 - 29</td><td>mmol/L</td></tr><tr><td>Protein [Mass/volume] in Serum or Plasma</td><td>6.0</td><td>6 - 8.2</td><td>g/dL</td></tr><tr><td>Albumin [Mass/volume] in Serum or Plasma</td><td>4.8</td><td>3.5 - 5</td><td>g/dL</td></tr><tr><td>Globulin [Mass/volume] in Serum by calculation</td><td>3.0</td><td>2 - 4</td><td>g/L</td></tr><tr><td>Bilirubin.total [Mass/volume] in Serum or Plasma</td><td><strong>0.2 L</strong></td><td>0.3 - 1.2</td><td>mg/dL</td></tr><tr><td>Alkaline phosphatase [Enzymatic activity/volume] in Serum or Plasma</td><td>126.6</td><td>35 - 141</td><td>U/L</td></tr><tr><td>Alanine aminotransferase [Enzymatic activity/volume] in Serum or Plasma</td><td>52.0</td><td>7 - 60</td><td>U/L</td></tr><tr><td>Aspartate aminotransferase [Enzymatic activity/volume] in Serum or Plasma</td><td>16.1</td><td>10 - 40</td><td>U/L</td></tr><tr><td>Cholesterol [Mass/volume] in Serum or Plasma</td><td>156.0</td><td>0 - 200</td><td>mg/dL</td></tr><tr><td>Triglyceride [Mass/volume] in Serum or Plasma</td><td>137.2</td><td>0 - 199</td><td>mg/dL</td></tr><tr><td>Cholesterol in LDL [Mass/volume] in Serum or Plasma by Direct assay</td><td>103.8</td><td>0 - 130</td><td>mg/dL</td></tr><tr><td>Cholesterol in HDL [Mass/volume] in Serum or Plasma</td><td><strong>33.1 L</strong></td><td>46 - 77</td><td>mg/dL</td></tr></tbody></table></div>"
                },
                "title": "Chemistry"
              }
            ],
            "title": "Laboratory Report"
          },
          {
            "text": {
              "status": "generated",
              "div": "<div xmlns=\"http://www.w3.org/1999/xhtml\"><h3>Annotation</h3><table class=\"hl7__eu__lab__report\"><tr><th>Conclusion and Recommendations based on this report and previous findings known to us</th></tr><tr><td>The patient shows mild hypoglycemia, elevated creatinine suggesting impaired renal function, and low HDL cholesterol, which increases cardiovascular risk. Other parameters, including liver enzymes, electrolytes, and proteins, are within normal limits. Close monitoring of renal function and glucose, as well as cardiovascular risk management, is recommended.</td></tr></table></div>"
            },
            "code": {
              "coding": [
                {
                  "system": "http://loinc.org",
                  "code": "48767-8",
                  "display": "Annotation comment"
                }
              ]
            },
            "title": "Annotation comment"
          }
        ],
        "status": "final",
        "subject": {
          "reference": "urn:uuid:4a887f88-638d-4846-b591-ba9f6e414ed2",
          "display": "Marlene Gerlach"
        },
        "date": "2023-03-29T21:24:33Z",
        "title": "Laboratory Report",
        "confidentiality": "N"
      }
    },
    {
      "fullUrl": "urn:uuid:650be438-a26c-42e8-b011-f79e4d8c7a10",
      "resource": {
        "resourceType": "DiagnosticReport",
        "id": "650be438-a26c-42e8-b011-f79e4d8c7a10",
        "meta": {
          "profile": [
            "http://hl7.eu/fhir/laboratory/StructureDefinition/DiagnosticReport-eu-lab"
          ]
        },
        "identifier": [
          {
            "assigner": {
              "display": "HL7 Europe"
            },
            "system": "urn:oid:2.16.840.1.113883.2.51.999",
            "value": "4ddadfef-3a75-41e5-b9f2-42dd7f020cd4"
          }
        ],
        "extension": [
          {
            "url": "http://hl7.org/fhir/5.0/StructureDefinition/extension-DiagnosticReport.composition",
            "valueReference": {
              "reference": "urn:uuid:1e8f2a34-988b-4053-84b3-ed83ef2d2419"
            }
          }
        ],
        "category": [
          {
            "coding": [
              {
                "code": "26436-6",
                "system": "http://loinc.org",
                "display": "Laboratory studies (set)"
              }
            ]
          }
        ],
        "specimen": [
          {
            "reference": "urn:uuid:b7d6e749-c0d0-4dab-b5d1-714c9364db75"
          },
          {
            "reference": "urn:uuid:fe7b9bcc-d5d2-4d8e-9f79-644e5b080485"
          },
          {
            "reference": "urn:uuid:43611fd2-f28b-4309-8b0d-79ed4c16990b"
          }
        ],
        "result": [
          {
            "reference": "urn:uuid:b8495d4a-e258-49dd-8f81-481137cb8eac"
          },
          {
            "reference": "urn:uuid:c9d97135-a103-4cff-a256-b7ed1bfa000a"
          },
          {
            "reference": "urn:uuid:2896a490-598b-4fbc-a79e-d373ed9df014"
          },
          {
            "reference": "urn:uuid:73151ddb-68ef-4b6c-8330-3dfc53cb3cc8"
          },
          {
            "reference": "urn:uuid:bc63c325-2c01-43f6-804e-3ecac108b0e0"
          },
          {
            "reference": "urn:uuid:236ccd4f-eca3-484c-84d2-217c1cba603a"
          },
          {
            "reference": "urn:uuid:de575af8-4760-4b9f-a70e-d41e1db2172c"
          },
          {
            "reference": "urn:uuid:f9c0093d-2ecf-4bdd-a683-1745027837f8"
          },
          {
            "reference": "urn:uuid:2d66a5d4-3eec-4006-bfc9-85c372c07c54"
          },
          {
            "reference": "urn:uuid:2bdb437b-74ae-48f9-b7ad-e9d83fea43e4"
          },
          {
            "reference": "urn:uuid:52a4a33f-6b55-4267-beb6-751df3bfcf50"
          },
          {
            "reference": "urn:uuid:f4fde313-6962-4e86-9bb5-86d68560e203"
          },
          {
            "reference": "urn:uuid:61deef89-f1d5-48ac-8243-75c263a4639e"
          },
          {
            "reference": "urn:uuid:5342f999-4cad-4dfd-9754-542f6307036d"
          },
          {
            "reference": "urn:uuid:7da49cc7-ae8f-4a83-8d20-360472e6a8f9"
          },
          {
            "reference": "urn:uuid:70f3dbac-916a-4db9-9ee1-c2f84884e92f"
          },
          {
            "reference": "urn:uuid:374e848b-2584-4b02-bb57-1a12de059818"
          },
          {
            "reference": "urn:uuid:dc078af7-8ca0-4a72-bbea-ea127c2c698d"
          },
          {
            "reference": "urn:uuid:7f2498d5-3992-4579-8833-121fe1f54150"
          }
        ],
        "status": "registered",
        "code": {
          "coding": [
            {
              "code": "11502-2",
              "system": "http://loinc.org",
              "display": "Laboratory report"
            }
          ]
        },
        "subject": {
          "reference": "urn:uuid:4a887f88-638d-4846-b591-ba9f6e414ed2",
          "display": "Marlene Gerlach"
        }
      }
    },
    {
      "fullUrl": "urn:uuid:4a887f88-638d-4846-b591-ba9f6e414ed2",
      "resource": {
        "resourceType": "Patient",
        "id": "4a887f88-638d-4846-b591-ba9f6e414ed2",
        "meta": {
          "security": [
            {
              "system": "http://terminology.hl7.org/CodeSystem/v3-ActReason",
              "code": "HTEST"
            },
            {
              "system": "http://terminology.hl7.org/CodeSystem/v3-ActReason",
              "code": "TRAIN"
            }
          ],
          "tag": [
            {
              "system": "https://synderai.net/fhir/CodeSystem/tags",
              "code": "synthetic",
              "display": "SYNDERAI Synthetic data"
            }
          ],
          "profile": [
            "http://hl7.eu/fhir/base/StructureDefinition/patient-eu-core"
          ]
        },
        "identifier": [
          {
            "type": {
              "coding": [
                {
                  "code": "PT",
                  "system": "http://terminology.hl7.org/CodeSystem/v2-0203"
                }
              ]
            },
            "system": "http://ec.europa.eu/identifier/eci",
            "value": "4536-398571-9"
          },
          {
            "type": {
              "coding": [
                {
                  "code": "MR",
                  "system": "http://terminology.hl7.org/CodeSystem/v2-0203"
                }
              ]
            },
            "system": "http://local.setting.eu/identifier",
            "value": "ff7a4ff6-4bac-f07f-03c9-b91b1e1cfb23"
          }
        ],
        "name": [
          {
            "family": "Gerlach"
          },
          {
            "given": [
              "Marlene"
            ]
          },
          {
            "text": "Marlene Gerlach"
          }
        ],
        "address": [
          {
            "line": [
              "Etzlerplatz 57-53"
            ],
            "use": "home",
            "type": "physical",
            "postalCode": "71522",
            "city": "Backnang",
            "country": "Germany"
          }
        ],
        "telecom": [
          {
            "system": "phone",
            "value": "+49(0)2700 61724"
          }
        ],
        "extension": [
          {
            "url": "http://hl7.org/fhir/StructureDefinition/patient-nationality",
            "valueCodeableConcept": {
              "coding": [
                {
                  "code": "DE",
                  "system": "http://hl7.org/fhir/ValueSet/country"
                }
              ]
            }
          }
        ],
        "text": {
          "status": "generated",
          "div": "<div xmlns=\"http://www.w3.org/1999/xhtml\"><table class=\"hl7__ips\"><tr><td>Marlene Gerlach</td><td>female</td><td>28-Aug-1939</td></tr></table></div>"
        },
        "gender": "female",
        "birthDate": "1939-08-28"
      }
    },
    {
      "fullUrl": "urn:uuid:10aa3556-69c7-4e84-94c9-41bfedfb2bad",
      "resource": {
        "resourceType": "ServiceRequest",
        "id": "10aa3556-69c7-4e84-94c9-41bfedfb2bad",
        "meta": {
          "profile": [
            "http://hl7.eu/fhir/laboratory/StructureDefinition/ServiceRequest-eu-lab"
          ]
        },
        "identifier": [
          {
            "system": "http://example.org",
            "value": "aeda86ce-a9ef-4faf-b625-e09f0752ed5a"
          }
        ],
        "specimen": [
          {
            "reference": "urn:uuid:b7d6e749-c0d0-4dab-b5d1-714c9364db75"
          },
          {
            "reference": "urn:uuid:fe7b9bcc-d5d2-4d8e-9f79-644e5b080485"
          },
          {
            "reference": "urn:uuid:43611fd2-f28b-4309-8b0d-79ed4c16990b"
          }
        ],
        "reasonCode": [
          {
            "coding": [
              {
                "code": "55822004",
                "system": "http://snomed.info/sct",
                "display": "Hyperlipidemia"
              }
            ]
          },
          {
            "coding": [
              {
                "code": "414545008",
                "system": "http://snomed.info/sct",
                "display": "Ischemic heart disease"
              }
            ]
          },
          {
            "coding": [
              {
                "code": "157141000119108",
                "system": "http://snomed.info/sct",
                "display": "Proteinuria due to type 2 diabetes mellitus"
              }
            ]
          },
          {
            "coding": [
              {
                "code": "90781000119102",
                "system": "http://snomed.info/sct",
                "display": "Microalbuminuria due to type 2 diabetes mellitus"
              }
            ]
          },
          {
            "coding": [
              {
                "code": "127013003",
                "system": "http://snomed.info/sct",
                "display": "Disorder of kidney due to diabetes mellitus"
              }
            ]
          },
          {
            "coding": [
              {
                "code": "271737000",
                "system": "http://snomed.info/sct",
                "display": "Anemia"
              }
            ]
          },
          {
            "coding": [
              {
                "code": "15777000",
                "system": "http://snomed.info/sct",
                "display": "Prediabetes"
              }
            ]
          },
          {
            "coding": [
              {
                "code": "59621000",
                "system": "http://snomed.info/sct",
                "display": "Essential hypertension"
              }
            ]
          }
        ],
        "status": "active",
        "intent": "order",
        "code": {
          "coding": [
            {
              "code": "108252007",
              "system": "http://snomed.info/sct",
              "display": "Laboratory procedure"
            }
          ]
        },
        "subject": {
          "reference": "urn:uuid:4a887f88-638d-4846-b591-ba9f6e414ed2",
          "display": "Marlene Gerlach"
        },
        "requester": {
          "reference": "urn:uuid:19ef0633-772b-4591-b25a-5aa463dcff9e"
        }
      }
    },
    {
      "fullUrl": "urn:uuid:19ef0633-772b-4591-b25a-5aa463dcff9e",
      "resource": {
        "resourceType": "PractitionerRole",
        "id": "19ef0633-772b-4591-b25a-5aa463dcff9e",
        "meta": {
          "profile": [
            "http://hl7.eu/fhir/base/StructureDefinition/practitionerRole-eu"
          ]
        },
        "text": {
          "status": "generated",
          "div": "<div xmlns=\"http://www.w3.org/1999/xhtml\">Provider Role Id: 19ef0633-772b-4591-b25a-5aa463dcff9e</div>"
        },
        "organization": {
          "reference": "urn:uuid:e56fb2a2-798e-4281-8df7-d5770969569d"
        }
      }
    },
    {
      "fullUrl": "urn:uuid:e56fb2a2-798e-4281-8df7-d5770969569d",
      "resource": {
        "resourceType": "Organization",
        "id": "e56fb2a2-798e-4281-8df7-d5770969569d",
        "meta": {
          "profile": [
            "http://hl7.eu/fhir/base/StructureDefinition/organization-eu"
          ]
        },
        "identifier": [
          {
            "assigner": {
              "display": "HL7 Europe"
            },
            "system": "urn:oid:2.16.840.1.113883.2.51.999",
            "value": "ed127b0a-3a49-4c15-87f5-557d411cb397"
          }
        ],
        "address": [
          {
            "line": [
              "Karl-Krische-Straße 4"
            ],
            "city": "Backnang",
            "postalCode": "71522",
            "country": "Germany"
          }
        ],
        "text": {
          "status": "generated",
          "div": "<div xmlns=\"http://www.w3.org/1999/xhtml\">Provider Organization: Gesundheitszentrum</div>"
        },
        "name": "Gesundheitszentrum"
      }
    },
    {
      "fullUrl": "urn:uuid:b7d6e749-c0d0-4dab-b5d1-714c9364db75",
      "resource": {
        "resourceType": "Specimen",
        "id": "b7d6e749-c0d0-4dab-b5d1-714c9364db75",
        "meta": {
          "profile": [
            "http://hl7.eu/fhir/laboratory/StructureDefinition/Specimen-eu-lab"
          ]
        },
        "collection": {
          "collectedDateTime": "2023-03-29"
        },
        "text": {
          "status": "generated",
          "div": "<div xmlns=\"http://www.w3.org/1999/xhtml\"><table class=\"hl7__eu__lab__report\"><tr><th>Specimen</th><th>Collection Date</th></tr><tr><td>Whole blood specimen (specimen)</td><td><span class=\"nb\">29-Mar-2023</span></td></tr></table></div>"
        },
        "type": {
          "coding": [
            {
              "code": "258580003",
              "system": "http://snomed.info/sct",
              "display": "Whole blood specimen (specimen)"
            }
          ]
        }
      }
    },
    {
      "fullUrl": "urn:uuid:fe7b9bcc-d5d2-4d8e-9f79-644e5b080485",
      "resource": {
        "resourceType": "Specimen",
        "id": "fe7b9bcc-d5d2-4d8e-9f79-644e5b080485",
        "meta": {
          "profile": [
            "http://hl7.eu/fhir/laboratory/StructureDefinition/Specimen-eu-lab"
          ]
        },
        "collection": {
          "collectedDateTime": "2023-03-29"
        },
        "text": {
          "status": "generated",
          "div": "<div xmlns=\"http://www.w3.org/1999/xhtml\"><table class=\"hl7__eu__lab__report\"><tr><th>Specimen</th><th>Collection Date</th></tr><tr><td>Acellular blood (serum or plasma) specimen</td><td><span class=\"nb\">29-Mar-2023</span></td></tr></table></div>"
        },
        "type": {
          "coding": [
            {
              "code": "122592007",
              "system": "http://snomed.info/sct",
              "display": "Acellular blood (serum or plasma) specimen"
            }
          ]
        }
      }
    },
    {
      "fullUrl": "urn:uuid:43611fd2-f28b-4309-8b0d-79ed4c16990b",
      "resource": {
        "resourceType": "Specimen",
        "id": "43611fd2-f28b-4309-8b0d-79ed4c16990b",
        "meta": {
          "profile": [
            "http://hl7.eu/fhir/laboratory/StructureDefinition/Specimen-eu-lab"
          ]
        },
        "collection": {
          "collectedDateTime": "2023-03-29"
        },
        "text": {
          "status": "generated",
          "div": "<div xmlns=\"http://www.w3.org/1999/xhtml\"><table class=\"hl7__eu__lab__report\"><tr><th>Specimen</th><th>Collection Date</th></tr><tr><td>Serum specimen</td><td><span class=\"nb\">29-Mar-2023</span></td></tr></table></div>"
        },
        "type": {
          "coding": [
            {
              "code": "119364003",
              "system": "http://snomed.info/sct",
              "display": "Serum specimen"
            }
          ]
        }
      }
    },
    {
      "fullUrl": "urn:uuid:b8495d4a-e258-49dd-8f81-481137cb8eac",
      "resource": {
        "resourceType": "Observation",
        "id": "b8495d4a-e258-49dd-8f81-481137cb8eac",
        "meta": {
          "profile": [
            "http://hl7.eu/fhir/laboratory/StructureDefinition/Observation-resultslab-eu-lab"
          ]
        },
        "performer": [
          {
            "display": "The Central European Lab"
          }
        ],
        "category": [
          {
            "coding": [
              {
                "system": "http://terminology.hl7.org/CodeSystem/observation-category",
                "code": "laboratory"
              }
            ]
          }
        ],
        "code": {
          "coding": [
            {
              "code": "2339-0",
              "system": "http://loinc.org",
              "display": "Glucose [Mass/volume] in Blood"
            }
          ],
          "text": "Glucose [Mass/volume] in Blood"
        },
        "valueQuantity": {
          "system": "http://unitsofmeasure.org",
          "value": 68.6,
          "unit": "mg/dL",
          "code": "mg/dL"
        },
        "referenceRange": [
          {
            "low": {
              "value": 70,
              "code": "mg/dL",
              "system": "http://unitsofmeasure.org"
            }
          },
          {
            "high": {
              "value": 140,
              "code": "mg/dL",
              "system": "http://unitsofmeasure.org"
            }
          }
        ],
        "interpretation": [
          {
            "coding": [
              {
                "code": "L",
                "system": "http://terminology.hl7.org/CodeSystem/v3-ObservationInterpretation",
                "display": "Low"
              }
            ]
          }
        ],
        "text": {
          "status": "generated",
          "div": "<div xmlns=\"http://www.w3.org/1999/xhtml\"><table class=\"hl7__eu__lab__report\"><tr><th>Test</th><th>29-Mar-2023</th><th>Reference&#xA0;Range</th><th>Unit</th></tr><tr><td>Glucose [Mass/volume] in Blood</td><td>68.6</td><td>70 - 140</td><td>L</td><td>mg/dL</td></tr></table></div>"
        },
        "status": "final",
        "subject": {
          "reference": "urn:uuid:4a887f88-638d-4846-b591-ba9f6e414ed2",
          "display": "Marlene Gerlach"
        },
        "effectiveDateTime": "2023-03-29T19:24:33Z",
        "specimen": {
          "reference": "urn:uuid:b7d6e749-c0d0-4dab-b5d1-714c9364db75"
        }
      }
    },
    {
      "fullUrl": "urn:uuid:c9d97135-a103-4cff-a256-b7ed1bfa000a",
      "resource": {
        "resourceType": "Observation",
        "id": "c9d97135-a103-4cff-a256-b7ed1bfa000a",
        "meta": {
          "profile": [
            "http://hl7.eu/fhir/laboratory/StructureDefinition/Observation-resultslab-eu-lab"
          ]
        },
        "performer": [
          {
            "display": "The Central European Lab"
          }
        ],
        "category": [
          {
            "coding": [
              {
                "system": "http://terminology.hl7.org/CodeSystem/observation-category",
                "code": "laboratory"
              }
            ]
          }
        ],
        "code": {
          "coding": [
            {
              "code": "6299-2",
              "system": "http://loinc.org",
              "display": "Urea nitrogen [Mass/volume] in Blood"
            }
          ],
          "text": "Urea nitrogen [Mass/volume] in Blood"
        },
        "valueQuantity": {
          "system": "http://unitsofmeasure.org",
          "value": 13.8,
          "unit": "mg/dL",
          "code": "mg/dL"
        },
        "referenceRange": [
          {
            "low": {
              "value": 7,
              "code": "mg/dL",
              "system": "http://unitsofmeasure.org"
            }
          },
          {
            "high": {
              "value": 20,
              "code": "mg/dL",
              "system": "http://unitsofmeasure.org"
            }
          }
        ],
        "text": {
          "status": "generated",
          "div": "<div xmlns=\"http://www.w3.org/1999/xhtml\"><table class=\"hl7__eu__lab__report\"><tr><th>Test</th><th>29-Mar-2023</th><th>Reference&#xA0;Range</th><th>Unit</th></tr><tr><td>Urea nitrogen [Mass/volume] in Blood</td><td>13.8</td><td>7 - 20</td><td></td><td>mg/dL</td></tr></table></div>"
        },
        "status": "final",
        "subject": {
          "reference": "urn:uuid:4a887f88-638d-4846-b591-ba9f6e414ed2",
          "display": "Marlene Gerlach"
        },
        "effectiveDateTime": "2023-03-29T19:24:33Z",
        "specimen": {
          "reference": "urn:uuid:b7d6e749-c0d0-4dab-b5d1-714c9364db75"
        }
      }
    },
    {
      "fullUrl": "urn:uuid:2896a490-598b-4fbc-a79e-d373ed9df014",
      "resource": {
        "resourceType": "Observation",
        "id": "2896a490-598b-4fbc-a79e-d373ed9df014",
        "meta": {
          "profile": [
            "http://hl7.eu/fhir/laboratory/StructureDefinition/Observation-resultslab-eu-lab"
          ]
        },
        "performer": [
          {
            "display": "The Central European Lab"
          }
        ],
        "category": [
          {
            "coding": [
              {
                "system": "http://terminology.hl7.org/CodeSystem/observation-category",
                "code": "laboratory"
              }
            ]
          }
        ],
        "code": {
          "coding": [
            {
              "code": "38483-4",
              "system": "http://loinc.org",
              "display": "Creatinine [Mass/volume] in Blood"
            }
          ],
          "text": "Creatinine [Mass/volume] in Blood"
        },
        "valueQuantity": {
          "system": "http://unitsofmeasure.org",
          "value": 2.8,
          "unit": "mg/dL",
          "code": "mg/dL"
        },
        "referenceRange": [
          {
            "low": {
              "value": 0.5,
              "code": "mg/dL",
              "system": "http://unitsofmeasure.org"
            }
          },
          {
            "high": {
              "value": 1.3,
              "code": "mg/dL",
              "system": "http://unitsofmeasure.org"
            }
          }
        ],
        "interpretation": [
          {
            "coding": [
              {
                "code": "H",
                "system": "http://terminology.hl7.org/CodeSystem/v3-ObservationInterpretation",
                "display": "High"
              }
            ]
          }
        ],
        "text": {
          "status": "generated",
          "div": "<div xmlns=\"http://www.w3.org/1999/xhtml\"><table class=\"hl7__eu__lab__report\"><tr><th>Test</th><th>29-Mar-2023</th><th>Reference&#xA0;Range</th><th>Unit</th></tr><tr><td>Creatinine [Mass/volume] in Blood</td><td>2.8</td><td>0.5 - 1.3</td><td>H</td><td>mg/dL</td></tr></table></div>"
        },
        "status": "final",
        "subject": {
          "reference": "urn:uuid:4a887f88-638d-4846-b591-ba9f6e414ed2",
          "display": "Marlene Gerlach"
        },
        "effectiveDateTime": "2023-03-29T19:24:33Z",
        "specimen": {
          "reference": "urn:uuid:b7d6e749-c0d0-4dab-b5d1-714c9364db75"
        }
      }
    },
    {
      "fullUrl": "urn:uuid:73151ddb-68ef-4b6c-8330-3dfc53cb3cc8",
      "resource": {
        "resourceType": "Observation",
        "id": "73151ddb-68ef-4b6c-8330-3dfc53cb3cc8",
        "meta": {
          "profile": [
            "http://hl7.eu/fhir/laboratory/StructureDefinition/Observation-resultslab-eu-lab"
          ]
        },
        "performer": [
          {
            "display": "The Central European Lab"
          }
        ],
        "category": [
          {
            "coding": [
              {
                "system": "http://terminology.hl7.org/CodeSystem/observation-category",
                "code": "laboratory"
              }
            ]
          }
        ],
        "code": {
          "coding": [
            {
              "code": "49765-1",
              "system": "http://loinc.org",
              "display": "Calcium [Mass/volume] in Blood"
            }
          ],
          "text": "Calcium [Mass/volume] in Blood"
        },
        "valueQuantity": {
          "system": "http://unitsofmeasure.org",
          "value": 8.9,
          "unit": "mg/dL",
          "code": "mg/dL"
        },
        "referenceRange": [
          {
            "low": {
              "value": 8.5,
              "code": "mg/dL",
              "system": "http://unitsofmeasure.org"
            }
          },
          {
            "high": {
              "value": 10.5,
              "code": "mg/dL",
              "system": "http://unitsofmeasure.org"
            }
          }
        ],
        "text": {
          "status": "generated",
          "div": "<div xmlns=\"http://www.w3.org/1999/xhtml\"><table class=\"hl7__eu__lab__report\"><tr><th>Test</th><th>29-Mar-2023</th><th>Reference&#xA0;Range</th><th>Unit</th></tr><tr><td>Calcium [Mass/volume] in Blood</td><td>8.9</td><td>8.5 - 10.5</td><td></td><td>mg/dL</td></tr></table></div>"
        },
        "status": "final",
        "subject": {
          "reference": "urn:uuid:4a887f88-638d-4846-b591-ba9f6e414ed2",
          "display": "Marlene Gerlach"
        },
        "effectiveDateTime": "2023-03-29T19:24:33Z",
        "specimen": {
          "reference": "urn:uuid:b7d6e749-c0d0-4dab-b5d1-714c9364db75"
        }
      }
    },
    {
      "fullUrl": "urn:uuid:bc63c325-2c01-43f6-804e-3ecac108b0e0",
      "resource": {
        "resourceType": "Observation",
        "id": "bc63c325-2c01-43f6-804e-3ecac108b0e0",
        "meta": {
          "profile": [
            "http://hl7.eu/fhir/laboratory/StructureDefinition/Observation-resultslab-eu-lab"
          ]
        },
        "performer": [
          {
            "display": "The Central European Lab"
          }
        ],
        "category": [
          {
            "coding": [
              {
                "system": "http://terminology.hl7.org/CodeSystem/observation-category",
                "code": "laboratory"
              }
            ]
          }
        ],
        "code": {
          "coding": [
            {
              "code": "2947-0",
              "system": "http://loinc.org",
              "display": "Sodium [Moles/volume] in Blood"
            }
          ],
          "text": "Sodium [Moles/volume] in Blood"
        },
        "valueQuantity": {
          "system": "http://unitsofmeasure.org",
          "value": 140.6,
          "unit": "mmol/L",
          "code": "mmol/L"
        },
        "referenceRange": [
          {
            "low": {
              "value": 135,
              "code": "mmol/L",
              "system": "http://unitsofmeasure.org"
            }
          },
          {
            "high": {
              "value": 145,
              "code": "mmol/L",
              "system": "http://unitsofmeasure.org"
            }
          }
        ],
        "text": {
          "status": "generated",
          "div": "<div xmlns=\"http://www.w3.org/1999/xhtml\"><table class=\"hl7__eu__lab__report\"><tr><th>Test</th><th>29-Mar-2023</th><th>Reference&#xA0;Range</th><th>Unit</th></tr><tr><td>Sodium [Moles/volume] in Blood</td><td>140.6</td><td>135 - 145</td><td></td><td>mmol/L</td></tr></table></div>"
        },
        "status": "final",
        "subject": {
          "reference": "urn:uuid:4a887f88-638d-4846-b591-ba9f6e414ed2",
          "display": "Marlene Gerlach"
        },
        "effectiveDateTime": "2023-03-29T19:24:33Z",
        "specimen": {
          "reference": "urn:uuid:b7d6e749-c0d0-4dab-b5d1-714c9364db75"
        }
      }
    },
    {
      "fullUrl": "urn:uuid:236ccd4f-eca3-484c-84d2-217c1cba603a",
      "resource": {
        "resourceType": "Observation",
        "id": "236ccd4f-eca3-484c-84d2-217c1cba603a",
        "meta": {
          "profile": [
            "http://hl7.eu/fhir/laboratory/StructureDefinition/Observation-resultslab-eu-lab"
          ]
        },
        "performer": [
          {
            "display": "The Central European Lab"
          }
        ],
        "category": [
          {
            "coding": [
              {
                "system": "http://terminology.hl7.org/CodeSystem/observation-category",
                "code": "laboratory"
              }
            ]
          }
        ],
        "code": {
          "coding": [
            {
              "code": "6298-4",
              "system": "http://loinc.org",
              "display": "Potassium [Moles/volume] in Blood"
            }
          ],
          "text": "Potassium [Moles/volume] in Blood"
        },
        "valueQuantity": {
          "system": "http://unitsofmeasure.org",
          "value": 4.5,
          "unit": "mmol/L",
          "code": "mmol/L"
        },
        "referenceRange": [
          {
            "low": {
              "value": 3.5,
              "code": "mmol/L",
              "system": "http://unitsofmeasure.org"
            }
          },
          {
            "high": {
              "value": 5.1,
              "code": "mmol/L",
              "system": "http://unitsofmeasure.org"
            }
          }
        ],
        "text": {
          "status": "generated",
          "div": "<div xmlns=\"http://www.w3.org/1999/xhtml\"><table class=\"hl7__eu__lab__report\"><tr><th>Test</th><th>29-Mar-2023</th><th>Reference&#xA0;Range</th><th>Unit</th></tr><tr><td>Potassium [Moles/volume] in Blood</td><td>4.5</td><td>3.5 - 5.1</td><td></td><td>mmol/L</td></tr></table></div>"
        },
        "status": "final",
        "subject": {
          "reference": "urn:uuid:4a887f88-638d-4846-b591-ba9f6e414ed2",
          "display": "Marlene Gerlach"
        },
        "effectiveDateTime": "2023-03-29T19:24:33Z",
        "specimen": {
          "reference": "urn:uuid:b7d6e749-c0d0-4dab-b5d1-714c9364db75"
        }
      }
    },
    {
      "fullUrl": "urn:uuid:de575af8-4760-4b9f-a70e-d41e1db2172c",
      "resource": {
        "resourceType": "Observation",
        "id": "de575af8-4760-4b9f-a70e-d41e1db2172c",
        "meta": {
          "profile": [
            "http://hl7.eu/fhir/laboratory/StructureDefinition/Observation-resultslab-eu-lab"
          ]
        },
        "performer": [
          {
            "display": "The Central European Lab"
          }
        ],
        "category": [
          {
            "coding": [
              {
                "system": "http://terminology.hl7.org/CodeSystem/observation-category",
                "code": "laboratory"
              }
            ]
          }
        ],
        "code": {
          "coding": [
            {
              "code": "2069-3",
              "system": "http://loinc.org",
              "display": "Chloride [Moles/volume] in Blood"
            }
          ],
          "text": "Chloride [Moles/volume] in Blood"
        },
        "valueQuantity": {
          "system": "http://unitsofmeasure.org",
          "value": 101.7,
          "unit": "mmol/L",
          "code": "mmol/L"
        },
        "referenceRange": [
          {
            "low": {
              "value": 98,
              "code": "mmol/L",
              "system": "http://unitsofmeasure.org"
            }
          },
          {
            "high": {
              "value": 108,
              "code": "mmol/L",
              "system": "http://unitsofmeasure.org"
            }
          }
        ],
        "text": {
          "status": "generated",
          "div": "<div xmlns=\"http://www.w3.org/1999/xhtml\"><table class=\"hl7__eu__lab__report\"><tr><th>Test</th><th>29-Mar-2023</th><th>Reference&#xA0;Range</th><th>Unit</th></tr><tr><td>Chloride [Moles/volume] in Blood</td><td>101.7</td><td>98 - 108</td><td></td><td>mmol/L</td></tr></table></div>"
        },
        "status": "final",
        "subject": {
          "reference": "urn:uuid:4a887f88-638d-4846-b591-ba9f6e414ed2",
          "display": "Marlene Gerlach"
        },
        "effectiveDateTime": "2023-03-29T19:24:33Z",
        "specimen": {
          "reference": "urn:uuid:b7d6e749-c0d0-4dab-b5d1-714c9364db75"
        }
      }
    },
    {
      "fullUrl": "urn:uuid:f9c0093d-2ecf-4bdd-a683-1745027837f8",
      "resource": {
        "resourceType": "Observation",
        "id": "f9c0093d-2ecf-4bdd-a683-1745027837f8",
        "meta": {
          "profile": [
            "http://hl7.eu/fhir/laboratory/StructureDefinition/Observation-resultslab-eu-lab"
          ]
        },
        "performer": [
          {
            "display": "The Central European Lab"
          }
        ],
        "category": [
          {
            "coding": [
              {
                "system": "http://terminology.hl7.org/CodeSystem/observation-category",
                "code": "laboratory"
              }
            ]
          }
        ],
        "code": {
          "coding": [
            {
              "code": "20565-8",
              "system": "http://loinc.org",
              "display": "Carbon dioxide, total [Moles/volume] in Blood"
            }
          ],
          "text": "Carbon dioxide, total [Moles/volume] in Blood"
        },
        "valueQuantity": {
          "system": "http://unitsofmeasure.org",
          "value": 25.5,
          "unit": "mmol/L",
          "code": "mmol/L"
        },
        "referenceRange": [
          {
            "low": {
              "value": 22,
              "code": "mmol/L",
              "system": "http://unitsofmeasure.org"
            }
          },
          {
            "high": {
              "value": 29,
              "code": "mmol/L",
              "system": "http://unitsofmeasure.org"
            }
          }
        ],
        "text": {
          "status": "generated",
          "div": "<div xmlns=\"http://www.w3.org/1999/xhtml\"><table class=\"hl7__eu__lab__report\"><tr><th>Test</th><th>29-Mar-2023</th><th>Reference&#xA0;Range</th><th>Unit</th></tr><tr><td>Carbon dioxide, total [Moles/volume] in Blood</td><td>25.5</td><td>22 - 29</td><td></td><td>mmol/L</td></tr></table></div>"
        },
        "status": "final",
        "subject": {
          "reference": "urn:uuid:4a887f88-638d-4846-b591-ba9f6e414ed2",
          "display": "Marlene Gerlach"
        },
        "effectiveDateTime": "2023-03-29T19:24:33Z",
        "specimen": {
          "reference": "urn:uuid:b7d6e749-c0d0-4dab-b5d1-714c9364db75"
        }
      }
    },
    {
      "fullUrl": "urn:uuid:2d66a5d4-3eec-4006-bfc9-85c372c07c54",
      "resource": {
        "resourceType": "Observation",
        "id": "2d66a5d4-3eec-4006-bfc9-85c372c07c54",
        "meta": {
          "profile": [
            "http://hl7.eu/fhir/laboratory/StructureDefinition/Observation-resultslab-eu-lab"
          ]
        },
        "performer": [
          {
            "display": "The Central European Lab"
          }
        ],
        "category": [
          {
            "coding": [
              {
                "system": "http://terminology.hl7.org/CodeSystem/observation-category",
                "code": "laboratory"
              }
            ]
          }
        ],
        "code": {
          "coding": [
            {
              "code": "2885-2",
              "system": "http://loinc.org",
              "display": "Protein [Mass/volume] in Serum or Plasma"
            }
          ],
          "text": "Protein [Mass/volume] in Serum or Plasma"
        },
        "valueQuantity": {
          "system": "http://unitsofmeasure.org",
          "value": 6,
          "unit": "g/dL",
          "code": "g/dL"
        },
        "referenceRange": [
          {
            "low": {
              "value": 6,
              "code": "g/dL",
              "system": "http://unitsofmeasure.org"
            }
          },
          {
            "high": {
              "value": 8.2,
              "code": "g/dL",
              "system": "http://unitsofmeasure.org"
            }
          }
        ],
        "text": {
          "status": "generated",
          "div": "<div xmlns=\"http://www.w3.org/1999/xhtml\"><table class=\"hl7__eu__lab__report\"><tr><th>Test</th><th>29-Mar-2023</th><th>Reference&#xA0;Range</th><th>Unit</th></tr><tr><td>Protein [Mass/volume] in Serum or Plasma</td><td>6.0</td><td>6 - 8.2</td><td></td><td>g/dL</td></tr></table></div>"
        },
        "status": "final",
        "subject": {
          "reference": "urn:uuid:4a887f88-638d-4846-b591-ba9f6e414ed2",
          "display": "Marlene Gerlach"
        },
        "effectiveDateTime": "2023-03-29T19:24:33Z",
        "specimen": {
          "reference": "urn:uuid:fe7b9bcc-d5d2-4d8e-9f79-644e5b080485"
        }
      }
    },
    {
      "fullUrl": "urn:uuid:2bdb437b-74ae-48f9-b7ad-e9d83fea43e4",
      "resource": {
        "resourceType": "Observation",
        "id": "2bdb437b-74ae-48f9-b7ad-e9d83fea43e4",
        "meta": {
          "profile": [
            "http://hl7.eu/fhir/laboratory/StructureDefinition/Observation-resultslab-eu-lab"
          ]
        },
        "performer": [
          {
            "display": "The Central European Lab"
          }
        ],
        "category": [
          {
            "coding": [
              {
                "system": "http://terminology.hl7.org/CodeSystem/observation-category",
                "code": "laboratory"
              }
            ]
          }
        ],
        "code": {
          "coding": [
            {
              "code": "1751-7",
              "system": "http://loinc.org",
              "display": "Albumin [Mass/volume] in Serum or Plasma"
            }
          ],
          "text": "Albumin [Mass/volume] in Serum or Plasma"
        },
        "valueQuantity": {
          "system": "http://unitsofmeasure.org",
          "value": 4.8,
          "unit": "g/dL",
          "code": "g/dL"
        },
        "referenceRange": [
          {
            "low": {
              "value": 3.5,
              "code": "g/dL",
              "system": "http://unitsofmeasure.org"
            }
          },
          {
            "high": {
              "value": 5,
              "code": "g/dL",
              "system": "http://unitsofmeasure.org"
            }
          }
        ],
        "text": {
          "status": "generated",
          "div": "<div xmlns=\"http://www.w3.org/1999/xhtml\"><table class=\"hl7__eu__lab__report\"><tr><th>Test</th><th>29-Mar-2023</th><th>Reference&#xA0;Range</th><th>Unit</th></tr><tr><td>Albumin [Mass/volume] in Serum or Plasma</td><td>4.8</td><td>3.5 - 5</td><td></td><td>g/dL</td></tr></table></div>"
        },
        "status": "final",
        "subject": {
          "reference": "urn:uuid:4a887f88-638d-4846-b591-ba9f6e414ed2",
          "display": "Marlene Gerlach"
        },
        "effectiveDateTime": "2023-03-29T19:24:33Z",
        "specimen": {
          "reference": "urn:uuid:fe7b9bcc-d5d2-4d8e-9f79-644e5b080485"
        }
      }
    },
    {
      "fullUrl": "urn:uuid:52a4a33f-6b55-4267-beb6-751df3bfcf50",
      "resource": {
        "resourceType": "Observation",
        "id": "52a4a33f-6b55-4267-beb6-751df3bfcf50",
        "meta": {
          "profile": [
            "http://hl7.eu/fhir/laboratory/StructureDefinition/Observation-resultslab-eu-lab"
          ]
        },
        "performer": [
          {
            "display": "The Central European Lab"
          }
        ],
        "category": [
          {
            "coding": [
              {
                "system": "http://terminology.hl7.org/CodeSystem/observation-category",
                "code": "laboratory"
              }
            ]
          }
        ],
        "code": {
          "coding": [
            {
              "code": "10834-0",
              "system": "http://loinc.org",
              "display": "Globulin [Mass/volume] in Serum by calculation"
            }
          ],
          "text": "Globulin [Mass/volume] in Serum by calculation"
        },
        "valueQuantity": {
          "system": "http://unitsofmeasure.org",
          "value": 3,
          "unit": "g/L",
          "code": "g/L"
        },
        "referenceRange": [
          {
            "low": {
              "value": 2,
              "code": "g/L",
              "system": "http://unitsofmeasure.org"
            }
          },
          {
            "high": {
              "value": 4,
              "code": "g/L",
              "system": "http://unitsofmeasure.org"
            }
          }
        ],
        "text": {
          "status": "generated",
          "div": "<div xmlns=\"http://www.w3.org/1999/xhtml\"><table class=\"hl7__eu__lab__report\"><tr><th>Test</th><th>29-Mar-2023</th><th>Reference&#xA0;Range</th><th>Unit</th></tr><tr><td>Globulin [Mass/volume] in Serum by calculation</td><td>3.0</td><td>2 - 4</td><td></td><td>g/L</td></tr></table></div>"
        },
        "status": "final",
        "subject": {
          "reference": "urn:uuid:4a887f88-638d-4846-b591-ba9f6e414ed2",
          "display": "Marlene Gerlach"
        },
        "effectiveDateTime": "2023-03-29T19:24:33Z",
        "specimen": {
          "reference": "urn:uuid:43611fd2-f28b-4309-8b0d-79ed4c16990b"
        }
      }
    },
    {
      "fullUrl": "urn:uuid:f4fde313-6962-4e86-9bb5-86d68560e203",
      "resource": {
        "resourceType": "Observation",
        "id": "f4fde313-6962-4e86-9bb5-86d68560e203",
        "meta": {
          "profile": [
            "http://hl7.eu/fhir/laboratory/StructureDefinition/Observation-resultslab-eu-lab"
          ]
        },
        "performer": [
          {
            "display": "The Central European Lab"
          }
        ],
        "category": [
          {
            "coding": [
              {
                "system": "http://terminology.hl7.org/CodeSystem/observation-category",
                "code": "laboratory"
              }
            ]
          }
        ],
        "code": {
          "coding": [
            {
              "code": "1975-2",
              "system": "http://loinc.org",
              "display": "Bilirubin.total [Mass/volume] in Serum or Plasma"
            }
          ],
          "text": "Bilirubin.total [Mass/volume] in Serum or Plasma"
        },
        "valueQuantity": {
          "system": "http://unitsofmeasure.org",
          "value": 0.2,
          "unit": "mg/dL",
          "code": "mg/dL"
        },
        "referenceRange": [
          {
            "low": {
              "value": 0.3,
              "code": "mg/dL",
              "system": "http://unitsofmeasure.org"
            }
          },
          {
            "high": {
              "value": 1.2,
              "code": "mg/dL",
              "system": "http://unitsofmeasure.org"
            }
          }
        ],
        "interpretation": [
          {
            "coding": [
              {
                "code": "L",
                "system": "http://terminology.hl7.org/CodeSystem/v3-ObservationInterpretation",
                "display": "Low"
              }
            ]
          }
        ],
        "text": {
          "status": "generated",
          "div": "<div xmlns=\"http://www.w3.org/1999/xhtml\"><table class=\"hl7__eu__lab__report\"><tr><th>Test</th><th>29-Mar-2023</th><th>Reference&#xA0;Range</th><th>Unit</th></tr><tr><td>Bilirubin.total [Mass/volume] in Serum or Plasma</td><td>0.2</td><td>0.3 - 1.2</td><td>L</td><td>mg/dL</td></tr></table></div>"
        },
        "status": "final",
        "subject": {
          "reference": "urn:uuid:4a887f88-638d-4846-b591-ba9f6e414ed2",
          "display": "Marlene Gerlach"
        },
        "effectiveDateTime": "2023-03-29T19:24:33Z",
        "specimen": {
          "reference": "urn:uuid:fe7b9bcc-d5d2-4d8e-9f79-644e5b080485"
        }
      }
    },
    {
      "fullUrl": "urn:uuid:61deef89-f1d5-48ac-8243-75c263a4639e",
      "resource": {
        "resourceType": "Observation",
        "id": "61deef89-f1d5-48ac-8243-75c263a4639e",
        "meta": {
          "profile": [
            "http://hl7.eu/fhir/laboratory/StructureDefinition/Observation-resultslab-eu-lab"
          ]
        },
        "performer": [
          {
            "display": "The Central European Lab"
          }
        ],
        "category": [
          {
            "coding": [
              {
                "system": "http://terminology.hl7.org/CodeSystem/observation-category",
                "code": "laboratory"
              }
            ]
          }
        ],
        "code": {
          "coding": [
            {
              "code": "6768-6",
              "system": "http://loinc.org",
              "display": "Alkaline phosphatase [Enzymatic activity/volume] in Serum or Plasma"
            }
          ],
          "text": "Alkaline phosphatase [Enzymatic activity/volume] in Serum or Plasma"
        },
        "valueQuantity": {
          "system": "http://unitsofmeasure.org",
          "value": 126.6,
          "unit": "U/L",
          "code": "U/L"
        },
        "referenceRange": [
          {
            "low": {
              "value": 35,
              "code": "U/L",
              "system": "http://unitsofmeasure.org"
            }
          },
          {
            "high": {
              "value": 141,
              "code": "U/L",
              "system": "http://unitsofmeasure.org"
            }
          }
        ],
        "text": {
          "status": "generated",
          "div": "<div xmlns=\"http://www.w3.org/1999/xhtml\"><table class=\"hl7__eu__lab__report\"><tr><th>Test</th><th>29-Mar-2023</th><th>Reference&#xA0;Range</th><th>Unit</th></tr><tr><td>Alkaline phosphatase [Enzymatic activity/volume] in Serum or Plasma</td><td>126.6</td><td>35 - 141</td><td></td><td>U/L</td></tr></table></div>"
        },
        "status": "final",
        "subject": {
          "reference": "urn:uuid:4a887f88-638d-4846-b591-ba9f6e414ed2",
          "display": "Marlene Gerlach"
        },
        "effectiveDateTime": "2023-03-29T19:24:33Z",
        "specimen": {
          "reference": "urn:uuid:fe7b9bcc-d5d2-4d8e-9f79-644e5b080485"
        }
      }
    },
    {
      "fullUrl": "urn:uuid:5342f999-4cad-4dfd-9754-542f6307036d",
      "resource": {
        "resourceType": "Observation",
        "id": "5342f999-4cad-4dfd-9754-542f6307036d",
        "meta": {
          "profile": [
            "http://hl7.eu/fhir/laboratory/StructureDefinition/Observation-resultslab-eu-lab"
          ]
        },
        "performer": [
          {
            "display": "The Central European Lab"
          }
        ],
        "category": [
          {
            "coding": [
              {
                "system": "http://terminology.hl7.org/CodeSystem/observation-category",
                "code": "laboratory"
              }
            ]
          }
        ],
        "code": {
          "coding": [
            {
              "code": "1742-6",
              "system": "http://loinc.org",
              "display": "Alanine aminotransferase [Enzymatic activity/volume] in Serum or Plasma"
            }
          ],
          "text": "Alanine aminotransferase [Enzymatic activity/volume] in Serum or Plasma"
        },
        "valueQuantity": {
          "system": "http://unitsofmeasure.org",
          "value": 52,
          "unit": "U/L",
          "code": "U/L"
        },
        "referenceRange": [
          {
            "low": {
              "value": 7,
              "code": "U/L",
              "system": "http://unitsofmeasure.org"
            }
          },
          {
            "high": {
              "value": 60,
              "code": "U/L",
              "system": "http://unitsofmeasure.org"
            }
          }
        ],
        "text": {
          "status": "generated",
          "div": "<div xmlns=\"http://www.w3.org/1999/xhtml\"><table class=\"hl7__eu__lab__report\"><tr><th>Test</th><th>29-Mar-2023</th><th>Reference&#xA0;Range</th><th>Unit</th></tr><tr><td>Alanine aminotransferase [Enzymatic activity/volume] in Serum or Plasma</td><td>52.0</td><td>7 - 60</td><td></td><td>U/L</td></tr></table></div>"
        },
        "status": "final",
        "subject": {
          "reference": "urn:uuid:4a887f88-638d-4846-b591-ba9f6e414ed2",
          "display": "Marlene Gerlach"
        },
        "effectiveDateTime": "2023-03-29T19:24:33Z",
        "specimen": {
          "reference": "urn:uuid:fe7b9bcc-d5d2-4d8e-9f79-644e5b080485"
        }
      }
    },
    {
      "fullUrl": "urn:uuid:7da49cc7-ae8f-4a83-8d20-360472e6a8f9",
      "resource": {
        "resourceType": "Observation",
        "id": "7da49cc7-ae8f-4a83-8d20-360472e6a8f9",
        "meta": {
          "profile": [
            "http://hl7.eu/fhir/laboratory/StructureDefinition/Observation-resultslab-eu-lab"
          ]
        },
        "performer": [
          {
            "display": "The Central European Lab"
          }
        ],
        "category": [
          {
            "coding": [
              {
                "system": "http://terminology.hl7.org/CodeSystem/observation-category",
                "code": "laboratory"
              }
            ]
          }
        ],
        "code": {
          "coding": [
            {
              "code": "1920-8",
              "system": "http://loinc.org",
              "display": "Aspartate aminotransferase [Enzymatic activity/volume] in Serum or Plasma"
            }
          ],
          "text": "Aspartate aminotransferase [Enzymatic activity/volume] in Serum or Plasma"
        },
        "valueQuantity": {
          "system": "http://unitsofmeasure.org",
          "value": 16.1,
          "unit": "U/L",
          "code": "U/L"
        },
        "referenceRange": [
          {
            "low": {
              "value": 10,
              "code": "U/L",
              "system": "http://unitsofmeasure.org"
            }
          },
          {
            "high": {
              "value": 40,
              "code": "U/L",
              "system": "http://unitsofmeasure.org"
            }
          }
        ],
        "text": {
          "status": "generated",
          "div": "<div xmlns=\"http://www.w3.org/1999/xhtml\"><table class=\"hl7__eu__lab__report\"><tr><th>Test</th><th>29-Mar-2023</th><th>Reference&#xA0;Range</th><th>Unit</th></tr><tr><td>Aspartate aminotransferase [Enzymatic activity/volume] in Serum or Plasma</td><td>16.1</td><td>10 - 40</td><td></td><td>U/L</td></tr></table></div>"
        },
        "status": "final",
        "subject": {
          "reference": "urn:uuid:4a887f88-638d-4846-b591-ba9f6e414ed2",
          "display": "Marlene Gerlach"
        },
        "effectiveDateTime": "2023-03-29T19:24:33Z",
        "specimen": {
          "reference": "urn:uuid:fe7b9bcc-d5d2-4d8e-9f79-644e5b080485"
        }
      }
    },
    {
      "fullUrl": "urn:uuid:70f3dbac-916a-4db9-9ee1-c2f84884e92f",
      "resource": {
        "resourceType": "Observation",
        "id": "70f3dbac-916a-4db9-9ee1-c2f84884e92f",
        "meta": {
          "profile": [
            "http://hl7.eu/fhir/laboratory/StructureDefinition/Observation-resultslab-eu-lab"
          ]
        },
        "performer": [
          {
            "display": "The Central European Lab"
          }
        ],
        "category": [
          {
            "coding": [
              {
                "system": "http://terminology.hl7.org/CodeSystem/observation-category",
                "code": "laboratory"
              }
            ]
          }
        ],
        "code": {
          "coding": [
            {
              "code": "2093-3",
              "system": "http://loinc.org",
              "display": "Cholesterol [Mass/volume] in Serum or Plasma"
            }
          ],
          "text": "Cholesterol [Mass/volume] in Serum or Plasma"
        },
        "valueQuantity": {
          "system": "http://unitsofmeasure.org",
          "value": 156,
          "unit": "mg/dL",
          "code": "mg/dL"
        },
        "referenceRange": [
          {
            "low": {
              "value": 0,
              "code": "mg/dL",
              "system": "http://unitsofmeasure.org"
            }
          },
          {
            "high": {
              "value": 200,
              "code": "mg/dL",
              "system": "http://unitsofmeasure.org"
            }
          }
        ],
        "text": {
          "status": "generated",
          "div": "<div xmlns=\"http://www.w3.org/1999/xhtml\"><table class=\"hl7__eu__lab__report\"><tr><th>Test</th><th>29-Mar-2023</th><th>Reference&#xA0;Range</th><th>Unit</th></tr><tr><td>Cholesterol [Mass/volume] in Serum or Plasma</td><td>156.0</td><td>0 - 200</td><td></td><td>mg/dL</td></tr></table></div>"
        },
        "status": "final",
        "subject": {
          "reference": "urn:uuid:4a887f88-638d-4846-b591-ba9f6e414ed2",
          "display": "Marlene Gerlach"
        },
        "effectiveDateTime": "2023-03-29T19:24:33Z",
        "specimen": {
          "reference": "urn:uuid:fe7b9bcc-d5d2-4d8e-9f79-644e5b080485"
        }
      }
    },
    {
      "fullUrl": "urn:uuid:374e848b-2584-4b02-bb57-1a12de059818",
      "resource": {
        "resourceType": "Observation",
        "id": "374e848b-2584-4b02-bb57-1a12de059818",
        "meta": {
          "profile": [
            "http://hl7.eu/fhir/laboratory/StructureDefinition/Observation-resultslab-eu-lab"
          ]
        },
        "performer": [
          {
            "display": "The Central European Lab"
          }
        ],
        "category": [
          {
            "coding": [
              {
                "system": "http://terminology.hl7.org/CodeSystem/observation-category",
                "code": "laboratory"
              }
            ]
          }
        ],
        "code": {
          "coding": [
            {
              "code": "2571-8",
              "system": "http://loinc.org",
              "display": "Triglyceride [Mass/volume] in Serum or Plasma"
            }
          ],
          "text": "Triglyceride [Mass/volume] in Serum or Plasma"
        },
        "valueQuantity": {
          "system": "http://unitsofmeasure.org",
          "value": 137.2,
          "unit": "mg/dL",
          "code": "mg/dL"
        },
        "referenceRange": [
          {
            "low": {
              "value": 0,
              "code": "mg/dL",
              "system": "http://unitsofmeasure.org"
            }
          },
          {
            "high": {
              "value": 199,
              "code": "mg/dL",
              "system": "http://unitsofmeasure.org"
            }
          }
        ],
        "text": {
          "status": "generated",
          "div": "<div xmlns=\"http://www.w3.org/1999/xhtml\"><table class=\"hl7__eu__lab__report\"><tr><th>Test</th><th>29-Mar-2023</th><th>Reference&#xA0;Range</th><th>Unit</th></tr><tr><td>Triglyceride [Mass/volume] in Serum or Plasma</td><td>137.2</td><td>0 - 199</td><td></td><td>mg/dL</td></tr></table></div>"
        },
        "status": "final",
        "subject": {
          "reference": "urn:uuid:4a887f88-638d-4846-b591-ba9f6e414ed2",
          "display": "Marlene Gerlach"
        },
        "effectiveDateTime": "2023-03-29T19:24:33Z",
        "specimen": {
          "reference": "urn:uuid:fe7b9bcc-d5d2-4d8e-9f79-644e5b080485"
        }
      }
    },
    {
      "fullUrl": "urn:uuid:dc078af7-8ca0-4a72-bbea-ea127c2c698d",
      "resource": {
        "resourceType": "Observation",
        "id": "dc078af7-8ca0-4a72-bbea-ea127c2c698d",
        "meta": {
          "profile": [
            "http://hl7.eu/fhir/laboratory/StructureDefinition/Observation-resultslab-eu-lab"
          ]
        },
        "performer": [
          {
            "display": "The Central European Lab"
          }
        ],
        "category": [
          {
            "coding": [
              {
                "system": "http://terminology.hl7.org/CodeSystem/observation-category",
                "code": "laboratory"
              }
            ]
          }
        ],
        "code": {
          "coding": [
            {
              "code": "18262-6",
              "system": "http://loinc.org",
              "display": "Cholesterol in LDL [Mass/volume] in Serum or Plasma by Direct assay"
            }
          ],
          "text": "Cholesterol in LDL [Mass/volume] in Serum or Plasma by Direct assay"
        },
        "valueQuantity": {
          "system": "http://unitsofmeasure.org",
          "value": 103.8,
          "unit": "mg/dL",
          "code": "mg/dL"
        },
        "referenceRange": [
          {
            "low": {
              "value": 0,
              "code": "mg/dL",
              "system": "http://unitsofmeasure.org"
            }
          },
          {
            "high": {
              "value": 130,
              "code": "mg/dL",
              "system": "http://unitsofmeasure.org"
            }
          }
        ],
        "text": {
          "status": "generated",
          "div": "<div xmlns=\"http://www.w3.org/1999/xhtml\"><table class=\"hl7__eu__lab__report\"><tr><th>Test</th><th>29-Mar-2023</th><th>Reference&#xA0;Range</th><th>Unit</th></tr><tr><td>Cholesterol in LDL [Mass/volume] in Serum or Plasma by Direct assay</td><td>103.8</td><td>0 - 130</td><td></td><td>mg/dL</td></tr></table></div>"
        },
        "status": "final",
        "subject": {
          "reference": "urn:uuid:4a887f88-638d-4846-b591-ba9f6e414ed2",
          "display": "Marlene Gerlach"
        },
        "effectiveDateTime": "2023-03-29T19:24:33Z",
        "specimen": {
          "reference": "urn:uuid:fe7b9bcc-d5d2-4d8e-9f79-644e5b080485"
        }
      }
    },
    {
      "fullUrl": "urn:uuid:7f2498d5-3992-4579-8833-121fe1f54150",
      "resource": {
        "resourceType": "Observation",
        "id": "7f2498d5-3992-4579-8833-121fe1f54150",
        "meta": {
          "profile": [
            "http://hl7.eu/fhir/laboratory/StructureDefinition/Observation-resultslab-eu-lab"
          ]
        },
        "performer": [
          {
            "display": "The Central European Lab"
          }
        ],
        "category": [
          {
            "coding": [
              {
                "system": "http://terminology.hl7.org/CodeSystem/observation-category",
                "code": "laboratory"
              }
            ]
          }
        ],
        "code": {
          "coding": [
            {
              "code": "2085-9",
              "system": "http://loinc.org",
              "display": "Cholesterol in HDL [Mass/volume] in Serum or Plasma"
            }
          ],
          "text": "Cholesterol in HDL [Mass/volume] in Serum or Plasma"
        },
        "valueQuantity": {
          "system": "http://unitsofmeasure.org",
          "value": 33.1,
          "unit": "mg/dL",
          "code": "mg/dL"
        },
        "referenceRange": [
          {
            "low": {
              "value": 46,
              "code": "mg/dL",
              "system": "http://unitsofmeasure.org"
            }
          },
          {
            "high": {
              "value": 77,
              "code": "mg/dL",
              "system": "http://unitsofmeasure.org"
            }
          }
        ],
        "interpretation": [
          {
            "coding": [
              {
                "code": "L",
                "system": "http://terminology.hl7.org/CodeSystem/v3-ObservationInterpretation",
                "display": "Low"
              }
            ]
          }
        ],
        "text": {
          "status": "generated",
          "div": "<div xmlns=\"http://www.w3.org/1999/xhtml\"><table class=\"hl7__eu__lab__report\"><tr><th>Test</th><th>29-Mar-2023</th><th>Reference&#xA0;Range</th><th>Unit</th></tr><tr><td>Cholesterol in HDL [Mass/volume] in Serum or Plasma</td><td>33.1</td><td>46 - 77</td><td>L</td><td>mg/dL</td></tr></table></div>"
        },
        "status": "final",
        "subject": {
          "reference": "urn:uuid:4a887f88-638d-4846-b591-ba9f6e414ed2",
          "display": "Marlene Gerlach"
        },
        "effectiveDateTime": "2023-03-29T19:24:33Z",
        "specimen": {
          "reference": "urn:uuid:fe7b9bcc-d5d2-4d8e-9f79-644e5b080485"
        }
      }
    },
    {
      "fullUrl": "urn:uuid:e7c024a3-3227-4a0e-9eb9-3039dc08def4",
      "resource": {
        "resourceType": "Device",
        "id": "e7c024a3-3227-4a0e-9eb9-3039dc08def4",
        "deviceName": [
          {
            "name": "SYNDERAI Synthetic Generator",
            "type": "manufacturer-name"
          }
        ],
        "version": [
          {
            "value": "5.0"
          }
        ],
        "text": {
          "status": "generated",
          "div": "<div xmlns=\"http://www.w3.org/1999/xhtml\">SYNDERAI Synthetic Generator v5.0</div>"
        },
        "status": "active\"",
        "distinctIdentifier": "synderai-generator-50",
        "manufacturer": "SYNDERAI Project"
      }
    },
    {
      "fullUrl": "urn:uuid:5ece611a-3549-4d9b-a388-be10f0d53eb5",
      "resource": {
        "resourceType": "Provenance",
        "id": "5ece611a-3549-4d9b-a388-be10f0d53eb5",
        "target": [
          {
            "reference": "Patient/4a887f88-638d-4846-b591-ba9f6e414ed2"
          },
          {
            "reference": "Bundle/efee68f4-99a7-4bc1-8c75-e6545e454be6"
          },
          {
            "reference": "Composition/619fb801-ad82-4f4b-b717-3567242cea87"
          },
          {
            "reference": "PractitionerRole/721418cc-aadb-4ac9-bd57-9a294cfd093e"
          },
          {
            "reference": "Practitioner/6f3f5e83-ccf2-4f24-b1b0-4d591dc0107f"
          },
          {
            "reference": "PractitionerRole/19ef0633-772b-4591-b25a-5aa463dcff9e"
          },
          {
            "reference": "Organization/e56fb2a2-798e-4281-8df7-d5770969569d"
          }
        ],
        "activity": {
          "text": "Synthetic Example Data Generation"
        },
        "policy": [
          "https://synderai.net/synderai-synthetic-data-policy"
        ],
        "agent": [
          {
            "type": {
              "text": "author"
            },
            "who": {
              "reference": "Device/e7c024a3-3227-4a0e-9eb9-3039dc08def4"
            }
          }
        ],
        "reason": [
          {
            "text": "Interoperability Testing and Training (non-clinical use)"
          }
        ],
        "text": {
          "status": "generated",
          "div": "<div xmlns=\"http://www.w3.org/1999/xhtml\">Provenance for SYNDERAI Synthetic Example Data Resource</div>"
        },
        "recorded": "2023-03-29T21:24:33Z"
      }
    },
    {
      "fullUrl": "urn:uuid:721418cc-aadb-4ac9-bd57-9a294cfd093e",
      "resource": {
        "resourceType": "PractitionerRole",
        "id": "721418cc-aadb-4ac9-bd57-9a294cfd093e",
        "meta": {
          "profile": [
            "http://hl7.eu/fhir/base/StructureDefinition/practitionerRole-eu"
          ]
        },
        "text": {
          "status": "generated",
          "div": "<div xmlns=\"http://www.w3.org/1999/xhtml\">Laboratory Role Id: 721418cc-aadb-4ac9-bd57-9a294cfd093e</div>"
        },
        "practitioner": {
          "reference": "urn:uuid:6f3f5e83-ccf2-4f24-b1b0-4d591dc0107f"
        }
      }
    },
    {
      "fullUrl": "urn:uuid:6f3f5e83-ccf2-4f24-b1b0-4d591dc0107f",
      "resource": {
        "resourceType": "Practitioner",
        "id": "6f3f5e83-ccf2-4f24-b1b0-4d591dc0107f",
        "meta": {
          "profile": [
            "http://hl7.eu/fhir/base/StructureDefinition/practitioner-eu"
          ]
        },
        "identifier": [
          {
            "assigner": {
              "display": "HL7 Europe"
            },
            "system": "urn:oid:2.16.840.1.113883.2.51.999",
            "value": "88fd8314-8b6b-46e4-a5f8-e7100876d8c4"
          }
        ],
        "name": [
          {
            "prefix": [
              "dr"
            ],
            "given": [
              "Ex"
            ],
            "family": "Ample"
          }
        ],
        "address": [
          {
            "line": [
              "Laboratoire Central Européenne",
              "Boulevard du Jardin Botanique 32"
            ],
            "postalCode": "1000",
            "city": "Brussels",
            "country": "Belgium"
          }
        ],
        "text": {
          "status": "generated",
          "div": "<div xmlns=\"http://www.w3.org/1999/xhtml\">Laboratory: Laboratoire Central Européenne, 1000 Brussels, Belgium</div>"
        }
      }
    }
  ],
  "type": "document",
  "timestamp": "2023-03-29T21:24:33Z"
}
