{
  "resourceType": "Bundle",
  "id": "c3de6f51-e0af-4932-94ef-cb9e85984763",
  "meta": {
    "profile": [
      "http://hl7.eu/fhir/laboratory/StructureDefinition/Bundle-eu-lab"
    ]
  },
  "identifier": {
    "assigner": {
      "display": "HL7 Europe"
    },
    "system": "urn:oid:2.16.840.1.113883.2.51.999",
    "value": "14c65eb9-3940-4ab3-94f0-04be7a34cf33"
  },
  "entry": [
    {
      "fullUrl": "urn:uuid:b289b4d3-6f38-493c-99eb-702cc8369b86",
      "resource": {
        "resourceType": "Composition",
        "id": "b289b4d3-6f38-493c-99eb-702cc8369b86",
        "meta": {
          "profile": [
            "http://hl7.eu/fhir/laboratory/StructureDefinition/Composition-eu-lab"
          ]
        },
        "identifier": {
          "assigner": {
            "display": "HL7 Europe"
          },
          "system": "urn:oid:2.16.840.1.113883.2.51.999",
          "value": "3ab55b2e-881f-47c6-bb21-0e9910b84a41"
        },
        "author": [
          {
            "reference": "urn:uuid:36e7be5c-2633-41c6-8774-4c8d20e4619f"
          }
        ],
        "category": [
          {
            "coding": [
              {
                "code": "26436-6",
                "system": "http://loinc.org",
                "display": "Laboratory studies (set)"
              }
            ]
          }
        ],
        "type": {
          "coding": [
            {
              "code": "11502-2",
              "system": "http://loinc.org",
              "display": "Laboratory report"
            }
          ],
          "text": "Laboratory Report"
        },
        "section": [
          {
            "code": {
              "coding": [
                {
                  "code": "26436-6",
                  "system": "http://loinc.org",
                  "display": "Laboratory studies (set)"
                }
              ],
              "text": "Laboratory studies"
            },
            "section": [
              {
                "code": {
                  "coding": [
                    {
                      "code": "$18723-7",
                      "system": "http://loinc.org",
                      "display": "Hematology studies (set)"
                    }
                  ],
                  "text": "Hematology"
                },
                "entry": [
                  {
                    "reference": "urn:uuid:de85113a-cc84-4bcf-8c67-6354c81ccce3"
                  },
                  {
                    "reference": "urn:uuid:c0ee5040-5375-4620-a82d-67f7dfb6d112"
                  },
                  {
                    "reference": "urn:uuid:e5f4a90e-78aa-4495-bc21-2bfa399ab7cf"
                  },
                  {
                    "reference": "urn:uuid:3902040f-92d4-41aa-bdea-80cb6ea2e1ef"
                  },
                  {
                    "reference": "urn:uuid:dcc3e13e-4516-4037-9538-fad705711d89"
                  },
                  {
                    "reference": "urn:uuid:2321193e-4a18-4916-b9d0-2994fbe16be3"
                  },
                  {
                    "reference": "urn:uuid:9c81ac00-cdc3-4129-8fc3-aeb9f0059e6c"
                  },
                  {
                    "reference": "urn:uuid:c2609247-904b-492c-a9a6-e4c8d7c98b8c"
                  },
                  {
                    "reference": "urn:uuid:7cbd7eb9-4b0c-45c5-943d-448018af95f8"
                  },
                  {
                    "reference": "urn:uuid:dcbe3ed6-9777-4f14-b80c-1e2bb950d791"
                  },
                  {
                    "reference": "urn:uuid:c2e95e90-9385-4542-9d74-f5eb66418ecd"
                  }
                ],
                "text": {
                  "status": "generated",
                  "div": "<div xmlns=\"http://www.w3.org/1999/xhtml\"><h3>Hematology</h3><table class=\"hl7__eu__lab__report\"><thead><tr><th>Test</th><th>06-NOV-2018</th><th>Reference&#xA0;Range</th><th>Unit</th></tr></thead><tbody><tr><td>Leukocytes [#/volume] in Blood by Automated count</td><td>5.1</td><td>3.4 - 10.5</td><td>10*3/uL</td></tr><tr><td>Erythrocytes [#/volume] in Blood by Automated count</td><td>5.1</td><td>4.2 - 5.7</td><td>10*6/uL</td></tr><tr><td>Hemoglobin [Mass/volume] in Blood</td><td>14.4</td><td>12 - 16</td><td>g/dL</td></tr><tr><td>Hematocrit [Volume Fraction] of Blood by Automated count</td><td>47.2</td><td>36 - 48</td><td>%</td></tr><tr><td>MCV [Entitic volume] by Automated count</td><td>93.0</td><td>82 - 98</td><td>fL</td></tr><tr><td>MCH [Entitic mass] by Automated count</td><td>32.5</td><td>27 - 34</td><td>pg</td></tr><tr><td>MCHC [Mass/volume] by Automated count</td><td>35.7</td><td>31 - 36</td><td>g/dL</td></tr><tr><td>Erythrocyte distribution width [Entitic volume] by Automated count</td><td>41.6</td><td>36 - 56</td><td>fL</td></tr><tr><td>Platelets [#/volume] in Blood by Automated count</td><td>414.5</td><td>150 - 450</td><td>10*3/uL</td></tr><tr><td>Platelet distribution width [Entitic volume] in Blood by Automated count</td><td><strong>252.8 H</strong></td><td>11.6 - 17.4</td><td>fL</td></tr><tr><td>Platelet mean volume [Entitic volume] in Blood by Automated count</td><td>10.8</td><td>9.4 - 14</td><td>fL</td></tr></tbody></table></div>"
                },
                "title": "Hematology"
              },
              {
                "code": {
                  "coding": [
                    {
                      "code": "$18719-5",
                      "system": "http://loinc.org",
                      "display": "Chemistry studies (set)"
                    }
                  ],
                  "text": "Chemistry"
                },
                "entry": [
                  {
                    "reference": "urn:uuid:19d0b034-2b80-4ae7-8909-9ec34fb66295"
                  },
                  {
                    "reference": "urn:uuid:0a4bdc47-29db-438f-a047-689fe85ce23e"
                  },
                  {
                    "reference": "urn:uuid:3e71bcf1-5e09-49ce-a7c6-ffbcf33ffa14"
                  },
                  {
                    "reference": "urn:uuid:3b75a789-07c6-44db-b9b9-f392ac02df58"
                  },
                  {
                    "reference": "urn:uuid:fb203ea4-f722-4976-81fe-4e5e4f82d120"
                  },
                  {
                    "reference": "urn:uuid:53f128af-801d-4a97-982b-3899b3b9eb71"
                  },
                  {
                    "reference": "urn:uuid:bfa0b545-e8a2-4805-bd6d-f356c1cd1ec5"
                  },
                  {
                    "reference": "urn:uuid:03108947-c7e7-4626-b5d2-7b16af520f39"
                  },
                  {
                    "reference": "urn:uuid:5c154133-b1f2-4ba0-8770-25d710423640"
                  }
                ],
                "text": {
                  "status": "generated",
                  "div": "<div xmlns=\"http://www.w3.org/1999/xhtml\"><h3>Chemistry</h3><table class=\"hl7__eu__lab__report\"><thead><tr><th>Test</th><th>06-NOV-2018</th><th>Reference&#xA0;Range</th><th>Unit</th></tr></thead><tbody><tr><td>Hemoglobin A1c/Hemoglobin.total in Blood</td><td>6.1</td><td>4.5 - 6.4</td><td>%</td></tr><tr><td>Glucose [Mass/volume] in Blood</td><td>98.5</td><td>70 - 140</td><td>mg/dL</td></tr><tr><td>Urea nitrogen [Mass/volume] in Blood</td><td>19.3</td><td>7 - 43</td><td>mg/dL</td></tr><tr><td>Creatinine [Mass/volume] in Blood</td><td>0.7</td><td>0.7 - 1.1</td><td>mg/dL</td></tr><tr><td>Calcium [Mass/volume] in Blood</td><td>9.8</td><td>8.5 - 10.4</td><td>mg/dL</td></tr><tr><td>Sodium [Moles/volume] in Blood</td><td>138.1</td><td>135 - 145</td><td>mmol/L</td></tr><tr><td>Potassium [Moles/volume] in Blood</td><td>4.2</td><td>3.5 - 5.1</td><td>mmol/L</td></tr><tr><td>Chloride [Moles/volume] in Blood</td><td>102.2</td><td>98 - 107</td><td>mmol/L</td></tr><tr><td>Carbon dioxide, total [Moles/volume] in Blood</td><td>28.1</td><td>22 - 32</td><td>mmol/L</td></tr></tbody></table></div>"
                },
                "title": "Chemistry"
              }
            ],
            "title": "Laboratory Report"
          },
          {
            "text": {
              "status": "generated",
              "div": "<div xmlns=\"http://www.w3.org/1999/xhtml\"><h3>Annotation</h3><table class=\"hl7__eu__lab__report\"><tr><th>Conclusion and Recommendations based on this report and previous findings known to us</th></tr><tr><td>All measured parameters are within normal limits except for a markedly elevated platelet distribution width, which may indicate increased platelet size variability, possibly due to platelet activation or turnover. No evidence of anemia, renal dysfunction, or electrolyte imbalance. Glycemic control is at the upper end of normal. Correlation with clinical context and possible follow-up of platelet indices is recommended.</td></tr></table></div>"
            },
            "code": {
              "coding": [
                {
                  "system": "http://loinc.org",
                  "code": "48767-8",
                  "display": "Annotation comment"
                }
              ]
            },
            "title": "Annotation comment"
          }
        ],
        "status": "final",
        "subject": {
          "reference": "urn:uuid:d8f72983-a140-49c9-a76d-c7d36c9b55ee",
          "display": "Louise Köster"
        },
        "date": "2018-11-06T05:02:53Z",
        "title": "Laboratory Report",
        "confidentiality": "N"
      }
    },
    {
      "fullUrl": "urn:uuid:ba344c92-0a04-4f83-a46f-d5863c6bf382",
      "resource": {
        "resourceType": "DiagnosticReport",
        "id": "ba344c92-0a04-4f83-a46f-d5863c6bf382",
        "meta": {
          "profile": [
            "http://hl7.eu/fhir/laboratory/StructureDefinition/DiagnosticReport-eu-lab"
          ]
        },
        "identifier": [
          {
            "assigner": {
              "display": "HL7 Europe"
            },
            "system": "urn:oid:2.16.840.1.113883.2.51.999",
            "value": "215ef92b-df32-4035-8d68-1712fb320d1d"
          }
        ],
        "extension": [
          {
            "url": "http://hl7.org/fhir/5.0/StructureDefinition/extension-DiagnosticReport.composition",
            "valueReference": {
              "reference": "urn:uuid:3ab55b2e-881f-47c6-bb21-0e9910b84a41"
            }
          }
        ],
        "category": [
          {
            "coding": [
              {
                "code": "26436-6",
                "system": "http://loinc.org",
                "display": "Laboratory studies (set)"
              }
            ]
          }
        ],
        "specimen": [
          {
            "reference": "urn:uuid:69d309c7-f4d4-4948-b69c-7bd0035ebbdb"
          },
          {
            "reference": "urn:uuid:69d309c7-f4d4-4948-b69c-7bd0035ebbdb"
          }
        ],
        "result": [
          {
            "reference": "urn:uuid:19d0b034-2b80-4ae7-8909-9ec34fb66295"
          },
          {
            "reference": "urn:uuid:0a4bdc47-29db-438f-a047-689fe85ce23e"
          },
          {
            "reference": "urn:uuid:3e71bcf1-5e09-49ce-a7c6-ffbcf33ffa14"
          },
          {
            "reference": "urn:uuid:3b75a789-07c6-44db-b9b9-f392ac02df58"
          },
          {
            "reference": "urn:uuid:fb203ea4-f722-4976-81fe-4e5e4f82d120"
          },
          {
            "reference": "urn:uuid:53f128af-801d-4a97-982b-3899b3b9eb71"
          },
          {
            "reference": "urn:uuid:bfa0b545-e8a2-4805-bd6d-f356c1cd1ec5"
          },
          {
            "reference": "urn:uuid:03108947-c7e7-4626-b5d2-7b16af520f39"
          },
          {
            "reference": "urn:uuid:5c154133-b1f2-4ba0-8770-25d710423640"
          },
          {
            "reference": "urn:uuid:de85113a-cc84-4bcf-8c67-6354c81ccce3"
          },
          {
            "reference": "urn:uuid:c0ee5040-5375-4620-a82d-67f7dfb6d112"
          },
          {
            "reference": "urn:uuid:e5f4a90e-78aa-4495-bc21-2bfa399ab7cf"
          },
          {
            "reference": "urn:uuid:3902040f-92d4-41aa-bdea-80cb6ea2e1ef"
          },
          {
            "reference": "urn:uuid:dcc3e13e-4516-4037-9538-fad705711d89"
          },
          {
            "reference": "urn:uuid:2321193e-4a18-4916-b9d0-2994fbe16be3"
          },
          {
            "reference": "urn:uuid:9c81ac00-cdc3-4129-8fc3-aeb9f0059e6c"
          },
          {
            "reference": "urn:uuid:c2609247-904b-492c-a9a6-e4c8d7c98b8c"
          },
          {
            "reference": "urn:uuid:7cbd7eb9-4b0c-45c5-943d-448018af95f8"
          },
          {
            "reference": "urn:uuid:dcbe3ed6-9777-4f14-b80c-1e2bb950d791"
          },
          {
            "reference": "urn:uuid:c2e95e90-9385-4542-9d74-f5eb66418ecd"
          }
        ],
        "status": "registered",
        "code": {
          "coding": [
            {
              "code": "11502-2",
              "system": "http://loinc.org",
              "display": "Laboratory report"
            }
          ]
        },
        "subject": {
          "reference": "urn:uuid:d8f72983-a140-49c9-a76d-c7d36c9b55ee",
          "display": "Louise Köster"
        }
      }
    },
    {
      "fullUrl": "urn:uuid:d8f72983-a140-49c9-a76d-c7d36c9b55ee",
      "resource": {
        "resourceType": "Patient",
        "id": "d8f72983-a140-49c9-a76d-c7d36c9b55ee",
        "meta": {
          "security": [
            {
              "system": "http://terminology.hl7.org/CodeSystem/v3-ActReason",
              "code": "HTEST"
            },
            {
              "system": "http://terminology.hl7.org/CodeSystem/v3-ActReason",
              "code": "TRAIN"
            }
          ],
          "tag": [
            {
              "system": "https://synderai.net/fhir/CodeSystem/tags",
              "code": "synthetic",
              "display": "SYNDERAI Synthetic data"
            }
          ],
          "profile": [
            "http://hl7.eu/fhir/base/StructureDefinition/patient-eu-core"
          ]
        },
        "identifier": [
          {
            "type": {
              "coding": [
                {
                  "code": "PT",
                  "system": "http://terminology.hl7.org/CodeSystem/v2-0203"
                }
              ]
            },
            "system": "http://ec.europa.eu/identifier/eci",
            "value": "1053-167357-1"
          },
          {
            "type": {
              "coding": [
                {
                  "code": "MR",
                  "system": "http://terminology.hl7.org/CodeSystem/v2-0203"
                }
              ]
            },
            "system": "http://local.setting.eu/identifier",
            "value": "706b1a23-528f-0ed7-639f-1dc54e8ecc5d"
          }
        ],
        "name": [
          {
            "family": "Köster"
          },
          {
            "given": [
              "Louise"
            ]
          },
          {
            "text": "Louise Köster"
          }
        ],
        "address": [
          {
            "line": [
              "Regina-Butte-Ring 737"
            ],
            "use": "home",
            "type": "physical",
            "postalCode": "88348",
            "city": "Saulgau",
            "country": "Germany"
          }
        ],
        "telecom": [
          {
            "system": "phone",
            "value": "+49(0)2075293938"
          }
        ],
        "extension": [
          {
            "url": "http://hl7.org/fhir/StructureDefinition/patient-nationality",
            "valueCodeableConcept": {
              "coding": [
                {
                  "code": "DE",
                  "system": "http://hl7.org/fhir/ValueSet/country"
                }
              ]
            }
          }
        ],
        "text": {
          "status": "generated",
          "div": "<div xmlns=\"http://www.w3.org/1999/xhtml\"><table class=\"hl7__ips\"><tr><td>Louise Köster</td><td>female</td><td>01-Jul-1957</td></tr></table></div>"
        },
        "gender": "female",
        "birthDate": "1957-07-01"
      }
    },
    {
      "fullUrl": "urn:uuid:944efe40-e77d-4a20-9b92-a050751d88e6",
      "resource": {
        "resourceType": "ServiceRequest",
        "id": "944efe40-e77d-4a20-9b92-a050751d88e6",
        "meta": {
          "profile": [
            "http://hl7.eu/fhir/laboratory/StructureDefinition/ServiceRequest-eu-lab"
          ]
        },
        "identifier": [
          {
            "system": "http://example.org",
            "value": "dfb4f02e-f7b2-4bf2-b709-cea695ca19b4"
          }
        ],
        "specimen": [
          {
            "reference": "urn:uuid:69d309c7-f4d4-4948-b69c-7bd0035ebbdb"
          }
        ],
        "reasonCode": [
          {
            "coding": [
              {
                "code": "15777000",
                "system": "http://snomed.info/sct",
                "display": "Prediabetes"
              }
            ]
          },
          {
            "coding": [
              {
                "code": "237602007",
                "system": "http://snomed.info/sct",
                "display": "Metabolic syndrome X"
              }
            ]
          },
          {
            "coding": [
              {
                "code": "414545008",
                "system": "http://snomed.info/sct",
                "display": "Ischemic heart disease"
              }
            ]
          },
          {
            "coding": [
              {
                "code": "59621000",
                "system": "http://snomed.info/sct",
                "display": "Essential hypertension"
              }
            ]
          }
        ],
        "status": "active",
        "intent": "order",
        "code": {
          "coding": [
            {
              "code": "108252007",
              "system": "http://snomed.info/sct",
              "display": "Laboratory procedure"
            }
          ]
        },
        "subject": {
          "reference": "urn:uuid:d8f72983-a140-49c9-a76d-c7d36c9b55ee",
          "display": "Louise Köster"
        },
        "requester": {
          "reference": "urn:uuid:83ac3b67-e609-41ac-86b3-f8bd8752e99d"
        }
      }
    },
    {
      "fullUrl": "urn:uuid:83ac3b67-e609-41ac-86b3-f8bd8752e99d",
      "resource": {
        "resourceType": "PractitionerRole",
        "id": "83ac3b67-e609-41ac-86b3-f8bd8752e99d",
        "meta": {
          "profile": [
            "http://hl7.eu/fhir/base/StructureDefinition/practitionerRole-eu"
          ]
        },
        "text": {
          "status": "generated",
          "div": "<div xmlns=\"http://www.w3.org/1999/xhtml\">Provider Role Id: 83ac3b67-e609-41ac-86b3-f8bd8752e99d</div>"
        },
        "organization": {
          "reference": "urn:uuid:e69704dd-20e0-45cf-8733-2874b2c548c3"
        }
      }
    },
    {
      "fullUrl": "urn:uuid:e69704dd-20e0-45cf-8733-2874b2c548c3",
      "resource": {
        "resourceType": "Organization",
        "id": "e69704dd-20e0-45cf-8733-2874b2c548c3",
        "meta": {
          "profile": [
            "http://hl7.eu/fhir/base/StructureDefinition/organization-eu"
          ]
        },
        "identifier": [
          {
            "assigner": {
              "display": "HL7 Europe"
            },
            "system": "urn:oid:2.16.840.1.113883.2.51.999",
            "value": "6353eb25-5dcf-4fcd-8cc6-c22d7c58a44b"
          }
        ],
        "address": [
          {
            "line": [
              "Am Schönen Moos 7"
            ],
            "city": "Bad Saulgau",
            "postalCode": "88348",
            "country": "Germany"
          }
        ],
        "text": {
          "status": "generated",
          "div": "<div xmlns=\"http://www.w3.org/1999/xhtml\">Provider Organization: Klinik am schönen Moos</div>"
        },
        "name": "Klinik am schönen Moos"
      }
    },
    {
      "fullUrl": "urn:uuid:69d309c7-f4d4-4948-b69c-7bd0035ebbdb",
      "resource": {
        "resourceType": "Specimen",
        "id": "69d309c7-f4d4-4948-b69c-7bd0035ebbdb",
        "meta": {
          "profile": [
            "http://hl7.eu/fhir/laboratory/StructureDefinition/Specimen-eu-lab"
          ]
        },
        "collection": {
          "collectedDateTime": "2018-11-06"
        },
        "text": {
          "status": "generated",
          "div": "<div xmlns=\"http://www.w3.org/1999/xhtml\"><table class=\"hl7__eu__lab__report\"><tr><th>Specimen</th><th>Collection Date</th></tr><tr><td>Whole blood specimen (specimen)</td><td><span class=\"nb\">06-Nov-2018</span></td></tr></table></div>"
        },
        "type": {
          "coding": [
            {
              "code": "258580003",
              "system": "http://snomed.info/sct",
              "display": "Whole blood specimen (specimen)"
            }
          ]
        }
      }
    },
    {
      "fullUrl": "urn:uuid:69d309c7-f4d4-4948-b69c-7bd0035ebbdb",
      "resource": {
        "resourceType": "Specimen",
        "id": "69d309c7-f4d4-4948-b69c-7bd0035ebbdb",
        "meta": {
          "profile": [
            "http://hl7.eu/fhir/laboratory/StructureDefinition/Specimen-eu-lab"
          ]
        },
        "collection": {
          "collectedDateTime": "2018-11-06"
        },
        "text": {
          "status": "generated",
          "div": "<div xmlns=\"http://www.w3.org/1999/xhtml\"><table class=\"hl7__eu__lab__report\"><tr><th>Specimen</th><th>Collection Date</th></tr><tr><td>Whole blood specimen (specimen)</td><td><span class=\"nb\">06-Nov-2018</span></td></tr></table></div>"
        },
        "type": {
          "coding": [
            {
              "code": "258580003",
              "system": "http://snomed.info/sct",
              "display": "Whole blood specimen (specimen)"
            }
          ]
        }
      }
    },
    {
      "fullUrl": "urn:uuid:19d0b034-2b80-4ae7-8909-9ec34fb66295",
      "resource": {
        "resourceType": "Observation",
        "id": "19d0b034-2b80-4ae7-8909-9ec34fb66295",
        "meta": {
          "profile": [
            "http://hl7.eu/fhir/laboratory/StructureDefinition/Observation-resultslab-eu-lab"
          ]
        },
        "performer": [
          {
            "display": "The Central European Lab"
          }
        ],
        "category": [
          {
            "coding": [
              {
                "system": "http://terminology.hl7.org/CodeSystem/observation-category",
                "code": "laboratory"
              }
            ]
          }
        ],
        "code": {
          "coding": [
            {
              "code": "4548-4",
              "system": "http://loinc.org",
              "display": "Hemoglobin A1c/Hemoglobin.total in Blood"
            }
          ],
          "text": "Hemoglobin A1c/Hemoglobin.total in Blood"
        },
        "valueQuantity": {
          "system": "http://unitsofmeasure.org",
          "value": 6.1,
          "unit": "%",
          "code": "%"
        },
        "referenceRange": [
          {
            "low": {
              "value": 4.5,
              "code": "%",
              "system": "http://unitsofmeasure.org"
            }
          },
          {
            "high": {
              "value": 6.4,
              "code": "%",
              "system": "http://unitsofmeasure.org"
            }
          }
        ],
        "text": {
          "status": "generated",
          "div": "<div xmlns=\"http://www.w3.org/1999/xhtml\"><table class=\"hl7__eu__lab__report\"><tr><th>Test</th><th>06-Nov-2018</th><th>Reference&#xA0;Range</th><th>Unit</th></tr><tr><td>Hemoglobin A1c/Hemoglobin.total in Blood</td><td>6.1</td><td>4.5 - 6.4</td><td></td><td>%</td></tr></table></div>"
        },
        "status": "final",
        "subject": {
          "reference": "urn:uuid:d8f72983-a140-49c9-a76d-c7d36c9b55ee",
          "display": "Louise Köster"
        },
        "effectiveDateTime": "2018-11-06T04:02:53Z",
        "specimen": {
          "reference": "urn:uuid:69d309c7-f4d4-4948-b69c-7bd0035ebbdb"
        }
      }
    },
    {
      "fullUrl": "urn:uuid:0a4bdc47-29db-438f-a047-689fe85ce23e",
      "resource": {
        "resourceType": "Observation",
        "id": "0a4bdc47-29db-438f-a047-689fe85ce23e",
        "meta": {
          "profile": [
            "http://hl7.eu/fhir/laboratory/StructureDefinition/Observation-resultslab-eu-lab"
          ]
        },
        "performer": [
          {
            "display": "The Central European Lab"
          }
        ],
        "category": [
          {
            "coding": [
              {
                "system": "http://terminology.hl7.org/CodeSystem/observation-category",
                "code": "laboratory"
              }
            ]
          }
        ],
        "code": {
          "coding": [
            {
              "code": "2339-0",
              "system": "http://loinc.org",
              "display": "Glucose [Mass/volume] in Blood"
            }
          ],
          "text": "Glucose [Mass/volume] in Blood"
        },
        "valueQuantity": {
          "system": "http://unitsofmeasure.org",
          "value": 98.5,
          "unit": "mg/dL",
          "code": "mg/dL"
        },
        "referenceRange": [
          {
            "low": {
              "value": 70,
              "code": "mg/dL",
              "system": "http://unitsofmeasure.org"
            }
          },
          {
            "high": {
              "value": 140,
              "code": "mg/dL",
              "system": "http://unitsofmeasure.org"
            }
          }
        ],
        "text": {
          "status": "generated",
          "div": "<div xmlns=\"http://www.w3.org/1999/xhtml\"><table class=\"hl7__eu__lab__report\"><tr><th>Test</th><th>06-Nov-2018</th><th>Reference&#xA0;Range</th><th>Unit</th></tr><tr><td>Glucose [Mass/volume] in Blood</td><td>98.5</td><td>70 - 140</td><td></td><td>mg/dL</td></tr></table></div>"
        },
        "status": "final",
        "subject": {
          "reference": "urn:uuid:d8f72983-a140-49c9-a76d-c7d36c9b55ee",
          "display": "Louise Köster"
        },
        "effectiveDateTime": "2018-11-06T04:02:53Z",
        "specimen": {
          "reference": "urn:uuid:69d309c7-f4d4-4948-b69c-7bd0035ebbdb"
        }
      }
    },
    {
      "fullUrl": "urn:uuid:3e71bcf1-5e09-49ce-a7c6-ffbcf33ffa14",
      "resource": {
        "resourceType": "Observation",
        "id": "3e71bcf1-5e09-49ce-a7c6-ffbcf33ffa14",
        "meta": {
          "profile": [
            "http://hl7.eu/fhir/laboratory/StructureDefinition/Observation-resultslab-eu-lab"
          ]
        },
        "performer": [
          {
            "display": "The Central European Lab"
          }
        ],
        "category": [
          {
            "coding": [
              {
                "system": "http://terminology.hl7.org/CodeSystem/observation-category",
                "code": "laboratory"
              }
            ]
          }
        ],
        "code": {
          "coding": [
            {
              "code": "6299-2",
              "system": "http://loinc.org",
              "display": "Urea nitrogen [Mass/volume] in Blood"
            }
          ],
          "text": "Urea nitrogen [Mass/volume] in Blood"
        },
        "valueQuantity": {
          "system": "http://unitsofmeasure.org",
          "value": 19.3,
          "unit": "mg/dL",
          "code": "mg/dL"
        },
        "referenceRange": [
          {
            "low": {
              "value": 7,
              "code": "mg/dL",
              "system": "http://unitsofmeasure.org"
            }
          },
          {
            "high": {
              "value": 43,
              "code": "mg/dL",
              "system": "http://unitsofmeasure.org"
            }
          }
        ],
        "text": {
          "status": "generated",
          "div": "<div xmlns=\"http://www.w3.org/1999/xhtml\"><table class=\"hl7__eu__lab__report\"><tr><th>Test</th><th>06-Nov-2018</th><th>Reference&#xA0;Range</th><th>Unit</th></tr><tr><td>Urea nitrogen [Mass/volume] in Blood</td><td>19.3</td><td>7 - 43</td><td></td><td>mg/dL</td></tr></table></div>"
        },
        "status": "final",
        "subject": {
          "reference": "urn:uuid:d8f72983-a140-49c9-a76d-c7d36c9b55ee",
          "display": "Louise Köster"
        },
        "effectiveDateTime": "2018-11-06T04:02:53Z",
        "specimen": {
          "reference": "urn:uuid:69d309c7-f4d4-4948-b69c-7bd0035ebbdb"
        }
      }
    },
    {
      "fullUrl": "urn:uuid:3b75a789-07c6-44db-b9b9-f392ac02df58",
      "resource": {
        "resourceType": "Observation",
        "id": "3b75a789-07c6-44db-b9b9-f392ac02df58",
        "meta": {
          "profile": [
            "http://hl7.eu/fhir/laboratory/StructureDefinition/Observation-resultslab-eu-lab"
          ]
        },
        "performer": [
          {
            "display": "The Central European Lab"
          }
        ],
        "category": [
          {
            "coding": [
              {
                "system": "http://terminology.hl7.org/CodeSystem/observation-category",
                "code": "laboratory"
              }
            ]
          }
        ],
        "code": {
          "coding": [
            {
              "code": "38483-4",
              "system": "http://loinc.org",
              "display": "Creatinine [Mass/volume] in Blood"
            }
          ],
          "text": "Creatinine [Mass/volume] in Blood"
        },
        "valueQuantity": {
          "system": "http://unitsofmeasure.org",
          "value": 0.7,
          "unit": "mg/dL",
          "code": "mg/dL"
        },
        "referenceRange": [
          {
            "low": {
              "value": 0.7,
              "code": "mg/dL",
              "system": "http://unitsofmeasure.org"
            }
          },
          {
            "high": {
              "value": 1.1,
              "code": "mg/dL",
              "system": "http://unitsofmeasure.org"
            }
          }
        ],
        "text": {
          "status": "generated",
          "div": "<div xmlns=\"http://www.w3.org/1999/xhtml\"><table class=\"hl7__eu__lab__report\"><tr><th>Test</th><th>06-Nov-2018</th><th>Reference&#xA0;Range</th><th>Unit</th></tr><tr><td>Creatinine [Mass/volume] in Blood</td><td>0.7</td><td>0.7 - 1.1</td><td></td><td>mg/dL</td></tr></table></div>"
        },
        "status": "final",
        "subject": {
          "reference": "urn:uuid:d8f72983-a140-49c9-a76d-c7d36c9b55ee",
          "display": "Louise Köster"
        },
        "effectiveDateTime": "2018-11-06T04:02:53Z",
        "specimen": {
          "reference": "urn:uuid:69d309c7-f4d4-4948-b69c-7bd0035ebbdb"
        }
      }
    },
    {
      "fullUrl": "urn:uuid:fb203ea4-f722-4976-81fe-4e5e4f82d120",
      "resource": {
        "resourceType": "Observation",
        "id": "fb203ea4-f722-4976-81fe-4e5e4f82d120",
        "meta": {
          "profile": [
            "http://hl7.eu/fhir/laboratory/StructureDefinition/Observation-resultslab-eu-lab"
          ]
        },
        "performer": [
          {
            "display": "The Central European Lab"
          }
        ],
        "category": [
          {
            "coding": [
              {
                "system": "http://terminology.hl7.org/CodeSystem/observation-category",
                "code": "laboratory"
              }
            ]
          }
        ],
        "code": {
          "coding": [
            {
              "code": "49765-1",
              "system": "http://loinc.org",
              "display": "Calcium [Mass/volume] in Blood"
            }
          ],
          "text": "Calcium [Mass/volume] in Blood"
        },
        "valueQuantity": {
          "system": "http://unitsofmeasure.org",
          "value": 9.8,
          "unit": "mg/dL",
          "code": "mg/dL"
        },
        "referenceRange": [
          {
            "low": {
              "value": 8.5,
              "code": "mg/dL",
              "system": "http://unitsofmeasure.org"
            }
          },
          {
            "high": {
              "value": 10.4,
              "code": "mg/dL",
              "system": "http://unitsofmeasure.org"
            }
          }
        ],
        "text": {
          "status": "generated",
          "div": "<div xmlns=\"http://www.w3.org/1999/xhtml\"><table class=\"hl7__eu__lab__report\"><tr><th>Test</th><th>06-Nov-2018</th><th>Reference&#xA0;Range</th><th>Unit</th></tr><tr><td>Calcium [Mass/volume] in Blood</td><td>9.8</td><td>8.5 - 10.4</td><td></td><td>mg/dL</td></tr></table></div>"
        },
        "status": "final",
        "subject": {
          "reference": "urn:uuid:d8f72983-a140-49c9-a76d-c7d36c9b55ee",
          "display": "Louise Köster"
        },
        "effectiveDateTime": "2018-11-06T04:02:53Z",
        "specimen": {
          "reference": "urn:uuid:69d309c7-f4d4-4948-b69c-7bd0035ebbdb"
        }
      }
    },
    {
      "fullUrl": "urn:uuid:53f128af-801d-4a97-982b-3899b3b9eb71",
      "resource": {
        "resourceType": "Observation",
        "id": "53f128af-801d-4a97-982b-3899b3b9eb71",
        "meta": {
          "profile": [
            "http://hl7.eu/fhir/laboratory/StructureDefinition/Observation-resultslab-eu-lab"
          ]
        },
        "performer": [
          {
            "display": "The Central European Lab"
          }
        ],
        "category": [
          {
            "coding": [
              {
                "system": "http://terminology.hl7.org/CodeSystem/observation-category",
                "code": "laboratory"
              }
            ]
          }
        ],
        "code": {
          "coding": [
            {
              "code": "2947-0",
              "system": "http://loinc.org",
              "display": "Sodium [Moles/volume] in Blood"
            }
          ],
          "text": "Sodium [Moles/volume] in Blood"
        },
        "valueQuantity": {
          "system": "http://unitsofmeasure.org",
          "value": 138.1,
          "unit": "mmol/L",
          "code": "mmol/L"
        },
        "referenceRange": [
          {
            "low": {
              "value": 135,
              "code": "mmol/L",
              "system": "http://unitsofmeasure.org"
            }
          },
          {
            "high": {
              "value": 145,
              "code": "mmol/L",
              "system": "http://unitsofmeasure.org"
            }
          }
        ],
        "text": {
          "status": "generated",
          "div": "<div xmlns=\"http://www.w3.org/1999/xhtml\"><table class=\"hl7__eu__lab__report\"><tr><th>Test</th><th>06-Nov-2018</th><th>Reference&#xA0;Range</th><th>Unit</th></tr><tr><td>Sodium [Moles/volume] in Blood</td><td>138.1</td><td>135 - 145</td><td></td><td>mmol/L</td></tr></table></div>"
        },
        "status": "final",
        "subject": {
          "reference": "urn:uuid:d8f72983-a140-49c9-a76d-c7d36c9b55ee",
          "display": "Louise Köster"
        },
        "effectiveDateTime": "2018-11-06T04:02:53Z",
        "specimen": {
          "reference": "urn:uuid:69d309c7-f4d4-4948-b69c-7bd0035ebbdb"
        }
      }
    },
    {
      "fullUrl": "urn:uuid:bfa0b545-e8a2-4805-bd6d-f356c1cd1ec5",
      "resource": {
        "resourceType": "Observation",
        "id": "bfa0b545-e8a2-4805-bd6d-f356c1cd1ec5",
        "meta": {
          "profile": [
            "http://hl7.eu/fhir/laboratory/StructureDefinition/Observation-resultslab-eu-lab"
          ]
        },
        "performer": [
          {
            "display": "The Central European Lab"
          }
        ],
        "category": [
          {
            "coding": [
              {
                "system": "http://terminology.hl7.org/CodeSystem/observation-category",
                "code": "laboratory"
              }
            ]
          }
        ],
        "code": {
          "coding": [
            {
              "code": "6298-4",
              "system": "http://loinc.org",
              "display": "Potassium [Moles/volume] in Blood"
            }
          ],
          "text": "Potassium [Moles/volume] in Blood"
        },
        "valueQuantity": {
          "system": "http://unitsofmeasure.org",
          "value": 4.2,
          "unit": "mmol/L",
          "code": "mmol/L"
        },
        "referenceRange": [
          {
            "low": {
              "value": 3.5,
              "code": "mmol/L",
              "system": "http://unitsofmeasure.org"
            }
          },
          {
            "high": {
              "value": 5.1,
              "code": "mmol/L",
              "system": "http://unitsofmeasure.org"
            }
          }
        ],
        "text": {
          "status": "generated",
          "div": "<div xmlns=\"http://www.w3.org/1999/xhtml\"><table class=\"hl7__eu__lab__report\"><tr><th>Test</th><th>06-Nov-2018</th><th>Reference&#xA0;Range</th><th>Unit</th></tr><tr><td>Potassium [Moles/volume] in Blood</td><td>4.2</td><td>3.5 - 5.1</td><td></td><td>mmol/L</td></tr></table></div>"
        },
        "status": "final",
        "subject": {
          "reference": "urn:uuid:d8f72983-a140-49c9-a76d-c7d36c9b55ee",
          "display": "Louise Köster"
        },
        "effectiveDateTime": "2018-11-06T04:02:53Z",
        "specimen": {
          "reference": "urn:uuid:69d309c7-f4d4-4948-b69c-7bd0035ebbdb"
        }
      }
    },
    {
      "fullUrl": "urn:uuid:03108947-c7e7-4626-b5d2-7b16af520f39",
      "resource": {
        "resourceType": "Observation",
        "id": "03108947-c7e7-4626-b5d2-7b16af520f39",
        "meta": {
          "profile": [
            "http://hl7.eu/fhir/laboratory/StructureDefinition/Observation-resultslab-eu-lab"
          ]
        },
        "performer": [
          {
            "display": "The Central European Lab"
          }
        ],
        "category": [
          {
            "coding": [
              {
                "system": "http://terminology.hl7.org/CodeSystem/observation-category",
                "code": "laboratory"
              }
            ]
          }
        ],
        "code": {
          "coding": [
            {
              "code": "2069-3",
              "system": "http://loinc.org",
              "display": "Chloride [Moles/volume] in Blood"
            }
          ],
          "text": "Chloride [Moles/volume] in Blood"
        },
        "valueQuantity": {
          "system": "http://unitsofmeasure.org",
          "value": 102.2,
          "unit": "mmol/L",
          "code": "mmol/L"
        },
        "referenceRange": [
          {
            "low": {
              "value": 98,
              "code": "mmol/L",
              "system": "http://unitsofmeasure.org"
            }
          },
          {
            "high": {
              "value": 107,
              "code": "mmol/L",
              "system": "http://unitsofmeasure.org"
            }
          }
        ],
        "text": {
          "status": "generated",
          "div": "<div xmlns=\"http://www.w3.org/1999/xhtml\"><table class=\"hl7__eu__lab__report\"><tr><th>Test</th><th>06-Nov-2018</th><th>Reference&#xA0;Range</th><th>Unit</th></tr><tr><td>Chloride [Moles/volume] in Blood</td><td>102.2</td><td>98 - 107</td><td></td><td>mmol/L</td></tr></table></div>"
        },
        "status": "final",
        "subject": {
          "reference": "urn:uuid:d8f72983-a140-49c9-a76d-c7d36c9b55ee",
          "display": "Louise Köster"
        },
        "effectiveDateTime": "2018-11-06T04:02:53Z",
        "specimen": {
          "reference": "urn:uuid:69d309c7-f4d4-4948-b69c-7bd0035ebbdb"
        }
      }
    },
    {
      "fullUrl": "urn:uuid:5c154133-b1f2-4ba0-8770-25d710423640",
      "resource": {
        "resourceType": "Observation",
        "id": "5c154133-b1f2-4ba0-8770-25d710423640",
        "meta": {
          "profile": [
            "http://hl7.eu/fhir/laboratory/StructureDefinition/Observation-resultslab-eu-lab"
          ]
        },
        "performer": [
          {
            "display": "The Central European Lab"
          }
        ],
        "category": [
          {
            "coding": [
              {
                "system": "http://terminology.hl7.org/CodeSystem/observation-category",
                "code": "laboratory"
              }
            ]
          }
        ],
        "code": {
          "coding": [
            {
              "code": "20565-8",
              "system": "http://loinc.org",
              "display": "Carbon dioxide, total [Moles/volume] in Blood"
            }
          ],
          "text": "Carbon dioxide, total [Moles/volume] in Blood"
        },
        "valueQuantity": {
          "system": "http://unitsofmeasure.org",
          "value": 28.1,
          "unit": "mmol/L",
          "code": "mmol/L"
        },
        "referenceRange": [
          {
            "low": {
              "value": 22,
              "code": "mmol/L",
              "system": "http://unitsofmeasure.org"
            }
          },
          {
            "high": {
              "value": 32,
              "code": "mmol/L",
              "system": "http://unitsofmeasure.org"
            }
          }
        ],
        "text": {
          "status": "generated",
          "div": "<div xmlns=\"http://www.w3.org/1999/xhtml\"><table class=\"hl7__eu__lab__report\"><tr><th>Test</th><th>06-Nov-2018</th><th>Reference&#xA0;Range</th><th>Unit</th></tr><tr><td>Carbon dioxide, total [Moles/volume] in Blood</td><td>28.1</td><td>22 - 32</td><td></td><td>mmol/L</td></tr></table></div>"
        },
        "status": "final",
        "subject": {
          "reference": "urn:uuid:d8f72983-a140-49c9-a76d-c7d36c9b55ee",
          "display": "Louise Köster"
        },
        "effectiveDateTime": "2018-11-06T04:02:53Z",
        "specimen": {
          "reference": "urn:uuid:69d309c7-f4d4-4948-b69c-7bd0035ebbdb"
        }
      }
    },
    {
      "fullUrl": "urn:uuid:de85113a-cc84-4bcf-8c67-6354c81ccce3",
      "resource": {
        "resourceType": "Observation",
        "id": "de85113a-cc84-4bcf-8c67-6354c81ccce3",
        "meta": {
          "profile": [
            "http://hl7.eu/fhir/laboratory/StructureDefinition/Observation-resultslab-eu-lab"
          ]
        },
        "performer": [
          {
            "display": "The Central European Lab"
          }
        ],
        "category": [
          {
            "coding": [
              {
                "system": "http://terminology.hl7.org/CodeSystem/observation-category",
                "code": "laboratory"
              }
            ]
          }
        ],
        "code": {
          "coding": [
            {
              "code": "6690-2",
              "system": "http://loinc.org",
              "display": "Leukocytes [#/volume] in Blood by Automated count"
            }
          ],
          "text": "Leukocytes [#/volume] in Blood by Automated count"
        },
        "valueQuantity": {
          "system": "http://unitsofmeasure.org",
          "value": 5.1,
          "unit": "10*3/uL",
          "code": "10*3/uL"
        },
        "referenceRange": [
          {
            "low": {
              "value": 3.4,
              "code": "10*3/uL",
              "system": "http://unitsofmeasure.org"
            }
          },
          {
            "high": {
              "value": 10.5,
              "code": "10*3/uL",
              "system": "http://unitsofmeasure.org"
            }
          }
        ],
        "text": {
          "status": "generated",
          "div": "<div xmlns=\"http://www.w3.org/1999/xhtml\"><table class=\"hl7__eu__lab__report\"><tr><th>Test</th><th>06-Nov-2018</th><th>Reference&#xA0;Range</th><th>Unit</th></tr><tr><td>Leukocytes [#/volume] in Blood by Automated count</td><td>5.1</td><td>3.4 - 10.5</td><td></td><td>10*3/uL</td></tr></table></div>"
        },
        "status": "final",
        "subject": {
          "reference": "urn:uuid:d8f72983-a140-49c9-a76d-c7d36c9b55ee",
          "display": "Louise Köster"
        },
        "effectiveDateTime": "2018-11-06T04:02:53Z",
        "specimen": {
          "reference": "urn:uuid:69d309c7-f4d4-4948-b69c-7bd0035ebbdb"
        }
      }
    },
    {
      "fullUrl": "urn:uuid:c0ee5040-5375-4620-a82d-67f7dfb6d112",
      "resource": {
        "resourceType": "Observation",
        "id": "c0ee5040-5375-4620-a82d-67f7dfb6d112",
        "meta": {
          "profile": [
            "http://hl7.eu/fhir/laboratory/StructureDefinition/Observation-resultslab-eu-lab"
          ]
        },
        "performer": [
          {
            "display": "The Central European Lab"
          }
        ],
        "category": [
          {
            "coding": [
              {
                "system": "http://terminology.hl7.org/CodeSystem/observation-category",
                "code": "laboratory"
              }
            ]
          }
        ],
        "code": {
          "coding": [
            {
              "code": "789-8",
              "system": "http://loinc.org",
              "display": "Erythrocytes [#/volume] in Blood by Automated count"
            }
          ],
          "text": "Erythrocytes [#/volume] in Blood by Automated count"
        },
        "valueQuantity": {
          "system": "http://unitsofmeasure.org",
          "value": 5.1,
          "unit": "10*6/uL",
          "code": "10*6/uL"
        },
        "referenceRange": [
          {
            "low": {
              "value": 4.2,
              "code": "10*6/uL",
              "system": "http://unitsofmeasure.org"
            }
          },
          {
            "high": {
              "value": 5.7,
              "code": "10*6/uL",
              "system": "http://unitsofmeasure.org"
            }
          }
        ],
        "text": {
          "status": "generated",
          "div": "<div xmlns=\"http://www.w3.org/1999/xhtml\"><table class=\"hl7__eu__lab__report\"><tr><th>Test</th><th>06-Nov-2018</th><th>Reference&#xA0;Range</th><th>Unit</th></tr><tr><td>Erythrocytes [#/volume] in Blood by Automated count</td><td>5.1</td><td>4.2 - 5.7</td><td></td><td>10*6/uL</td></tr></table></div>"
        },
        "status": "final",
        "subject": {
          "reference": "urn:uuid:d8f72983-a140-49c9-a76d-c7d36c9b55ee",
          "display": "Louise Köster"
        },
        "effectiveDateTime": "2018-11-06T04:02:53Z",
        "specimen": {
          "reference": "urn:uuid:69d309c7-f4d4-4948-b69c-7bd0035ebbdb"
        }
      }
    },
    {
      "fullUrl": "urn:uuid:e5f4a90e-78aa-4495-bc21-2bfa399ab7cf",
      "resource": {
        "resourceType": "Observation",
        "id": "e5f4a90e-78aa-4495-bc21-2bfa399ab7cf",
        "meta": {
          "profile": [
            "http://hl7.eu/fhir/laboratory/StructureDefinition/Observation-resultslab-eu-lab"
          ]
        },
        "performer": [
          {
            "display": "The Central European Lab"
          }
        ],
        "category": [
          {
            "coding": [
              {
                "system": "http://terminology.hl7.org/CodeSystem/observation-category",
                "code": "laboratory"
              }
            ]
          }
        ],
        "code": {
          "coding": [
            {
              "code": "718-7",
              "system": "http://loinc.org",
              "display": "Hemoglobin [Mass/volume] in Blood"
            }
          ],
          "text": "Hemoglobin [Mass/volume] in Blood"
        },
        "valueQuantity": {
          "system": "http://unitsofmeasure.org",
          "value": 14.4,
          "unit": "g/dL",
          "code": "g/dL"
        },
        "referenceRange": [
          {
            "low": {
              "value": 12,
              "code": "g/dL",
              "system": "http://unitsofmeasure.org"
            }
          },
          {
            "high": {
              "value": 16,
              "code": "g/dL",
              "system": "http://unitsofmeasure.org"
            }
          }
        ],
        "text": {
          "status": "generated",
          "div": "<div xmlns=\"http://www.w3.org/1999/xhtml\"><table class=\"hl7__eu__lab__report\"><tr><th>Test</th><th>06-Nov-2018</th><th>Reference&#xA0;Range</th><th>Unit</th></tr><tr><td>Hemoglobin [Mass/volume] in Blood</td><td>14.4</td><td>12 - 16</td><td></td><td>g/dL</td></tr></table></div>"
        },
        "status": "final",
        "subject": {
          "reference": "urn:uuid:d8f72983-a140-49c9-a76d-c7d36c9b55ee",
          "display": "Louise Köster"
        },
        "effectiveDateTime": "2018-11-06T04:02:53Z",
        "specimen": {
          "reference": "urn:uuid:69d309c7-f4d4-4948-b69c-7bd0035ebbdb"
        }
      }
    },
    {
      "fullUrl": "urn:uuid:3902040f-92d4-41aa-bdea-80cb6ea2e1ef",
      "resource": {
        "resourceType": "Observation",
        "id": "3902040f-92d4-41aa-bdea-80cb6ea2e1ef",
        "meta": {
          "profile": [
            "http://hl7.eu/fhir/laboratory/StructureDefinition/Observation-resultslab-eu-lab"
          ]
        },
        "performer": [
          {
            "display": "The Central European Lab"
          }
        ],
        "category": [
          {
            "coding": [
              {
                "system": "http://terminology.hl7.org/CodeSystem/observation-category",
                "code": "laboratory"
              }
            ]
          }
        ],
        "code": {
          "coding": [
            {
              "code": "4544-3",
              "system": "http://loinc.org",
              "display": "Hematocrit [Volume Fraction] of Blood by Automated count"
            }
          ],
          "text": "Hematocrit [Volume Fraction] of Blood by Automated count"
        },
        "valueQuantity": {
          "system": "http://unitsofmeasure.org",
          "value": 47.2,
          "unit": "%",
          "code": "%"
        },
        "referenceRange": [
          {
            "low": {
              "value": 36,
              "code": "%",
              "system": "http://unitsofmeasure.org"
            }
          },
          {
            "high": {
              "value": 48,
              "code": "%",
              "system": "http://unitsofmeasure.org"
            }
          }
        ],
        "text": {
          "status": "generated",
          "div": "<div xmlns=\"http://www.w3.org/1999/xhtml\"><table class=\"hl7__eu__lab__report\"><tr><th>Test</th><th>06-Nov-2018</th><th>Reference&#xA0;Range</th><th>Unit</th></tr><tr><td>Hematocrit [Volume Fraction] of Blood by Automated count</td><td>47.2</td><td>36 - 48</td><td></td><td>%</td></tr></table></div>"
        },
        "status": "final",
        "subject": {
          "reference": "urn:uuid:d8f72983-a140-49c9-a76d-c7d36c9b55ee",
          "display": "Louise Köster"
        },
        "effectiveDateTime": "2018-11-06T04:02:53Z",
        "specimen": {
          "reference": "urn:uuid:69d309c7-f4d4-4948-b69c-7bd0035ebbdb"
        }
      }
    },
    {
      "fullUrl": "urn:uuid:dcc3e13e-4516-4037-9538-fad705711d89",
      "resource": {
        "resourceType": "Observation",
        "id": "dcc3e13e-4516-4037-9538-fad705711d89",
        "meta": {
          "profile": [
            "http://hl7.eu/fhir/laboratory/StructureDefinition/Observation-resultslab-eu-lab"
          ]
        },
        "performer": [
          {
            "display": "The Central European Lab"
          }
        ],
        "category": [
          {
            "coding": [
              {
                "system": "http://terminology.hl7.org/CodeSystem/observation-category",
                "code": "laboratory"
              }
            ]
          }
        ],
        "code": {
          "coding": [
            {
              "code": "787-2",
              "system": "http://loinc.org",
              "display": "MCV [Entitic volume] by Automated count"
            }
          ],
          "text": "MCV [Entitic volume] by Automated count"
        },
        "valueQuantity": {
          "system": "http://unitsofmeasure.org",
          "value": 93,
          "unit": "fL",
          "code": "fL"
        },
        "referenceRange": [
          {
            "low": {
              "value": 82,
              "code": "fL",
              "system": "http://unitsofmeasure.org"
            }
          },
          {
            "high": {
              "value": 98,
              "code": "fL",
              "system": "http://unitsofmeasure.org"
            }
          }
        ],
        "text": {
          "status": "generated",
          "div": "<div xmlns=\"http://www.w3.org/1999/xhtml\"><table class=\"hl7__eu__lab__report\"><tr><th>Test</th><th>06-Nov-2018</th><th>Reference&#xA0;Range</th><th>Unit</th></tr><tr><td>MCV [Entitic volume] by Automated count</td><td>93.0</td><td>82 - 98</td><td></td><td>fL</td></tr></table></div>"
        },
        "status": "final",
        "subject": {
          "reference": "urn:uuid:d8f72983-a140-49c9-a76d-c7d36c9b55ee",
          "display": "Louise Köster"
        },
        "effectiveDateTime": "2018-11-06T04:02:53Z",
        "specimen": {
          "reference": "urn:uuid:69d309c7-f4d4-4948-b69c-7bd0035ebbdb"
        }
      }
    },
    {
      "fullUrl": "urn:uuid:2321193e-4a18-4916-b9d0-2994fbe16be3",
      "resource": {
        "resourceType": "Observation",
        "id": "2321193e-4a18-4916-b9d0-2994fbe16be3",
        "meta": {
          "profile": [
            "http://hl7.eu/fhir/laboratory/StructureDefinition/Observation-resultslab-eu-lab"
          ]
        },
        "performer": [
          {
            "display": "The Central European Lab"
          }
        ],
        "category": [
          {
            "coding": [
              {
                "system": "http://terminology.hl7.org/CodeSystem/observation-category",
                "code": "laboratory"
              }
            ]
          }
        ],
        "code": {
          "coding": [
            {
              "code": "785-6",
              "system": "http://loinc.org",
              "display": "MCH [Entitic mass] by Automated count"
            }
          ],
          "text": "MCH [Entitic mass] by Automated count"
        },
        "valueQuantity": {
          "system": "http://unitsofmeasure.org",
          "value": 32.5,
          "unit": "pg",
          "code": "pg"
        },
        "referenceRange": [
          {
            "low": {
              "value": 27,
              "code": "pg",
              "system": "http://unitsofmeasure.org"
            }
          },
          {
            "high": {
              "value": 34,
              "code": "pg",
              "system": "http://unitsofmeasure.org"
            }
          }
        ],
        "text": {
          "status": "generated",
          "div": "<div xmlns=\"http://www.w3.org/1999/xhtml\"><table class=\"hl7__eu__lab__report\"><tr><th>Test</th><th>06-Nov-2018</th><th>Reference&#xA0;Range</th><th>Unit</th></tr><tr><td>MCH [Entitic mass] by Automated count</td><td>32.5</td><td>27 - 34</td><td></td><td>pg</td></tr></table></div>"
        },
        "status": "final",
        "subject": {
          "reference": "urn:uuid:d8f72983-a140-49c9-a76d-c7d36c9b55ee",
          "display": "Louise Köster"
        },
        "effectiveDateTime": "2018-11-06T04:02:53Z",
        "specimen": {
          "reference": "urn:uuid:69d309c7-f4d4-4948-b69c-7bd0035ebbdb"
        }
      }
    },
    {
      "fullUrl": "urn:uuid:9c81ac00-cdc3-4129-8fc3-aeb9f0059e6c",
      "resource": {
        "resourceType": "Observation",
        "id": "9c81ac00-cdc3-4129-8fc3-aeb9f0059e6c",
        "meta": {
          "profile": [
            "http://hl7.eu/fhir/laboratory/StructureDefinition/Observation-resultslab-eu-lab"
          ]
        },
        "performer": [
          {
            "display": "The Central European Lab"
          }
        ],
        "category": [
          {
            "coding": [
              {
                "system": "http://terminology.hl7.org/CodeSystem/observation-category",
                "code": "laboratory"
              }
            ]
          }
        ],
        "code": {
          "coding": [
            {
              "code": "786-4",
              "system": "http://loinc.org",
              "display": "MCHC [Mass/volume] by Automated count"
            }
          ],
          "text": "MCHC [Mass/volume] by Automated count"
        },
        "valueQuantity": {
          "system": "http://unitsofmeasure.org",
          "value": 35.7,
          "unit": "g/dL",
          "code": "g/dL"
        },
        "referenceRange": [
          {
            "low": {
              "value": 31,
              "code": "g/dL",
              "system": "http://unitsofmeasure.org"
            }
          },
          {
            "high": {
              "value": 36,
              "code": "g/dL",
              "system": "http://unitsofmeasure.org"
            }
          }
        ],
        "text": {
          "status": "generated",
          "div": "<div xmlns=\"http://www.w3.org/1999/xhtml\"><table class=\"hl7__eu__lab__report\"><tr><th>Test</th><th>06-Nov-2018</th><th>Reference&#xA0;Range</th><th>Unit</th></tr><tr><td>MCHC [Mass/volume] by Automated count</td><td>35.7</td><td>31 - 36</td><td></td><td>g/dL</td></tr></table></div>"
        },
        "status": "final",
        "subject": {
          "reference": "urn:uuid:d8f72983-a140-49c9-a76d-c7d36c9b55ee",
          "display": "Louise Köster"
        },
        "effectiveDateTime": "2018-11-06T04:02:53Z",
        "specimen": {
          "reference": "urn:uuid:69d309c7-f4d4-4948-b69c-7bd0035ebbdb"
        }
      }
    },
    {
      "fullUrl": "urn:uuid:c2609247-904b-492c-a9a6-e4c8d7c98b8c",
      "resource": {
        "resourceType": "Observation",
        "id": "c2609247-904b-492c-a9a6-e4c8d7c98b8c",
        "meta": {
          "profile": [
            "http://hl7.eu/fhir/laboratory/StructureDefinition/Observation-resultslab-eu-lab"
          ]
        },
        "performer": [
          {
            "display": "The Central European Lab"
          }
        ],
        "category": [
          {
            "coding": [
              {
                "system": "http://terminology.hl7.org/CodeSystem/observation-category",
                "code": "laboratory"
              }
            ]
          }
        ],
        "code": {
          "coding": [
            {
              "code": "21000-5",
              "system": "http://loinc.org",
              "display": "Erythrocyte distribution width [Entitic volume] by Automated count"
            }
          ],
          "text": "Erythrocyte distribution width [Entitic volume] by Automated count"
        },
        "valueQuantity": {
          "system": "http://unitsofmeasure.org",
          "value": 41.6,
          "unit": "fL",
          "code": "fL"
        },
        "referenceRange": [
          {
            "low": {
              "value": 36,
              "code": "fL",
              "system": "http://unitsofmeasure.org"
            }
          },
          {
            "high": {
              "value": 56,
              "code": "fL",
              "system": "http://unitsofmeasure.org"
            }
          }
        ],
        "text": {
          "status": "generated",
          "div": "<div xmlns=\"http://www.w3.org/1999/xhtml\"><table class=\"hl7__eu__lab__report\"><tr><th>Test</th><th>06-Nov-2018</th><th>Reference&#xA0;Range</th><th>Unit</th></tr><tr><td>Erythrocyte distribution width [Entitic volume] by Automated count</td><td>41.6</td><td>36 - 56</td><td></td><td>fL</td></tr></table></div>"
        },
        "status": "final",
        "subject": {
          "reference": "urn:uuid:d8f72983-a140-49c9-a76d-c7d36c9b55ee",
          "display": "Louise Köster"
        },
        "effectiveDateTime": "2018-11-06T04:02:53Z",
        "specimen": {
          "reference": "urn:uuid:69d309c7-f4d4-4948-b69c-7bd0035ebbdb"
        }
      }
    },
    {
      "fullUrl": "urn:uuid:7cbd7eb9-4b0c-45c5-943d-448018af95f8",
      "resource": {
        "resourceType": "Observation",
        "id": "7cbd7eb9-4b0c-45c5-943d-448018af95f8",
        "meta": {
          "profile": [
            "http://hl7.eu/fhir/laboratory/StructureDefinition/Observation-resultslab-eu-lab"
          ]
        },
        "performer": [
          {
            "display": "The Central European Lab"
          }
        ],
        "category": [
          {
            "coding": [
              {
                "system": "http://terminology.hl7.org/CodeSystem/observation-category",
                "code": "laboratory"
              }
            ]
          }
        ],
        "code": {
          "coding": [
            {
              "code": "777-3",
              "system": "http://loinc.org",
              "display": "Platelets [#/volume] in Blood by Automated count"
            }
          ],
          "text": "Platelets [#/volume] in Blood by Automated count"
        },
        "valueQuantity": {
          "system": "http://unitsofmeasure.org",
          "value": 414.5,
          "unit": "10*3/uL",
          "code": "10*3/uL"
        },
        "referenceRange": [
          {
            "low": {
              "value": 150,
              "code": "10*3/uL",
              "system": "http://unitsofmeasure.org"
            }
          },
          {
            "high": {
              "value": 450,
              "code": "10*3/uL",
              "system": "http://unitsofmeasure.org"
            }
          }
        ],
        "text": {
          "status": "generated",
          "div": "<div xmlns=\"http://www.w3.org/1999/xhtml\"><table class=\"hl7__eu__lab__report\"><tr><th>Test</th><th>06-Nov-2018</th><th>Reference&#xA0;Range</th><th>Unit</th></tr><tr><td>Platelets [#/volume] in Blood by Automated count</td><td>414.5</td><td>150 - 450</td><td></td><td>10*3/uL</td></tr></table></div>"
        },
        "status": "final",
        "subject": {
          "reference": "urn:uuid:d8f72983-a140-49c9-a76d-c7d36c9b55ee",
          "display": "Louise Köster"
        },
        "effectiveDateTime": "2018-11-06T04:02:53Z",
        "specimen": {
          "reference": "urn:uuid:69d309c7-f4d4-4948-b69c-7bd0035ebbdb"
        }
      }
    },
    {
      "fullUrl": "urn:uuid:dcbe3ed6-9777-4f14-b80c-1e2bb950d791",
      "resource": {
        "resourceType": "Observation",
        "id": "dcbe3ed6-9777-4f14-b80c-1e2bb950d791",
        "meta": {
          "profile": [
            "http://hl7.eu/fhir/laboratory/StructureDefinition/Observation-resultslab-eu-lab"
          ]
        },
        "performer": [
          {
            "display": "The Central European Lab"
          }
        ],
        "category": [
          {
            "coding": [
              {
                "system": "http://terminology.hl7.org/CodeSystem/observation-category",
                "code": "laboratory"
              }
            ]
          }
        ],
        "code": {
          "coding": [
            {
              "code": "32207-3",
              "system": "http://loinc.org",
              "display": "Platelet distribution width [Entitic volume] in Blood by Automated count"
            }
          ],
          "text": "Platelet distribution width [Entitic volume] in Blood by Automated count"
        },
        "valueQuantity": {
          "system": "http://unitsofmeasure.org",
          "value": 252.8,
          "unit": "fL",
          "code": "fL"
        },
        "referenceRange": [
          {
            "low": {
              "value": 11.6,
              "code": "fL",
              "system": "http://unitsofmeasure.org"
            }
          },
          {
            "high": {
              "value": 17.4,
              "code": "fL",
              "system": "http://unitsofmeasure.org"
            }
          }
        ],
        "interpretation": [
          {
            "coding": [
              {
                "code": "H",
                "system": "http://terminology.hl7.org/CodeSystem/v3-ObservationInterpretation",
                "display": "High"
              }
            ]
          }
        ],
        "text": {
          "status": "generated",
          "div": "<div xmlns=\"http://www.w3.org/1999/xhtml\"><table class=\"hl7__eu__lab__report\"><tr><th>Test</th><th>06-Nov-2018</th><th>Reference&#xA0;Range</th><th>Unit</th></tr><tr><td>Platelet distribution width [Entitic volume] in Blood by Automated count</td><td>252.8</td><td>11.6 - 17.4</td><td>H</td><td>fL</td></tr></table></div>"
        },
        "status": "final",
        "subject": {
          "reference": "urn:uuid:d8f72983-a140-49c9-a76d-c7d36c9b55ee",
          "display": "Louise Köster"
        },
        "effectiveDateTime": "2018-11-06T04:02:53Z",
        "specimen": {
          "reference": "urn:uuid:69d309c7-f4d4-4948-b69c-7bd0035ebbdb"
        }
      }
    },
    {
      "fullUrl": "urn:uuid:c2e95e90-9385-4542-9d74-f5eb66418ecd",
      "resource": {
        "resourceType": "Observation",
        "id": "c2e95e90-9385-4542-9d74-f5eb66418ecd",
        "meta": {
          "profile": [
            "http://hl7.eu/fhir/laboratory/StructureDefinition/Observation-resultslab-eu-lab"
          ]
        },
        "performer": [
          {
            "display": "The Central European Lab"
          }
        ],
        "category": [
          {
            "coding": [
              {
                "system": "http://terminology.hl7.org/CodeSystem/observation-category",
                "code": "laboratory"
              }
            ]
          }
        ],
        "code": {
          "coding": [
            {
              "code": "32623-1",
              "system": "http://loinc.org",
              "display": "Platelet mean volume [Entitic volume] in Blood by Automated count"
            }
          ],
          "text": "Platelet mean volume [Entitic volume] in Blood by Automated count"
        },
        "valueQuantity": {
          "system": "http://unitsofmeasure.org",
          "value": 10.8,
          "unit": "fL",
          "code": "fL"
        },
        "referenceRange": [
          {
            "low": {
              "value": 9.4,
              "code": "fL",
              "system": "http://unitsofmeasure.org"
            }
          },
          {
            "high": {
              "value": 14,
              "code": "fL",
              "system": "http://unitsofmeasure.org"
            }
          }
        ],
        "text": {
          "status": "generated",
          "div": "<div xmlns=\"http://www.w3.org/1999/xhtml\"><table class=\"hl7__eu__lab__report\"><tr><th>Test</th><th>06-Nov-2018</th><th>Reference&#xA0;Range</th><th>Unit</th></tr><tr><td>Platelet mean volume [Entitic volume] in Blood by Automated count</td><td>10.8</td><td>9.4 - 14</td><td></td><td>fL</td></tr></table></div>"
        },
        "status": "final",
        "subject": {
          "reference": "urn:uuid:d8f72983-a140-49c9-a76d-c7d36c9b55ee",
          "display": "Louise Köster"
        },
        "effectiveDateTime": "2018-11-06T04:02:53Z",
        "specimen": {
          "reference": "urn:uuid:69d309c7-f4d4-4948-b69c-7bd0035ebbdb"
        }
      }
    },
    {
      "fullUrl": "urn:uuid:70124bf9-ed9d-46db-8ddd-4eb1e804bcf2",
      "resource": {
        "resourceType": "Device",
        "id": "70124bf9-ed9d-46db-8ddd-4eb1e804bcf2",
        "deviceName": [
          {
            "name": "SYNDERAI Synthetic Generator",
            "type": "manufacturer-name"
          }
        ],
        "version": [
          {
            "value": "5.0"
          }
        ],
        "text": {
          "status": "generated",
          "div": "<div xmlns=\"http://www.w3.org/1999/xhtml\">SYNDERAI Synthetic Generator v5.0</div>"
        },
        "status": "active\"",
        "distinctIdentifier": "synderai-generator-50",
        "manufacturer": "SYNDERAI Project"
      }
    },
    {
      "fullUrl": "urn:uuid:80f98dd2-604a-495f-901a-c3bb63e3a046",
      "resource": {
        "resourceType": "Provenance",
        "id": "80f98dd2-604a-495f-901a-c3bb63e3a046",
        "target": [
          {
            "reference": "Patient/d8f72983-a140-49c9-a76d-c7d36c9b55ee"
          },
          {
            "reference": "Bundle/c3de6f51-e0af-4932-94ef-cb9e85984763"
          },
          {
            "reference": "Composition/b289b4d3-6f38-493c-99eb-702cc8369b86"
          },
          {
            "reference": "PractitionerRole/36e7be5c-2633-41c6-8774-4c8d20e4619f"
          },
          {
            "reference": "Practitioner/10559987-e3b2-4943-92df-30c594d85f0a"
          },
          {
            "reference": "PractitionerRole/83ac3b67-e609-41ac-86b3-f8bd8752e99d"
          },
          {
            "reference": "Organization/e69704dd-20e0-45cf-8733-2874b2c548c3"
          }
        ],
        "activity": {
          "text": "Synthetic Example Data Generation"
        },
        "policy": [
          "https://synderai.net/synderai-synthetic-data-policy"
        ],
        "agent": [
          {
            "type": {
              "text": "author"
            },
            "who": {
              "reference": "Device/70124bf9-ed9d-46db-8ddd-4eb1e804bcf2"
            }
          }
        ],
        "reason": [
          {
            "text": "Interoperability Testing and Training (non-clinical use)"
          }
        ],
        "text": {
          "status": "generated",
          "div": "<div xmlns=\"http://www.w3.org/1999/xhtml\">Provenance for SYNDERAI Synthetic Example Data Resource</div>"
        },
        "recorded": "2018-11-06T05:02:53Z"
      }
    },
    {
      "fullUrl": "urn:uuid:36e7be5c-2633-41c6-8774-4c8d20e4619f",
      "resource": {
        "resourceType": "PractitionerRole",
        "id": "36e7be5c-2633-41c6-8774-4c8d20e4619f",
        "meta": {
          "profile": [
            "http://hl7.eu/fhir/base/StructureDefinition/practitionerRole-eu"
          ]
        },
        "text": {
          "status": "generated",
          "div": "<div xmlns=\"http://www.w3.org/1999/xhtml\">Laboratory Role Id: 36e7be5c-2633-41c6-8774-4c8d20e4619f</div>"
        },
        "practitioner": {
          "reference": "urn:uuid:10559987-e3b2-4943-92df-30c594d85f0a"
        }
      }
    },
    {
      "fullUrl": "urn:uuid:10559987-e3b2-4943-92df-30c594d85f0a",
      "resource": {
        "resourceType": "Practitioner",
        "id": "10559987-e3b2-4943-92df-30c594d85f0a",
        "meta": {
          "profile": [
            "http://hl7.eu/fhir/base/StructureDefinition/practitioner-eu"
          ]
        },
        "identifier": [
          {
            "assigner": {
              "display": "HL7 Europe"
            },
            "system": "urn:oid:2.16.840.1.113883.2.51.999",
            "value": "a94c9ea6-88a9-48cc-9a54-62e4c9d1bd7c"
          }
        ],
        "name": [
          {
            "prefix": [
              "dr"
            ],
            "given": [
              "Ex"
            ],
            "family": "Ample"
          }
        ],
        "address": [
          {
            "line": [
              "Laboratoire Central Européenne",
              "Boulevard du Jardin Botanique 32"
            ],
            "postalCode": "1000",
            "city": "Brussels",
            "country": "Belgium"
          }
        ],
        "text": {
          "status": "generated",
          "div": "<div xmlns=\"http://www.w3.org/1999/xhtml\">Laboratory: Laboratoire Central Européenne, 1000 Brussels, Belgium</div>"
        }
      }
    }
  ],
  "type": "document",
  "timestamp": "2018-11-06T05:02:53Z"
}
