{
  "resourceType": "Bundle",
  "id": "16453383-707f-4dea-bf86-b0c6bb454d96",
  "meta": {
    "profile": [
      "http://hl7.eu/fhir/laboratory/StructureDefinition/Bundle-eu-lab"
    ]
  },
  "identifier": {
    "assigner": {
      "display": "HL7 Europe"
    },
    "system": "urn:oid:2.16.840.1.113883.2.51.999",
    "value": "641fa84f-c91d-4dd6-80d0-96ae176c0964"
  },
  "entry": [
    {
      "fullUrl": "urn:uuid:ae7b7699-4aed-4b03-9576-19f4c14b5aec",
      "resource": {
        "resourceType": "Composition",
        "id": "ae7b7699-4aed-4b03-9576-19f4c14b5aec",
        "meta": {
          "profile": [
            "http://hl7.eu/fhir/laboratory/StructureDefinition/Composition-eu-lab"
          ]
        },
        "identifier": {
          "assigner": {
            "display": "HL7 Europe"
          },
          "system": "urn:oid:2.16.840.1.113883.2.51.999",
          "value": "453176ab-4c66-4629-8997-8b896571cb9e"
        },
        "author": [
          {
            "reference": "urn:uuid:5d3f611f-b021-42ac-b790-d032e3c0a4c9"
          }
        ],
        "category": [
          {
            "coding": [
              {
                "code": "26436-6",
                "system": "http://loinc.org",
                "display": "Laboratory studies (set)"
              }
            ]
          }
        ],
        "type": {
          "coding": [
            {
              "code": "11502-2",
              "system": "http://loinc.org",
              "display": "Laboratory report"
            }
          ],
          "text": "Laboratory Report"
        },
        "section": [
          {
            "code": {
              "coding": [
                {
                  "code": "26436-6",
                  "system": "http://loinc.org",
                  "display": "Laboratory studies (set)"
                }
              ],
              "text": "Laboratory studies"
            },
            "section": [
              {
                "code": {
                  "coding": [
                    {
                      "code": "$18719-5",
                      "system": "http://loinc.org",
                      "display": "Chemistry studies (set)"
                    }
                  ],
                  "text": "Chemistry"
                },
                "entry": [
                  {
                    "reference": "urn:uuid:d684e2b4-9a25-4bde-a7b7-f544d7db9aad"
                  },
                  {
                    "reference": "urn:uuid:d28ea72e-cfdb-4b68-8b0f-b91331d3ff23"
                  },
                  {
                    "reference": "urn:uuid:d8956a97-31eb-4f71-b9ee-840046c0cb34"
                  },
                  {
                    "reference": "urn:uuid:649e8869-a6ad-48a4-9177-53a8594effed"
                  },
                  {
                    "reference": "urn:uuid:6b64a309-26ba-417b-913d-5794b19adba8"
                  },
                  {
                    "reference": "urn:uuid:88350c04-0ec2-40ae-9186-2aceae95a9fc"
                  },
                  {
                    "reference": "urn:uuid:086bf885-0aaf-483a-bf52-260005a8789d"
                  },
                  {
                    "reference": "urn:uuid:34e361a6-d67d-4600-9cfa-630ce246bd20"
                  },
                  {
                    "reference": "urn:uuid:f03d6a7d-2c37-4a54-86ee-a92ad242f130"
                  },
                  {
                    "reference": "urn:uuid:4da31e8b-2832-4893-93d9-925fe6e59edd"
                  },
                  {
                    "reference": "urn:uuid:001f15c0-519f-4c73-9ba6-a7caf00e4cc1"
                  },
                  {
                    "reference": "urn:uuid:d8f67a27-0b2d-40f5-8df0-2a28d9a90b2e"
                  },
                  {
                    "reference": "urn:uuid:89662307-aee4-4e5e-9817-1461261691bb"
                  },
                  {
                    "reference": "urn:uuid:39e88d15-1da6-4509-835a-e993b584ded1"
                  },
                  {
                    "reference": "urn:uuid:edb46b53-0f22-4f48-82f6-c6a3649e8328"
                  },
                  {
                    "reference": "urn:uuid:d214fe65-4ced-47b3-a091-40d95ba76ac0"
                  },
                  {
                    "reference": "urn:uuid:80208cd4-9984-4447-a1c4-f438357b903e"
                  },
                  {
                    "reference": "urn:uuid:e5c2f0c7-4d06-4010-856e-da32d2d4fa76"
                  }
                ],
                "text": {
                  "status": "generated",
                  "div": "<div xmlns=\"http://www.w3.org/1999/xhtml\"><h3>Chemistry</h3><table class=\"hl7__eu__lab__report\"><thead><tr><th>Test</th><th>02-FEB-2025</th><th>Reference&#xA0;Range</th><th>Unit</th></tr></thead><tbody><tr><td>Glucose [Mass/volume] in Serum or Plasma</td><td>78.0</td><td>70 - 99</td><td>mg/dL</td></tr><tr><td>Urea nitrogen [Mass/volume] in Serum or Plasma</td><td>19.0</td><td>7 - 20</td><td>mg/dL</td></tr><tr><td>Creatinine [Mass/volume] in Serum or Plasma</td><td><strong>1.9 H</strong></td><td>0.6 - 1.3</td><td>mg/dL</td></tr><tr><td>Calcium [Mass/volume] in Serum or Plasma</td><td>10.2</td><td>8.6 - 10.4</td><td>mg/dL</td></tr><tr><td>Sodium [Moles/volume] in Serum or Plasma</td><td>141.4</td><td>135 - 145</td><td>mmol/L</td></tr><tr><td>Potassium [Moles/volume] in Serum or Plasma</td><td>4.6</td><td>3.5 - 5</td><td>mmol/L</td></tr><tr><td>Chloride [Moles/volume] in Serum or Plasma</td><td>102.5</td><td>98 - 106</td><td>mmol/L</td></tr><tr><td>Carbon dioxide, total [Moles/volume] in Serum or Plasma</td><td>26.1</td><td>22 - 29</td><td>mmol/L</td></tr><tr><td>Ketones [Presence] in Urine by Test strip</td><td>Urine ketone test = +</td><td></td><td></td></tr><tr><td>Hemoglobin A1c/Hemoglobin.total in Blood</td><td><strong>3.2 L</strong></td><td>4 - 6</td><td>%</td></tr><tr><td>Glucose [Mass/volume] in Blood</td><td>78.0</td><td>70 - 140</td><td>mg/dL</td></tr><tr><td>Urea nitrogen [Mass/volume] in Blood</td><td>19.0</td><td>7 - 25</td><td>mg/dL</td></tr><tr><td>Creatinine [Mass/volume] in Blood</td><td><strong>1.4 H</strong></td><td>0.6 - 1.1</td><td>mg/dL</td></tr><tr><td>Calcium [Mass/volume] in Blood</td><td>10.2</td><td>8.6 - 10.4</td><td>mg/dL</td></tr><tr><td>Sodium [Moles/volume] in Blood</td><td>141.4</td><td>135 - 145</td><td>mmol/L</td></tr><tr><td>Potassium [Moles/volume] in Blood</td><td>4.6</td><td>3.5 - 5.1</td><td>mmol/L</td></tr><tr><td>Chloride [Moles/volume] in Blood</td><td>102.5</td><td>98 - 110</td><td>mmol/L</td></tr><tr><td>Carbon dioxide, total [Moles/volume] in Blood</td><td>26.1</td><td>22 - 29</td><td>mmol/L</td></tr></tbody></table></div>"
                },
                "title": "Chemistry"
              },
              {
                "code": {
                  "coding": [
                    {
                      "code": "$18729-4",
                      "system": "http://loinc.org",
                      "display": "Urinalysis studies (set)"
                    }
                  ],
                  "text": "Urinalysis"
                },
                "entry": [
                  {
                    "reference": "urn:uuid:89fb5c0a-c1da-4d25-bd6f-354612e2bc9c"
                  },
                  {
                    "reference": "urn:uuid:f1225825-7fe0-4a67-9a38-515d0b0c080f"
                  },
                  {
                    "reference": "urn:uuid:512aa891-b45d-4448-800e-8bf20d835b05"
                  },
                  {
                    "reference": "urn:uuid:bf972e61-1615-48e9-8404-9bc99a6bd2ae"
                  },
                  {
                    "reference": "urn:uuid:b6b06e10-06c6-4490-8648-c5429fb0f583"
                  },
                  {
                    "reference": "urn:uuid:70cdea36-8151-4ce2-b3fc-081c655ddff8"
                  },
                  {
                    "reference": "urn:uuid:1924a514-3e41-49b0-8eed-1c145dd47356"
                  },
                  {
                    "reference": "urn:uuid:24d0f832-aead-46d4-a326-c12bd27a081e"
                  },
                  {
                    "reference": "urn:uuid:2f84341e-7b34-471a-b713-599b5684fdf3"
                  },
                  {
                    "reference": "urn:uuid:19698288-6c13-4751-9115-acaa1a1ac182"
                  },
                  {
                    "reference": "urn:uuid:8d9a3154-5d29-485c-9fd3-fa3ae75e0417"
                  },
                  {
                    "reference": "urn:uuid:048897e4-6944-4a39-9a80-6dfde77cfc29"
                  }
                ],
                "text": {
                  "status": "generated",
                  "div": "<div xmlns=\"http://www.w3.org/1999/xhtml\"><h3>Urinalysis</h3><table class=\"hl7__eu__lab__report\"><thead><tr><th>Test</th><th>02-FEB-2025</th><th>Reference&#xA0;Range</th><th>Unit</th></tr></thead><tbody><tr><td>Glucose [Mass/volume] in Urine by Test strip</td><td><strong>1.3 H</strong></td><td>0 - 0.8</td><td>mg/dL</td></tr><tr><td>Glucose [Presence] in Urine by Test strip</td><td>++</td><td></td><td></td></tr><tr><td>Bilirubin.total [Mass/volume] in Urine by Test strip</td><td><strong>1.1 H</strong></td><td>0 - 1</td><td>mg/dL</td></tr><tr><td>Bilirubin.total [Presence] in Urine by Test strip</td><td>Finding of bilirubin in urine</td><td></td><td></td></tr><tr><td>Ketones [Mass/volume] in Urine by Test strip</td><td><strong>6.9 H</strong></td><td>0 - 4</td><td>mg/dL</td></tr><tr><td>Specific gravity of Urine by Test strip</td><td><strong>1.0 L</strong></td><td>1.005 - 1.03</td><td>{nominal}</td></tr><tr><td>pH of Urine by Test strip</td><td>6.8</td><td>4.5 - 7</td><td>pH</td></tr><tr><td>Protein [Mass/volume] in Urine by Test strip</td><td><strong>270.2 H</strong></td><td>0 - 145</td><td>mg/dL</td></tr><tr><td>Protein [Presence] in Urine by Test strip</td><td>Urine protein test = ++</td><td></td><td></td></tr><tr><td>Nitrite [Presence] in Urine by Test strip</td><td>Urine nitrite negative</td><td></td><td></td></tr><tr><td>Hemoglobin [Presence] in Urine by Test strip</td><td>Urine blood test = negative</td><td></td><td></td></tr><tr><td>Leukocyte esterase [Presence] in Urine by Test strip</td><td>Urine leukocyte test negative</td><td></td><td></td></tr></tbody></table></div>"
                },
                "title": "Urinalysis"
              },
              {
                "code": {
                  "coding": [
                    {
                      "code": "$LP7846-1",
                      "system": "http://loinc.org",
                      "display": "Specimen information"
                    }
                  ],
                  "text": "Specimen information"
                },
                "entry": [
                  {
                    "reference": "urn:uuid:e3645e45-0452-4a88-ae35-bfb3b6806867"
                  },
                  {
                    "reference": "urn:uuid:57b09d1e-f48a-4eeb-aa0a-fca69e674bc1"
                  },
                  {
                    "reference": "urn:uuid:daac2e09-d63a-4892-9df0-e5374feb0260"
                  },
                  {
                    "reference": "urn:uuid:4bc6934c-8d44-4def-b845-0d339599f1f6"
                  }
                ],
                "text": {
                  "status": "generated",
                  "div": "<div xmlns=\"http://www.w3.org/1999/xhtml\"><h3>Specimen information</h3><table class=\"hl7__eu__lab__report\"><thead><tr><th>Test</th><th>02-FEB-2025</th><th>Specimen</th><th></th></tr></thead><tbody><tr><td>Appearance of Urine</td><td>Cloudy urine</td><td>Urine</td><td></td></tr><tr><td>Odor of Urine</td><td>Urine smell ammoniacal</td><td>Urine</td><td></td></tr><tr><td>Clarity of Urine</td><td>Translucent</td><td>Urine</td><td></td></tr><tr><td>Color of Urine</td><td>Brown color</td><td>Urine</td><td></td></tr></tbody></table></div>"
                },
                "title": "Specimen information"
              }
            ],
            "title": "Laboratory Report"
          },
          {
            "text": {
              "status": "generated",
              "div": "<div xmlns=\"http://www.w3.org/1999/xhtml\"><h3>Annotation</h3><table class=\"hl7__eu__lab__report\"><tr><th>Conclusion and Recommendations based on this report and previous findings known to us</th></tr><tr><td>The patient shows elevated creatinine, proteinuria, glucosuria, ketonuria, and bilirubinuria, with low urine specific gravity and brown, cloudy urine. These findings suggest impaired renal function, possible nephrotic syndrome or acute kidney injury, and possible hepatic involvement. The low HbA1c and normal blood glucose argue against chronic hyperglycemia. Recommend further nephrological and hepatic evaluation and clinical correlation for possible acute or chronic renal and/or hepatic pathology.</td></tr></table></div>"
            },
            "code": {
              "coding": [
                {
                  "system": "http://loinc.org",
                  "code": "48767-8",
                  "display": "Annotation comment"
                }
              ]
            },
            "title": "Annotation comment"
          }
        ],
        "status": "final",
        "subject": {
          "reference": "urn:uuid:b3d6ccb3-6519-41c3-9e77-df0b5fe23a91",
          "display": "Iva Kratochvílová"
        },
        "date": "2025-02-02T17:10:29Z",
        "title": "Laboratory Report",
        "confidentiality": "N"
      }
    },
    {
      "fullUrl": "urn:uuid:f2f00419-ced8-43e5-b3e5-7355c4ce1db5",
      "resource": {
        "resourceType": "DiagnosticReport",
        "id": "f2f00419-ced8-43e5-b3e5-7355c4ce1db5",
        "meta": {
          "profile": [
            "http://hl7.eu/fhir/laboratory/StructureDefinition/DiagnosticReport-eu-lab"
          ]
        },
        "identifier": [
          {
            "assigner": {
              "display": "HL7 Europe"
            },
            "system": "urn:oid:2.16.840.1.113883.2.51.999",
            "value": "3f4de131-b267-48a5-8b6b-9dc68d345233"
          }
        ],
        "extension": [
          {
            "url": "http://hl7.org/fhir/5.0/StructureDefinition/extension-DiagnosticReport.composition",
            "valueReference": {
              "reference": "urn:uuid:453176ab-4c66-4629-8997-8b896571cb9e"
            }
          }
        ],
        "category": [
          {
            "coding": [
              {
                "code": "26436-6",
                "system": "http://loinc.org",
                "display": "Laboratory studies (set)"
              }
            ]
          }
        ],
        "specimen": [
          {
            "reference": "urn:uuid:5e3112a5-6412-4e8b-bcab-03119543c701"
          },
          {
            "reference": "urn:uuid:db8a9348-c842-4169-96aa-c81f4b7a24c0"
          },
          {
            "reference": "urn:uuid:690fa7bf-a269-452c-9c2e-934fe355871f"
          }
        ],
        "result": [
          {
            "reference": "urn:uuid:d684e2b4-9a25-4bde-a7b7-f544d7db9aad"
          },
          {
            "reference": "urn:uuid:d28ea72e-cfdb-4b68-8b0f-b91331d3ff23"
          },
          {
            "reference": "urn:uuid:d8956a97-31eb-4f71-b9ee-840046c0cb34"
          },
          {
            "reference": "urn:uuid:649e8869-a6ad-48a4-9177-53a8594effed"
          },
          {
            "reference": "urn:uuid:6b64a309-26ba-417b-913d-5794b19adba8"
          },
          {
            "reference": "urn:uuid:88350c04-0ec2-40ae-9186-2aceae95a9fc"
          },
          {
            "reference": "urn:uuid:086bf885-0aaf-483a-bf52-260005a8789d"
          },
          {
            "reference": "urn:uuid:34e361a6-d67d-4600-9cfa-630ce246bd20"
          },
          {
            "reference": "urn:uuid:e3645e45-0452-4a88-ae35-bfb3b6806867"
          },
          {
            "reference": "urn:uuid:57b09d1e-f48a-4eeb-aa0a-fca69e674bc1"
          },
          {
            "reference": "urn:uuid:daac2e09-d63a-4892-9df0-e5374feb0260"
          },
          {
            "reference": "urn:uuid:4bc6934c-8d44-4def-b845-0d339599f1f6"
          },
          {
            "reference": "urn:uuid:89fb5c0a-c1da-4d25-bd6f-354612e2bc9c"
          },
          {
            "reference": "urn:uuid:f1225825-7fe0-4a67-9a38-515d0b0c080f"
          },
          {
            "reference": "urn:uuid:512aa891-b45d-4448-800e-8bf20d835b05"
          },
          {
            "reference": "urn:uuid:bf972e61-1615-48e9-8404-9bc99a6bd2ae"
          },
          {
            "reference": "urn:uuid:b6b06e10-06c6-4490-8648-c5429fb0f583"
          },
          {
            "reference": "urn:uuid:f03d6a7d-2c37-4a54-86ee-a92ad242f130"
          },
          {
            "reference": "urn:uuid:70cdea36-8151-4ce2-b3fc-081c655ddff8"
          },
          {
            "reference": "urn:uuid:1924a514-3e41-49b0-8eed-1c145dd47356"
          },
          {
            "reference": "urn:uuid:24d0f832-aead-46d4-a326-c12bd27a081e"
          },
          {
            "reference": "urn:uuid:2f84341e-7b34-471a-b713-599b5684fdf3"
          },
          {
            "reference": "urn:uuid:19698288-6c13-4751-9115-acaa1a1ac182"
          },
          {
            "reference": "urn:uuid:8d9a3154-5d29-485c-9fd3-fa3ae75e0417"
          },
          {
            "reference": "urn:uuid:048897e4-6944-4a39-9a80-6dfde77cfc29"
          },
          {
            "reference": "urn:uuid:4da31e8b-2832-4893-93d9-925fe6e59edd"
          },
          {
            "reference": "urn:uuid:001f15c0-519f-4c73-9ba6-a7caf00e4cc1"
          },
          {
            "reference": "urn:uuid:d8f67a27-0b2d-40f5-8df0-2a28d9a90b2e"
          },
          {
            "reference": "urn:uuid:89662307-aee4-4e5e-9817-1461261691bb"
          },
          {
            "reference": "urn:uuid:39e88d15-1da6-4509-835a-e993b584ded1"
          },
          {
            "reference": "urn:uuid:edb46b53-0f22-4f48-82f6-c6a3649e8328"
          },
          {
            "reference": "urn:uuid:d214fe65-4ced-47b3-a091-40d95ba76ac0"
          },
          {
            "reference": "urn:uuid:80208cd4-9984-4447-a1c4-f438357b903e"
          },
          {
            "reference": "urn:uuid:e5c2f0c7-4d06-4010-856e-da32d2d4fa76"
          }
        ],
        "status": "registered",
        "code": {
          "coding": [
            {
              "code": "11502-2",
              "system": "http://loinc.org",
              "display": "Laboratory report"
            }
          ]
        },
        "subject": {
          "reference": "urn:uuid:b3d6ccb3-6519-41c3-9e77-df0b5fe23a91",
          "display": "Iva Kratochvílová"
        }
      }
    },
    {
      "fullUrl": "urn:uuid:b3d6ccb3-6519-41c3-9e77-df0b5fe23a91",
      "resource": {
        "resourceType": "Patient",
        "id": "b3d6ccb3-6519-41c3-9e77-df0b5fe23a91",
        "meta": {
          "security": [
            {
              "system": "http://terminology.hl7.org/CodeSystem/v3-ActReason",
              "code": "HTEST"
            },
            {
              "system": "http://terminology.hl7.org/CodeSystem/v3-ActReason",
              "code": "TRAIN"
            }
          ],
          "tag": [
            {
              "system": "https://synderai.net/fhir/CodeSystem/tags",
              "code": "synthetic",
              "display": "SYNDERAI Synthetic data"
            }
          ],
          "profile": [
            "http://hl7.eu/fhir/base/StructureDefinition/patient-eu-core"
          ]
        },
        "identifier": [
          {
            "type": {
              "coding": [
                {
                  "code": "PT",
                  "system": "http://terminology.hl7.org/CodeSystem/v2-0203"
                }
              ]
            },
            "system": "http://ec.europa.eu/identifier/eci",
            "value": "4380-389488-0"
          },
          {
            "type": {
              "coding": [
                {
                  "code": "MR",
                  "system": "http://terminology.hl7.org/CodeSystem/v2-0203"
                }
              ]
            },
            "system": "http://local.setting.eu/identifier",
            "value": "f8f9ebdc-03dd-2fc0-819c-affa4ffd7f67"
          }
        ],
        "name": [
          {
            "family": "Kratochvílová"
          },
          {
            "given": [
              "Iva"
            ]
          },
          {
            "text": "Iva Kratochvílová"
          }
        ],
        "address": [
          {
            "line": [
              "Žofie Podlipské 4"
            ],
            "use": "home",
            "type": "physical",
            "postalCode": "27324",
            "city": "Postoloprty",
            "country": "Czechia"
          }
        ],
        "telecom": [
          {
            "system": "phone",
            "value": "00420 607 985 072"
          }
        ],
        "extension": [
          {
            "url": "http://hl7.org/fhir/StructureDefinition/patient-nationality",
            "valueCodeableConcept": {
              "coding": [
                {
                  "code": "CZ",
                  "system": "http://hl7.org/fhir/ValueSet/country"
                }
              ]
            }
          }
        ],
        "text": {
          "status": "generated",
          "div": "<div xmlns=\"http://www.w3.org/1999/xhtml\"><table class=\"hl7__ips\"><tr><td>Iva Kratochvílová</td><td>female</td><td>17-Sep-1964</td></tr></table></div>"
        },
        "gender": "female",
        "birthDate": "1964-09-17"
      }
    },
    {
      "fullUrl": "urn:uuid:408f397f-ff4b-4b8b-9bf8-572ebd6be7c5",
      "resource": {
        "resourceType": "ServiceRequest",
        "id": "408f397f-ff4b-4b8b-9bf8-572ebd6be7c5",
        "meta": {
          "profile": [
            "http://hl7.eu/fhir/laboratory/StructureDefinition/ServiceRequest-eu-lab"
          ]
        },
        "identifier": [
          {
            "system": "http://example.org",
            "value": "26ee2505-466d-404e-b1af-989404ae8801"
          }
        ],
        "specimen": [
          {
            "reference": "urn:uuid:5e3112a5-6412-4e8b-bcab-03119543c701"
          },
          {
            "reference": "urn:uuid:db8a9348-c842-4169-96aa-c81f4b7a24c0"
          },
          {
            "reference": "urn:uuid:690fa7bf-a269-452c-9c2e-934fe355871f"
          }
        ],
        "reasonCode": [
          {
            "coding": [
              {
                "code": "431856006",
                "system": "http://snomed.info/sct",
                "display": "Chronic kidney disease stage 2"
              }
            ]
          },
          {
            "coding": [
              {
                "code": "431855005",
                "system": "http://snomed.info/sct",
                "display": "Chronic kidney disease stage 1"
              }
            ]
          },
          {
            "coding": [
              {
                "code": "237602007",
                "system": "http://snomed.info/sct",
                "display": "Metabolic syndrome X"
              }
            ]
          },
          {
            "coding": [
              {
                "code": "91302008",
                "system": "http://snomed.info/sct",
                "display": "Sepsis"
              }
            ]
          },
          {
            "coding": [
              {
                "code": "271737000",
                "system": "http://snomed.info/sct",
                "display": "Anemia"
              }
            ]
          },
          {
            "coding": [
              {
                "code": "15777000",
                "system": "http://snomed.info/sct",
                "display": "Prediabetes"
              }
            ]
          },
          {
            "coding": [
              {
                "code": "157141000119108",
                "system": "http://snomed.info/sct",
                "display": "Proteinuria due to type 2 diabetes mellitus"
              }
            ]
          },
          {
            "coding": [
              {
                "code": "90781000119102",
                "system": "http://snomed.info/sct",
                "display": "Microalbuminuria due to type 2 diabetes mellitus"
              }
            ]
          },
          {
            "coding": [
              {
                "code": "239872002",
                "system": "http://snomed.info/sct",
                "display": "Osteoarthritis of hip"
              }
            ]
          },
          {
            "coding": [
              {
                "code": "40055000",
                "system": "http://snomed.info/sct",
                "display": "Chronic sinusitis"
              }
            ]
          },
          {
            "coding": [
              {
                "code": "127013003",
                "system": "http://snomed.info/sct",
                "display": "Disorder of kidney due to diabetes mellitus"
              }
            ]
          },
          {
            "coding": [
              {
                "code": "59621000",
                "system": "http://snomed.info/sct",
                "display": "Essential hypertension"
              }
            ]
          }
        ],
        "status": "active",
        "intent": "order",
        "code": {
          "coding": [
            {
              "code": "108252007",
              "system": "http://snomed.info/sct",
              "display": "Laboratory procedure"
            }
          ]
        },
        "subject": {
          "reference": "urn:uuid:b3d6ccb3-6519-41c3-9e77-df0b5fe23a91",
          "display": "Iva Kratochvílová"
        },
        "requester": {
          "reference": "urn:uuid:7535d564-d5d3-4677-9ec8-820a87c0edcd"
        }
      }
    },
    {
      "fullUrl": "urn:uuid:7535d564-d5d3-4677-9ec8-820a87c0edcd",
      "resource": {
        "resourceType": "PractitionerRole",
        "id": "7535d564-d5d3-4677-9ec8-820a87c0edcd",
        "meta": {
          "profile": [
            "http://hl7.eu/fhir/base/StructureDefinition/practitionerRole-eu"
          ]
        },
        "text": {
          "status": "generated",
          "div": "<div xmlns=\"http://www.w3.org/1999/xhtml\">Provider Role Id: 7535d564-d5d3-4677-9ec8-820a87c0edcd</div>"
        },
        "organization": {
          "reference": "urn:uuid:05465940-118c-47b1-8f2c-06fda655b665"
        }
      }
    },
    {
      "fullUrl": "urn:uuid:05465940-118c-47b1-8f2c-06fda655b665",
      "resource": {
        "resourceType": "Organization",
        "id": "05465940-118c-47b1-8f2c-06fda655b665",
        "meta": {
          "profile": [
            "http://hl7.eu/fhir/base/StructureDefinition/organization-eu"
          ]
        },
        "identifier": [
          {
            "assigner": {
              "display": "HL7 Europe"
            },
            "system": "urn:oid:2.16.840.1.113883.2.51.999",
            "value": "78663aa1-2469-4e03-9ea5-ce25451dbc49"
          }
        ],
        "address": [
          {
            "city": "Kadaň",
            "postalCode": "432 01",
            "country": "Czechia"
          }
        ],
        "text": {
          "status": "generated",
          "div": "<div xmlns=\"http://www.w3.org/1999/xhtml\">Provider Organization: Nemocnice s poliklinikou Kadaň</div>"
        },
        "name": "Nemocnice s poliklinikou Kadaň"
      }
    },
    {
      "fullUrl": "urn:uuid:5e3112a5-6412-4e8b-bcab-03119543c701",
      "resource": {
        "resourceType": "Specimen",
        "id": "5e3112a5-6412-4e8b-bcab-03119543c701",
        "meta": {
          "profile": [
            "http://hl7.eu/fhir/laboratory/StructureDefinition/Specimen-eu-lab"
          ]
        },
        "collection": {
          "collectedDateTime": "2025-02-02"
        },
        "text": {
          "status": "generated",
          "div": "<div xmlns=\"http://www.w3.org/1999/xhtml\"><table class=\"hl7__eu__lab__report\"><tr><th>Specimen</th><th>Collection Date</th></tr><tr><td>Acellular blood (serum or plasma) specimen</td><td><span class=\"nb\">02-Feb-2025</span></td></tr></table></div>"
        },
        "type": {
          "coding": [
            {
              "code": "122592007",
              "system": "http://snomed.info/sct",
              "display": "Acellular blood (serum or plasma) specimen"
            }
          ]
        }
      }
    },
    {
      "fullUrl": "urn:uuid:db8a9348-c842-4169-96aa-c81f4b7a24c0",
      "resource": {
        "resourceType": "Specimen",
        "id": "db8a9348-c842-4169-96aa-c81f4b7a24c0",
        "meta": {
          "profile": [
            "http://hl7.eu/fhir/laboratory/StructureDefinition/Specimen-eu-lab"
          ]
        },
        "collection": {
          "collectedDateTime": "2025-02-02"
        },
        "text": {
          "status": "generated",
          "div": "<div xmlns=\"http://www.w3.org/1999/xhtml\"><table class=\"hl7__eu__lab__report\"><tr><th>Specimen</th><th>Collection Date</th></tr><tr><td>Urine specimen</td><td><span class=\"nb\">02-Feb-2025</span></td></tr></table></div>"
        },
        "type": {
          "coding": [
            {
              "code": "122575003",
              "system": "http://snomed.info/sct",
              "display": "Urine specimen"
            }
          ]
        }
      }
    },
    {
      "fullUrl": "urn:uuid:690fa7bf-a269-452c-9c2e-934fe355871f",
      "resource": {
        "resourceType": "Specimen",
        "id": "690fa7bf-a269-452c-9c2e-934fe355871f",
        "meta": {
          "profile": [
            "http://hl7.eu/fhir/laboratory/StructureDefinition/Specimen-eu-lab"
          ]
        },
        "collection": {
          "collectedDateTime": "2025-02-02"
        },
        "text": {
          "status": "generated",
          "div": "<div xmlns=\"http://www.w3.org/1999/xhtml\"><table class=\"hl7__eu__lab__report\"><tr><th>Specimen</th><th>Collection Date</th></tr><tr><td>Whole blood specimen (specimen)</td><td><span class=\"nb\">02-Feb-2025</span></td></tr></table></div>"
        },
        "type": {
          "coding": [
            {
              "code": "258580003",
              "system": "http://snomed.info/sct",
              "display": "Whole blood specimen (specimen)"
            }
          ]
        }
      }
    },
    {
      "fullUrl": "urn:uuid:d684e2b4-9a25-4bde-a7b7-f544d7db9aad",
      "resource": {
        "resourceType": "Observation",
        "id": "d684e2b4-9a25-4bde-a7b7-f544d7db9aad",
        "meta": {
          "profile": [
            "http://hl7.eu/fhir/laboratory/StructureDefinition/Observation-resultslab-eu-lab"
          ]
        },
        "performer": [
          {
            "display": "The Central European Lab"
          }
        ],
        "category": [
          {
            "coding": [
              {
                "system": "http://terminology.hl7.org/CodeSystem/observation-category",
                "code": "laboratory"
              }
            ]
          }
        ],
        "code": {
          "coding": [
            {
              "code": "2345-7",
              "system": "http://loinc.org",
              "display": "Glucose [Mass/volume] in Serum or Plasma"
            }
          ],
          "text": "Glucose [Mass/volume] in Serum or Plasma"
        },
        "valueQuantity": {
          "system": "http://unitsofmeasure.org",
          "value": 78,
          "unit": "mg/dL",
          "code": "mg/dL"
        },
        "referenceRange": [
          {
            "low": {
              "value": 70,
              "code": "mg/dL",
              "system": "http://unitsofmeasure.org"
            }
          },
          {
            "high": {
              "value": 99,
              "code": "mg/dL",
              "system": "http://unitsofmeasure.org"
            }
          }
        ],
        "text": {
          "status": "generated",
          "div": "<div xmlns=\"http://www.w3.org/1999/xhtml\"><table class=\"hl7__eu__lab__report\"><tr><th>Test</th><th>02-Feb-2025</th><th>Reference&#xA0;Range</th><th>Unit</th></tr><tr><td>Glucose [Mass/volume] in Serum or Plasma</td><td>78.0</td><td>70 - 99</td><td></td><td>mg/dL</td></tr></table></div>"
        },
        "status": "final",
        "subject": {
          "reference": "urn:uuid:b3d6ccb3-6519-41c3-9e77-df0b5fe23a91",
          "display": "Iva Kratochvílová"
        },
        "effectiveDateTime": "2025-02-02T16:10:29Z",
        "specimen": {
          "reference": "urn:uuid:5e3112a5-6412-4e8b-bcab-03119543c701"
        }
      }
    },
    {
      "fullUrl": "urn:uuid:d28ea72e-cfdb-4b68-8b0f-b91331d3ff23",
      "resource": {
        "resourceType": "Observation",
        "id": "d28ea72e-cfdb-4b68-8b0f-b91331d3ff23",
        "meta": {
          "profile": [
            "http://hl7.eu/fhir/laboratory/StructureDefinition/Observation-resultslab-eu-lab"
          ]
        },
        "performer": [
          {
            "display": "The Central European Lab"
          }
        ],
        "category": [
          {
            "coding": [
              {
                "system": "http://terminology.hl7.org/CodeSystem/observation-category",
                "code": "laboratory"
              }
            ]
          }
        ],
        "code": {
          "coding": [
            {
              "code": "3094-0",
              "system": "http://loinc.org",
              "display": "Urea nitrogen [Mass/volume] in Serum or Plasma"
            }
          ],
          "text": "Urea nitrogen [Mass/volume] in Serum or Plasma"
        },
        "valueQuantity": {
          "system": "http://unitsofmeasure.org",
          "value": 19,
          "unit": "mg/dL",
          "code": "mg/dL"
        },
        "referenceRange": [
          {
            "low": {
              "value": 7,
              "code": "mg/dL",
              "system": "http://unitsofmeasure.org"
            }
          },
          {
            "high": {
              "value": 20,
              "code": "mg/dL",
              "system": "http://unitsofmeasure.org"
            }
          }
        ],
        "text": {
          "status": "generated",
          "div": "<div xmlns=\"http://www.w3.org/1999/xhtml\"><table class=\"hl7__eu__lab__report\"><tr><th>Test</th><th>02-Feb-2025</th><th>Reference&#xA0;Range</th><th>Unit</th></tr><tr><td>Urea nitrogen [Mass/volume] in Serum or Plasma</td><td>19.0</td><td>7 - 20</td><td></td><td>mg/dL</td></tr></table></div>"
        },
        "status": "final",
        "subject": {
          "reference": "urn:uuid:b3d6ccb3-6519-41c3-9e77-df0b5fe23a91",
          "display": "Iva Kratochvílová"
        },
        "effectiveDateTime": "2025-02-02T16:10:29Z",
        "specimen": {
          "reference": "urn:uuid:5e3112a5-6412-4e8b-bcab-03119543c701"
        }
      }
    },
    {
      "fullUrl": "urn:uuid:d8956a97-31eb-4f71-b9ee-840046c0cb34",
      "resource": {
        "resourceType": "Observation",
        "id": "d8956a97-31eb-4f71-b9ee-840046c0cb34",
        "meta": {
          "profile": [
            "http://hl7.eu/fhir/laboratory/StructureDefinition/Observation-resultslab-eu-lab"
          ]
        },
        "performer": [
          {
            "display": "The Central European Lab"
          }
        ],
        "category": [
          {
            "coding": [
              {
                "system": "http://terminology.hl7.org/CodeSystem/observation-category",
                "code": "laboratory"
              }
            ]
          }
        ],
        "code": {
          "coding": [
            {
              "code": "2160-0",
              "system": "http://loinc.org",
              "display": "Creatinine [Mass/volume] in Serum or Plasma"
            }
          ],
          "text": "Creatinine [Mass/volume] in Serum or Plasma"
        },
        "valueQuantity": {
          "system": "http://unitsofmeasure.org",
          "value": 1.9,
          "unit": "mg/dL",
          "code": "mg/dL"
        },
        "referenceRange": [
          {
            "low": {
              "value": 0.6,
              "code": "mg/dL",
              "system": "http://unitsofmeasure.org"
            }
          },
          {
            "high": {
              "value": 1.3,
              "code": "mg/dL",
              "system": "http://unitsofmeasure.org"
            }
          }
        ],
        "interpretation": [
          {
            "coding": [
              {
                "code": "H",
                "system": "http://terminology.hl7.org/CodeSystem/v3-ObservationInterpretation",
                "display": "High"
              }
            ]
          }
        ],
        "text": {
          "status": "generated",
          "div": "<div xmlns=\"http://www.w3.org/1999/xhtml\"><table class=\"hl7__eu__lab__report\"><tr><th>Test</th><th>02-Feb-2025</th><th>Reference&#xA0;Range</th><th>Unit</th></tr><tr><td>Creatinine [Mass/volume] in Serum or Plasma</td><td>1.9</td><td>0.6 - 1.3</td><td>H</td><td>mg/dL</td></tr></table></div>"
        },
        "status": "final",
        "subject": {
          "reference": "urn:uuid:b3d6ccb3-6519-41c3-9e77-df0b5fe23a91",
          "display": "Iva Kratochvílová"
        },
        "effectiveDateTime": "2025-02-02T16:10:29Z",
        "specimen": {
          "reference": "urn:uuid:5e3112a5-6412-4e8b-bcab-03119543c701"
        }
      }
    },
    {
      "fullUrl": "urn:uuid:649e8869-a6ad-48a4-9177-53a8594effed",
      "resource": {
        "resourceType": "Observation",
        "id": "649e8869-a6ad-48a4-9177-53a8594effed",
        "meta": {
          "profile": [
            "http://hl7.eu/fhir/laboratory/StructureDefinition/Observation-resultslab-eu-lab"
          ]
        },
        "performer": [
          {
            "display": "The Central European Lab"
          }
        ],
        "category": [
          {
            "coding": [
              {
                "system": "http://terminology.hl7.org/CodeSystem/observation-category",
                "code": "laboratory"
              }
            ]
          }
        ],
        "code": {
          "coding": [
            {
              "code": "17861-6",
              "system": "http://loinc.org",
              "display": "Calcium [Mass/volume] in Serum or Plasma"
            }
          ],
          "text": "Calcium [Mass/volume] in Serum or Plasma"
        },
        "valueQuantity": {
          "system": "http://unitsofmeasure.org",
          "value": 10.2,
          "unit": "mg/dL",
          "code": "mg/dL"
        },
        "referenceRange": [
          {
            "low": {
              "value": 8.6,
              "code": "mg/dL",
              "system": "http://unitsofmeasure.org"
            }
          },
          {
            "high": {
              "value": 10.4,
              "code": "mg/dL",
              "system": "http://unitsofmeasure.org"
            }
          }
        ],
        "text": {
          "status": "generated",
          "div": "<div xmlns=\"http://www.w3.org/1999/xhtml\"><table class=\"hl7__eu__lab__report\"><tr><th>Test</th><th>02-Feb-2025</th><th>Reference&#xA0;Range</th><th>Unit</th></tr><tr><td>Calcium [Mass/volume] in Serum or Plasma</td><td>10.2</td><td>8.6 - 10.4</td><td></td><td>mg/dL</td></tr></table></div>"
        },
        "status": "final",
        "subject": {
          "reference": "urn:uuid:b3d6ccb3-6519-41c3-9e77-df0b5fe23a91",
          "display": "Iva Kratochvílová"
        },
        "effectiveDateTime": "2025-02-02T16:10:29Z",
        "specimen": {
          "reference": "urn:uuid:5e3112a5-6412-4e8b-bcab-03119543c701"
        }
      }
    },
    {
      "fullUrl": "urn:uuid:6b64a309-26ba-417b-913d-5794b19adba8",
      "resource": {
        "resourceType": "Observation",
        "id": "6b64a309-26ba-417b-913d-5794b19adba8",
        "meta": {
          "profile": [
            "http://hl7.eu/fhir/laboratory/StructureDefinition/Observation-resultslab-eu-lab"
          ]
        },
        "performer": [
          {
            "display": "The Central European Lab"
          }
        ],
        "category": [
          {
            "coding": [
              {
                "system": "http://terminology.hl7.org/CodeSystem/observation-category",
                "code": "laboratory"
              }
            ]
          }
        ],
        "code": {
          "coding": [
            {
              "code": "2951-2",
              "system": "http://loinc.org",
              "display": "Sodium [Moles/volume] in Serum or Plasma"
            }
          ],
          "text": "Sodium [Moles/volume] in Serum or Plasma"
        },
        "valueQuantity": {
          "system": "http://unitsofmeasure.org",
          "value": 141.4,
          "unit": "mmol/L",
          "code": "mmol/L"
        },
        "referenceRange": [
          {
            "low": {
              "value": 135,
              "code": "mmol/L",
              "system": "http://unitsofmeasure.org"
            }
          },
          {
            "high": {
              "value": 145,
              "code": "mmol/L",
              "system": "http://unitsofmeasure.org"
            }
          }
        ],
        "text": {
          "status": "generated",
          "div": "<div xmlns=\"http://www.w3.org/1999/xhtml\"><table class=\"hl7__eu__lab__report\"><tr><th>Test</th><th>02-Feb-2025</th><th>Reference&#xA0;Range</th><th>Unit</th></tr><tr><td>Sodium [Moles/volume] in Serum or Plasma</td><td>141.4</td><td>135 - 145</td><td></td><td>mmol/L</td></tr></table></div>"
        },
        "status": "final",
        "subject": {
          "reference": "urn:uuid:b3d6ccb3-6519-41c3-9e77-df0b5fe23a91",
          "display": "Iva Kratochvílová"
        },
        "effectiveDateTime": "2025-02-02T16:10:29Z",
        "specimen": {
          "reference": "urn:uuid:5e3112a5-6412-4e8b-bcab-03119543c701"
        }
      }
    },
    {
      "fullUrl": "urn:uuid:88350c04-0ec2-40ae-9186-2aceae95a9fc",
      "resource": {
        "resourceType": "Observation",
        "id": "88350c04-0ec2-40ae-9186-2aceae95a9fc",
        "meta": {
          "profile": [
            "http://hl7.eu/fhir/laboratory/StructureDefinition/Observation-resultslab-eu-lab"
          ]
        },
        "performer": [
          {
            "display": "The Central European Lab"
          }
        ],
        "category": [
          {
            "coding": [
              {
                "system": "http://terminology.hl7.org/CodeSystem/observation-category",
                "code": "laboratory"
              }
            ]
          }
        ],
        "code": {
          "coding": [
            {
              "code": "2823-3",
              "system": "http://loinc.org",
              "display": "Potassium [Moles/volume] in Serum or Plasma"
            }
          ],
          "text": "Potassium [Moles/volume] in Serum or Plasma"
        },
        "valueQuantity": {
          "system": "http://unitsofmeasure.org",
          "value": 4.6,
          "unit": "mmol/L",
          "code": "mmol/L"
        },
        "referenceRange": [
          {
            "low": {
              "value": 3.5,
              "code": "mmol/L",
              "system": "http://unitsofmeasure.org"
            }
          },
          {
            "high": {
              "value": 5,
              "code": "mmol/L",
              "system": "http://unitsofmeasure.org"
            }
          }
        ],
        "text": {
          "status": "generated",
          "div": "<div xmlns=\"http://www.w3.org/1999/xhtml\"><table class=\"hl7__eu__lab__report\"><tr><th>Test</th><th>02-Feb-2025</th><th>Reference&#xA0;Range</th><th>Unit</th></tr><tr><td>Potassium [Moles/volume] in Serum or Plasma</td><td>4.6</td><td>3.5 - 5</td><td></td><td>mmol/L</td></tr></table></div>"
        },
        "status": "final",
        "subject": {
          "reference": "urn:uuid:b3d6ccb3-6519-41c3-9e77-df0b5fe23a91",
          "display": "Iva Kratochvílová"
        },
        "effectiveDateTime": "2025-02-02T16:10:29Z",
        "specimen": {
          "reference": "urn:uuid:5e3112a5-6412-4e8b-bcab-03119543c701"
        }
      }
    },
    {
      "fullUrl": "urn:uuid:086bf885-0aaf-483a-bf52-260005a8789d",
      "resource": {
        "resourceType": "Observation",
        "id": "086bf885-0aaf-483a-bf52-260005a8789d",
        "meta": {
          "profile": [
            "http://hl7.eu/fhir/laboratory/StructureDefinition/Observation-resultslab-eu-lab"
          ]
        },
        "performer": [
          {
            "display": "The Central European Lab"
          }
        ],
        "category": [
          {
            "coding": [
              {
                "system": "http://terminology.hl7.org/CodeSystem/observation-category",
                "code": "laboratory"
              }
            ]
          }
        ],
        "code": {
          "coding": [
            {
              "code": "2075-0",
              "system": "http://loinc.org",
              "display": "Chloride [Moles/volume] in Serum or Plasma"
            }
          ],
          "text": "Chloride [Moles/volume] in Serum or Plasma"
        },
        "valueQuantity": {
          "system": "http://unitsofmeasure.org",
          "value": 102.5,
          "unit": "mmol/L",
          "code": "mmol/L"
        },
        "referenceRange": [
          {
            "low": {
              "value": 98,
              "code": "mmol/L",
              "system": "http://unitsofmeasure.org"
            }
          },
          {
            "high": {
              "value": 106,
              "code": "mmol/L",
              "system": "http://unitsofmeasure.org"
            }
          }
        ],
        "text": {
          "status": "generated",
          "div": "<div xmlns=\"http://www.w3.org/1999/xhtml\"><table class=\"hl7__eu__lab__report\"><tr><th>Test</th><th>02-Feb-2025</th><th>Reference&#xA0;Range</th><th>Unit</th></tr><tr><td>Chloride [Moles/volume] in Serum or Plasma</td><td>102.5</td><td>98 - 106</td><td></td><td>mmol/L</td></tr></table></div>"
        },
        "status": "final",
        "subject": {
          "reference": "urn:uuid:b3d6ccb3-6519-41c3-9e77-df0b5fe23a91",
          "display": "Iva Kratochvílová"
        },
        "effectiveDateTime": "2025-02-02T16:10:29Z",
        "specimen": {
          "reference": "urn:uuid:5e3112a5-6412-4e8b-bcab-03119543c701"
        }
      }
    },
    {
      "fullUrl": "urn:uuid:34e361a6-d67d-4600-9cfa-630ce246bd20",
      "resource": {
        "resourceType": "Observation",
        "id": "34e361a6-d67d-4600-9cfa-630ce246bd20",
        "meta": {
          "profile": [
            "http://hl7.eu/fhir/laboratory/StructureDefinition/Observation-resultslab-eu-lab"
          ]
        },
        "performer": [
          {
            "display": "The Central European Lab"
          }
        ],
        "category": [
          {
            "coding": [
              {
                "system": "http://terminology.hl7.org/CodeSystem/observation-category",
                "code": "laboratory"
              }
            ]
          }
        ],
        "code": {
          "coding": [
            {
              "code": "2028-9",
              "system": "http://loinc.org",
              "display": "Carbon dioxide, total [Moles/volume] in Serum or Plasma"
            }
          ],
          "text": "Carbon dioxide, total [Moles/volume] in Serum or Plasma"
        },
        "valueQuantity": {
          "system": "http://unitsofmeasure.org",
          "value": 26.1,
          "unit": "mmol/L",
          "code": "mmol/L"
        },
        "referenceRange": [
          {
            "low": {
              "value": 22,
              "code": "mmol/L",
              "system": "http://unitsofmeasure.org"
            }
          },
          {
            "high": {
              "value": 29,
              "code": "mmol/L",
              "system": "http://unitsofmeasure.org"
            }
          }
        ],
        "text": {
          "status": "generated",
          "div": "<div xmlns=\"http://www.w3.org/1999/xhtml\"><table class=\"hl7__eu__lab__report\"><tr><th>Test</th><th>02-Feb-2025</th><th>Reference&#xA0;Range</th><th>Unit</th></tr><tr><td>Carbon dioxide, total [Moles/volume] in Serum or Plasma</td><td>26.1</td><td>22 - 29</td><td></td><td>mmol/L</td></tr></table></div>"
        },
        "status": "final",
        "subject": {
          "reference": "urn:uuid:b3d6ccb3-6519-41c3-9e77-df0b5fe23a91",
          "display": "Iva Kratochvílová"
        },
        "effectiveDateTime": "2025-02-02T16:10:29Z",
        "specimen": {
          "reference": "urn:uuid:5e3112a5-6412-4e8b-bcab-03119543c701"
        }
      }
    },
    {
      "fullUrl": "urn:uuid:e3645e45-0452-4a88-ae35-bfb3b6806867",
      "resource": {
        "resourceType": "Observation",
        "id": "e3645e45-0452-4a88-ae35-bfb3b6806867",
        "meta": {
          "profile": [
            "http://hl7.eu/fhir/laboratory/StructureDefinition/Observation-resultslab-eu-lab"
          ]
        },
        "performer": [
          {
            "display": "The Central European Lab"
          }
        ],
        "category": [
          {
            "coding": [
              {
                "system": "http://terminology.hl7.org/CodeSystem/observation-category",
                "code": "laboratory"
              }
            ]
          }
        ],
        "code": {
          "coding": [
            {
              "code": "5767-9",
              "system": "http://loinc.org",
              "display": "Appearance of Urine"
            }
          ],
          "text": "Appearance of Urine"
        },
        "text": {
          "status": "generated",
          "div": "<div xmlns=\"http://www.w3.org/1999/xhtml\"><table class=\"hl7__eu__lab__report\"><tr><th>Test</th><th>02-Feb-2025</th><th>Reference&#xA0;Range</th><th>Unit</th></tr><tr><td>Appearance of Urine</td></tr></table></div>"
        },
        "status": "final",
        "subject": {
          "reference": "urn:uuid:b3d6ccb3-6519-41c3-9e77-df0b5fe23a91",
          "display": "Iva Kratochvílová"
        },
        "effectiveDateTime": "2025-02-02T16:10:29Z",
        "specimen": {
          "reference": "urn:uuid:db8a9348-c842-4169-96aa-c81f4b7a24c0"
        }
      }
    },
    {
      "fullUrl": "urn:uuid:57b09d1e-f48a-4eeb-aa0a-fca69e674bc1",
      "resource": {
        "resourceType": "Observation",
        "id": "57b09d1e-f48a-4eeb-aa0a-fca69e674bc1",
        "meta": {
          "profile": [
            "http://hl7.eu/fhir/laboratory/StructureDefinition/Observation-resultslab-eu-lab"
          ]
        },
        "performer": [
          {
            "display": "The Central European Lab"
          }
        ],
        "category": [
          {
            "coding": [
              {
                "system": "http://terminology.hl7.org/CodeSystem/observation-category",
                "code": "laboratory"
              }
            ]
          }
        ],
        "code": {
          "coding": [
            {
              "code": "34533-0",
              "system": "http://loinc.org",
              "display": "Odor of Urine"
            }
          ],
          "text": "Odor of Urine"
        },
        "text": {
          "status": "generated",
          "div": "<div xmlns=\"http://www.w3.org/1999/xhtml\"><table class=\"hl7__eu__lab__report\"><tr><th>Test</th><th>02-Feb-2025</th><th>Reference&#xA0;Range</th><th>Unit</th></tr><tr><td>Odor of Urine</td></tr></table></div>"
        },
        "status": "final",
        "subject": {
          "reference": "urn:uuid:b3d6ccb3-6519-41c3-9e77-df0b5fe23a91",
          "display": "Iva Kratochvílová"
        },
        "effectiveDateTime": "2025-02-02T16:10:29Z",
        "specimen": {
          "reference": "urn:uuid:db8a9348-c842-4169-96aa-c81f4b7a24c0"
        }
      }
    },
    {
      "fullUrl": "urn:uuid:daac2e09-d63a-4892-9df0-e5374feb0260",
      "resource": {
        "resourceType": "Observation",
        "id": "daac2e09-d63a-4892-9df0-e5374feb0260",
        "meta": {
          "profile": [
            "http://hl7.eu/fhir/laboratory/StructureDefinition/Observation-resultslab-eu-lab"
          ]
        },
        "performer": [
          {
            "display": "The Central European Lab"
          }
        ],
        "category": [
          {
            "coding": [
              {
                "system": "http://terminology.hl7.org/CodeSystem/observation-category",
                "code": "laboratory"
              }
            ]
          }
        ],
        "code": {
          "coding": [
            {
              "code": "32167-9",
              "system": "http://loinc.org",
              "display": "Clarity of Urine"
            }
          ],
          "text": "Clarity of Urine"
        },
        "text": {
          "status": "generated",
          "div": "<div xmlns=\"http://www.w3.org/1999/xhtml\"><table class=\"hl7__eu__lab__report\"><tr><th>Test</th><th>02-Feb-2025</th><th>Reference&#xA0;Range</th><th>Unit</th></tr><tr><td>Clarity of Urine</td></tr></table></div>"
        },
        "status": "final",
        "subject": {
          "reference": "urn:uuid:b3d6ccb3-6519-41c3-9e77-df0b5fe23a91",
          "display": "Iva Kratochvílová"
        },
        "effectiveDateTime": "2025-02-02T16:10:29Z",
        "specimen": {
          "reference": "urn:uuid:db8a9348-c842-4169-96aa-c81f4b7a24c0"
        }
      }
    },
    {
      "fullUrl": "urn:uuid:4bc6934c-8d44-4def-b845-0d339599f1f6",
      "resource": {
        "resourceType": "Observation",
        "id": "4bc6934c-8d44-4def-b845-0d339599f1f6",
        "meta": {
          "profile": [
            "http://hl7.eu/fhir/laboratory/StructureDefinition/Observation-resultslab-eu-lab"
          ]
        },
        "performer": [
          {
            "display": "The Central European Lab"
          }
        ],
        "category": [
          {
            "coding": [
              {
                "system": "http://terminology.hl7.org/CodeSystem/observation-category",
                "code": "laboratory"
              }
            ]
          }
        ],
        "code": {
          "coding": [
            {
              "code": "5778-6",
              "system": "http://loinc.org",
              "display": "Color of Urine"
            }
          ],
          "text": "Color of Urine"
        },
        "text": {
          "status": "generated",
          "div": "<div xmlns=\"http://www.w3.org/1999/xhtml\"><table class=\"hl7__eu__lab__report\"><tr><th>Test</th><th>02-Feb-2025</th><th>Reference&#xA0;Range</th><th>Unit</th></tr><tr><td>Color of Urine</td></tr></table></div>"
        },
        "status": "final",
        "subject": {
          "reference": "urn:uuid:b3d6ccb3-6519-41c3-9e77-df0b5fe23a91",
          "display": "Iva Kratochvílová"
        },
        "effectiveDateTime": "2025-02-02T16:10:29Z",
        "specimen": {
          "reference": "urn:uuid:db8a9348-c842-4169-96aa-c81f4b7a24c0"
        }
      }
    },
    {
      "fullUrl": "urn:uuid:89fb5c0a-c1da-4d25-bd6f-354612e2bc9c",
      "resource": {
        "resourceType": "Observation",
        "id": "89fb5c0a-c1da-4d25-bd6f-354612e2bc9c",
        "meta": {
          "profile": [
            "http://hl7.eu/fhir/laboratory/StructureDefinition/Observation-resultslab-eu-lab"
          ]
        },
        "performer": [
          {
            "display": "The Central European Lab"
          }
        ],
        "category": [
          {
            "coding": [
              {
                "system": "http://terminology.hl7.org/CodeSystem/observation-category",
                "code": "laboratory"
              }
            ]
          }
        ],
        "code": {
          "coding": [
            {
              "code": "5792-7",
              "system": "http://loinc.org",
              "display": "Glucose [Mass/volume] in Urine by Test strip"
            }
          ],
          "text": "Glucose [Mass/volume] in Urine by Test strip"
        },
        "valueQuantity": {
          "system": "http://unitsofmeasure.org",
          "value": 1.3,
          "unit": "mg/dL",
          "code": "mg/dL"
        },
        "referenceRange": [
          {
            "low": {
              "value": 0,
              "code": "mg/dL",
              "system": "http://unitsofmeasure.org"
            }
          },
          {
            "high": {
              "value": 0.8,
              "code": "mg/dL",
              "system": "http://unitsofmeasure.org"
            }
          }
        ],
        "interpretation": [
          {
            "coding": [
              {
                "code": "H",
                "system": "http://terminology.hl7.org/CodeSystem/v3-ObservationInterpretation",
                "display": "High"
              }
            ]
          }
        ],
        "text": {
          "status": "generated",
          "div": "<div xmlns=\"http://www.w3.org/1999/xhtml\"><table class=\"hl7__eu__lab__report\"><tr><th>Test</th><th>02-Feb-2025</th><th>Reference&#xA0;Range</th><th>Unit</th></tr><tr><td>Glucose [Mass/volume] in Urine by Test strip</td><td>1.3</td><td>0 - 0.8</td><td>H</td><td>mg/dL</td></tr></table></div>"
        },
        "status": "final",
        "subject": {
          "reference": "urn:uuid:b3d6ccb3-6519-41c3-9e77-df0b5fe23a91",
          "display": "Iva Kratochvílová"
        },
        "effectiveDateTime": "2025-02-02T16:10:29Z",
        "specimen": {
          "reference": "urn:uuid:db8a9348-c842-4169-96aa-c81f4b7a24c0"
        }
      }
    },
    {
      "fullUrl": "urn:uuid:f1225825-7fe0-4a67-9a38-515d0b0c080f",
      "resource": {
        "resourceType": "Observation",
        "id": "f1225825-7fe0-4a67-9a38-515d0b0c080f",
        "meta": {
          "profile": [
            "http://hl7.eu/fhir/laboratory/StructureDefinition/Observation-resultslab-eu-lab"
          ]
        },
        "performer": [
          {
            "display": "The Central European Lab"
          }
        ],
        "category": [
          {
            "coding": [
              {
                "system": "http://terminology.hl7.org/CodeSystem/observation-category",
                "code": "laboratory"
              }
            ]
          }
        ],
        "code": {
          "coding": [
            {
              "code": "25428-4",
              "system": "http://loinc.org",
              "display": "Glucose [Presence] in Urine by Test strip"
            }
          ],
          "text": "Glucose [Presence] in Urine by Test strip"
        },
        "text": {
          "status": "generated",
          "div": "<div xmlns=\"http://www.w3.org/1999/xhtml\"><table class=\"hl7__eu__lab__report\"><tr><th>Test</th><th>02-Feb-2025</th><th>Reference&#xA0;Range</th><th>Unit</th></tr><tr><td>Glucose [Presence] in Urine by Test strip</td></tr></table></div>"
        },
        "status": "final",
        "subject": {
          "reference": "urn:uuid:b3d6ccb3-6519-41c3-9e77-df0b5fe23a91",
          "display": "Iva Kratochvílová"
        },
        "effectiveDateTime": "2025-02-02T16:10:29Z",
        "specimen": {
          "reference": "urn:uuid:db8a9348-c842-4169-96aa-c81f4b7a24c0"
        }
      }
    },
    {
      "fullUrl": "urn:uuid:512aa891-b45d-4448-800e-8bf20d835b05",
      "resource": {
        "resourceType": "Observation",
        "id": "512aa891-b45d-4448-800e-8bf20d835b05",
        "meta": {
          "profile": [
            "http://hl7.eu/fhir/laboratory/StructureDefinition/Observation-resultslab-eu-lab"
          ]
        },
        "performer": [
          {
            "display": "The Central European Lab"
          }
        ],
        "category": [
          {
            "coding": [
              {
                "system": "http://terminology.hl7.org/CodeSystem/observation-category",
                "code": "laboratory"
              }
            ]
          }
        ],
        "code": {
          "coding": [
            {
              "code": "20505-4",
              "system": "http://loinc.org",
              "display": "Bilirubin.total [Mass/volume] in Urine by Test strip"
            }
          ],
          "text": "Bilirubin.total [Mass/volume] in Urine by Test strip"
        },
        "valueQuantity": {
          "system": "http://unitsofmeasure.org",
          "value": 1.1,
          "unit": "mg/dL",
          "code": "mg/dL"
        },
        "referenceRange": [
          {
            "low": {
              "value": 0,
              "code": "mg/dL",
              "system": "http://unitsofmeasure.org"
            }
          },
          {
            "high": {
              "value": 1,
              "code": "mg/dL",
              "system": "http://unitsofmeasure.org"
            }
          }
        ],
        "interpretation": [
          {
            "coding": [
              {
                "code": "H",
                "system": "http://terminology.hl7.org/CodeSystem/v3-ObservationInterpretation",
                "display": "High"
              }
            ]
          }
        ],
        "text": {
          "status": "generated",
          "div": "<div xmlns=\"http://www.w3.org/1999/xhtml\"><table class=\"hl7__eu__lab__report\"><tr><th>Test</th><th>02-Feb-2025</th><th>Reference&#xA0;Range</th><th>Unit</th></tr><tr><td>Bilirubin.total [Mass/volume] in Urine by Test strip</td><td>1.1</td><td>0 - 1</td><td>H</td><td>mg/dL</td></tr></table></div>"
        },
        "status": "final",
        "subject": {
          "reference": "urn:uuid:b3d6ccb3-6519-41c3-9e77-df0b5fe23a91",
          "display": "Iva Kratochvílová"
        },
        "effectiveDateTime": "2025-02-02T16:10:29Z",
        "specimen": {
          "reference": "urn:uuid:db8a9348-c842-4169-96aa-c81f4b7a24c0"
        }
      }
    },
    {
      "fullUrl": "urn:uuid:bf972e61-1615-48e9-8404-9bc99a6bd2ae",
      "resource": {
        "resourceType": "Observation",
        "id": "bf972e61-1615-48e9-8404-9bc99a6bd2ae",
        "meta": {
          "profile": [
            "http://hl7.eu/fhir/laboratory/StructureDefinition/Observation-resultslab-eu-lab"
          ]
        },
        "performer": [
          {
            "display": "The Central European Lab"
          }
        ],
        "category": [
          {
            "coding": [
              {
                "system": "http://terminology.hl7.org/CodeSystem/observation-category",
                "code": "laboratory"
              }
            ]
          }
        ],
        "code": {
          "coding": [
            {
              "code": "5770-3",
              "system": "http://loinc.org",
              "display": "Bilirubin.total [Presence] in Urine by Test strip"
            }
          ],
          "text": "Bilirubin.total [Presence] in Urine by Test strip"
        },
        "text": {
          "status": "generated",
          "div": "<div xmlns=\"http://www.w3.org/1999/xhtml\"><table class=\"hl7__eu__lab__report\"><tr><th>Test</th><th>02-Feb-2025</th><th>Reference&#xA0;Range</th><th>Unit</th></tr><tr><td>Bilirubin.total [Presence] in Urine by Test strip</td></tr></table></div>"
        },
        "status": "final",
        "subject": {
          "reference": "urn:uuid:b3d6ccb3-6519-41c3-9e77-df0b5fe23a91",
          "display": "Iva Kratochvílová"
        },
        "effectiveDateTime": "2025-02-02T16:10:29Z",
        "specimen": {
          "reference": "urn:uuid:db8a9348-c842-4169-96aa-c81f4b7a24c0"
        }
      }
    },
    {
      "fullUrl": "urn:uuid:b6b06e10-06c6-4490-8648-c5429fb0f583",
      "resource": {
        "resourceType": "Observation",
        "id": "b6b06e10-06c6-4490-8648-c5429fb0f583",
        "meta": {
          "profile": [
            "http://hl7.eu/fhir/laboratory/StructureDefinition/Observation-resultslab-eu-lab"
          ]
        },
        "performer": [
          {
            "display": "The Central European Lab"
          }
        ],
        "category": [
          {
            "coding": [
              {
                "system": "http://terminology.hl7.org/CodeSystem/observation-category",
                "code": "laboratory"
              }
            ]
          }
        ],
        "code": {
          "coding": [
            {
              "code": "5797-6",
              "system": "http://loinc.org",
              "display": "Ketones [Mass/volume] in Urine by Test strip"
            }
          ],
          "text": "Ketones [Mass/volume] in Urine by Test strip"
        },
        "valueQuantity": {
          "system": "http://unitsofmeasure.org",
          "value": 6.9,
          "unit": "mg/dL",
          "code": "mg/dL"
        },
        "referenceRange": [
          {
            "low": {
              "value": 0,
              "code": "mg/dL",
              "system": "http://unitsofmeasure.org"
            }
          },
          {
            "high": {
              "value": 4,
              "code": "mg/dL",
              "system": "http://unitsofmeasure.org"
            }
          }
        ],
        "interpretation": [
          {
            "coding": [
              {
                "code": "H",
                "system": "http://terminology.hl7.org/CodeSystem/v3-ObservationInterpretation",
                "display": "High"
              }
            ]
          }
        ],
        "text": {
          "status": "generated",
          "div": "<div xmlns=\"http://www.w3.org/1999/xhtml\"><table class=\"hl7__eu__lab__report\"><tr><th>Test</th><th>02-Feb-2025</th><th>Reference&#xA0;Range</th><th>Unit</th></tr><tr><td>Ketones [Mass/volume] in Urine by Test strip</td><td>6.9</td><td>0 - 4</td><td>H</td><td>mg/dL</td></tr></table></div>"
        },
        "status": "final",
        "subject": {
          "reference": "urn:uuid:b3d6ccb3-6519-41c3-9e77-df0b5fe23a91",
          "display": "Iva Kratochvílová"
        },
        "effectiveDateTime": "2025-02-02T16:10:29Z",
        "specimen": {
          "reference": "urn:uuid:db8a9348-c842-4169-96aa-c81f4b7a24c0"
        }
      }
    },
    {
      "fullUrl": "urn:uuid:f03d6a7d-2c37-4a54-86ee-a92ad242f130",
      "resource": {
        "resourceType": "Observation",
        "id": "f03d6a7d-2c37-4a54-86ee-a92ad242f130",
        "meta": {
          "profile": [
            "http://hl7.eu/fhir/laboratory/StructureDefinition/Observation-resultslab-eu-lab"
          ]
        },
        "performer": [
          {
            "display": "The Central European Lab"
          }
        ],
        "category": [
          {
            "coding": [
              {
                "system": "http://terminology.hl7.org/CodeSystem/observation-category",
                "code": "laboratory"
              }
            ]
          }
        ],
        "code": {
          "coding": [
            {
              "code": "2514-8",
              "system": "http://loinc.org",
              "display": "Ketones [Presence] in Urine by Test strip"
            }
          ],
          "text": "Ketones [Presence] in Urine by Test strip"
        },
        "text": {
          "status": "generated",
          "div": "<div xmlns=\"http://www.w3.org/1999/xhtml\"><table class=\"hl7__eu__lab__report\"><tr><th>Test</th><th>02-Feb-2025</th><th>Reference&#xA0;Range</th><th>Unit</th></tr><tr><td>Ketones [Presence] in Urine by Test strip</td></tr></table></div>"
        },
        "status": "final",
        "subject": {
          "reference": "urn:uuid:b3d6ccb3-6519-41c3-9e77-df0b5fe23a91",
          "display": "Iva Kratochvílová"
        },
        "effectiveDateTime": "2025-02-02T16:10:29Z",
        "specimen": {
          "reference": "urn:uuid:db8a9348-c842-4169-96aa-c81f4b7a24c0"
        }
      }
    },
    {
      "fullUrl": "urn:uuid:70cdea36-8151-4ce2-b3fc-081c655ddff8",
      "resource": {
        "resourceType": "Observation",
        "id": "70cdea36-8151-4ce2-b3fc-081c655ddff8",
        "meta": {
          "profile": [
            "http://hl7.eu/fhir/laboratory/StructureDefinition/Observation-resultslab-eu-lab"
          ]
        },
        "performer": [
          {
            "display": "The Central European Lab"
          }
        ],
        "category": [
          {
            "coding": [
              {
                "system": "http://terminology.hl7.org/CodeSystem/observation-category",
                "code": "laboratory"
              }
            ]
          }
        ],
        "code": {
          "coding": [
            {
              "code": "5811-5",
              "system": "http://loinc.org",
              "display": "Specific gravity of Urine by Test strip"
            }
          ],
          "text": "Specific gravity of Urine by Test strip"
        },
        "valueQuantity": {
          "system": "http://unitsofmeasure.org",
          "value": 1,
          "unit": "{nominal}",
          "code": "{nominal}"
        },
        "referenceRange": [
          {
            "low": {
              "value": 1.005,
              "code": "g/mL",
              "system": "http://unitsofmeasure.org"
            }
          },
          {
            "high": {
              "value": 1.03,
              "code": "g/mL",
              "system": "http://unitsofmeasure.org"
            }
          }
        ],
        "interpretation": [
          {
            "coding": [
              {
                "code": "L",
                "system": "http://terminology.hl7.org/CodeSystem/v3-ObservationInterpretation",
                "display": "Low"
              }
            ]
          }
        ],
        "text": {
          "status": "generated",
          "div": "<div xmlns=\"http://www.w3.org/1999/xhtml\"><table class=\"hl7__eu__lab__report\"><tr><th>Test</th><th>02-Feb-2025</th><th>Reference&#xA0;Range</th><th>Unit</th></tr><tr><td>Specific gravity of Urine by Test strip</td><td>1.0</td><td>1.005 - 1.03</td><td>L</td><td>{nominal}</td></tr></table></div>"
        },
        "status": "final",
        "subject": {
          "reference": "urn:uuid:b3d6ccb3-6519-41c3-9e77-df0b5fe23a91",
          "display": "Iva Kratochvílová"
        },
        "effectiveDateTime": "2025-02-02T16:10:29Z",
        "specimen": {
          "reference": "urn:uuid:db8a9348-c842-4169-96aa-c81f4b7a24c0"
        }
      }
    },
    {
      "fullUrl": "urn:uuid:1924a514-3e41-49b0-8eed-1c145dd47356",
      "resource": {
        "resourceType": "Observation",
        "id": "1924a514-3e41-49b0-8eed-1c145dd47356",
        "meta": {
          "profile": [
            "http://hl7.eu/fhir/laboratory/StructureDefinition/Observation-resultslab-eu-lab"
          ]
        },
        "performer": [
          {
            "display": "The Central European Lab"
          }
        ],
        "category": [
          {
            "coding": [
              {
                "system": "http://terminology.hl7.org/CodeSystem/observation-category",
                "code": "laboratory"
              }
            ]
          }
        ],
        "code": {
          "coding": [
            {
              "code": "5803-2",
              "system": "http://loinc.org",
              "display": "pH of Urine by Test strip"
            }
          ],
          "text": "pH of Urine by Test strip"
        },
        "valueQuantity": {
          "system": "http://unitsofmeasure.org",
          "value": 6.8,
          "unit": "pH",
          "code": "pH"
        },
        "referenceRange": [
          {
            "low": {
              "value": 4.5,
              "code": "pH",
              "system": "http://unitsofmeasure.org"
            }
          },
          {
            "high": {
              "value": 7,
              "code": "pH",
              "system": "http://unitsofmeasure.org"
            }
          }
        ],
        "text": {
          "status": "generated",
          "div": "<div xmlns=\"http://www.w3.org/1999/xhtml\"><table class=\"hl7__eu__lab__report\"><tr><th>Test</th><th>02-Feb-2025</th><th>Reference&#xA0;Range</th><th>Unit</th></tr><tr><td>pH of Urine by Test strip</td><td>6.8</td><td>4.5 - 7</td><td></td><td>pH</td></tr></table></div>"
        },
        "status": "final",
        "subject": {
          "reference": "urn:uuid:b3d6ccb3-6519-41c3-9e77-df0b5fe23a91",
          "display": "Iva Kratochvílová"
        },
        "effectiveDateTime": "2025-02-02T16:10:29Z",
        "specimen": {
          "reference": "urn:uuid:db8a9348-c842-4169-96aa-c81f4b7a24c0"
        }
      }
    },
    {
      "fullUrl": "urn:uuid:24d0f832-aead-46d4-a326-c12bd27a081e",
      "resource": {
        "resourceType": "Observation",
        "id": "24d0f832-aead-46d4-a326-c12bd27a081e",
        "meta": {
          "profile": [
            "http://hl7.eu/fhir/laboratory/StructureDefinition/Observation-resultslab-eu-lab"
          ]
        },
        "performer": [
          {
            "display": "The Central European Lab"
          }
        ],
        "category": [
          {
            "coding": [
              {
                "system": "http://terminology.hl7.org/CodeSystem/observation-category",
                "code": "laboratory"
              }
            ]
          }
        ],
        "code": {
          "coding": [
            {
              "code": "5804-0",
              "system": "http://loinc.org",
              "display": "Protein [Mass/volume] in Urine by Test strip"
            }
          ],
          "text": "Protein [Mass/volume] in Urine by Test strip"
        },
        "valueQuantity": {
          "system": "http://unitsofmeasure.org",
          "value": 270.2,
          "unit": "mg/dL",
          "code": "mg/dL"
        },
        "referenceRange": [
          {
            "low": {
              "value": 0,
              "code": "mg/dL",
              "system": "http://unitsofmeasure.org"
            }
          },
          {
            "high": {
              "value": 145,
              "code": "mg/dL",
              "system": "http://unitsofmeasure.org"
            }
          }
        ],
        "interpretation": [
          {
            "coding": [
              {
                "code": "H",
                "system": "http://terminology.hl7.org/CodeSystem/v3-ObservationInterpretation",
                "display": "High"
              }
            ]
          }
        ],
        "text": {
          "status": "generated",
          "div": "<div xmlns=\"http://www.w3.org/1999/xhtml\"><table class=\"hl7__eu__lab__report\"><tr><th>Test</th><th>02-Feb-2025</th><th>Reference&#xA0;Range</th><th>Unit</th></tr><tr><td>Protein [Mass/volume] in Urine by Test strip</td><td>270.2</td><td>0 - 145</td><td>H</td><td>mg/dL</td></tr></table></div>"
        },
        "status": "final",
        "subject": {
          "reference": "urn:uuid:b3d6ccb3-6519-41c3-9e77-df0b5fe23a91",
          "display": "Iva Kratochvílová"
        },
        "effectiveDateTime": "2025-02-02T16:10:29Z",
        "specimen": {
          "reference": "urn:uuid:db8a9348-c842-4169-96aa-c81f4b7a24c0"
        }
      }
    },
    {
      "fullUrl": "urn:uuid:2f84341e-7b34-471a-b713-599b5684fdf3",
      "resource": {
        "resourceType": "Observation",
        "id": "2f84341e-7b34-471a-b713-599b5684fdf3",
        "meta": {
          "profile": [
            "http://hl7.eu/fhir/laboratory/StructureDefinition/Observation-resultslab-eu-lab"
          ]
        },
        "performer": [
          {
            "display": "The Central European Lab"
          }
        ],
        "category": [
          {
            "coding": [
              {
                "system": "http://terminology.hl7.org/CodeSystem/observation-category",
                "code": "laboratory"
              }
            ]
          }
        ],
        "code": {
          "coding": [
            {
              "code": "20454-5",
              "system": "http://loinc.org",
              "display": "Protein [Presence] in Urine by Test strip"
            }
          ],
          "text": "Protein [Presence] in Urine by Test strip"
        },
        "text": {
          "status": "generated",
          "div": "<div xmlns=\"http://www.w3.org/1999/xhtml\"><table class=\"hl7__eu__lab__report\"><tr><th>Test</th><th>02-Feb-2025</th><th>Reference&#xA0;Range</th><th>Unit</th></tr><tr><td>Protein [Presence] in Urine by Test strip</td></tr></table></div>"
        },
        "status": "final",
        "subject": {
          "reference": "urn:uuid:b3d6ccb3-6519-41c3-9e77-df0b5fe23a91",
          "display": "Iva Kratochvílová"
        },
        "effectiveDateTime": "2025-02-02T16:10:29Z",
        "specimen": {
          "reference": "urn:uuid:db8a9348-c842-4169-96aa-c81f4b7a24c0"
        }
      }
    },
    {
      "fullUrl": "urn:uuid:19698288-6c13-4751-9115-acaa1a1ac182",
      "resource": {
        "resourceType": "Observation",
        "id": "19698288-6c13-4751-9115-acaa1a1ac182",
        "meta": {
          "profile": [
            "http://hl7.eu/fhir/laboratory/StructureDefinition/Observation-resultslab-eu-lab"
          ]
        },
        "performer": [
          {
            "display": "The Central European Lab"
          }
        ],
        "category": [
          {
            "coding": [
              {
                "system": "http://terminology.hl7.org/CodeSystem/observation-category",
                "code": "laboratory"
              }
            ]
          }
        ],
        "code": {
          "coding": [
            {
              "code": "5802-4",
              "system": "http://loinc.org",
              "display": "Nitrite [Presence] in Urine by Test strip"
            }
          ],
          "text": "Nitrite [Presence] in Urine by Test strip"
        },
        "text": {
          "status": "generated",
          "div": "<div xmlns=\"http://www.w3.org/1999/xhtml\"><table class=\"hl7__eu__lab__report\"><tr><th>Test</th><th>02-Feb-2025</th><th>Reference&#xA0;Range</th><th>Unit</th></tr><tr><td>Nitrite [Presence] in Urine by Test strip</td></tr></table></div>"
        },
        "status": "final",
        "subject": {
          "reference": "urn:uuid:b3d6ccb3-6519-41c3-9e77-df0b5fe23a91",
          "display": "Iva Kratochvílová"
        },
        "effectiveDateTime": "2025-02-02T16:10:29Z",
        "specimen": {
          "reference": "urn:uuid:db8a9348-c842-4169-96aa-c81f4b7a24c0"
        }
      }
    },
    {
      "fullUrl": "urn:uuid:8d9a3154-5d29-485c-9fd3-fa3ae75e0417",
      "resource": {
        "resourceType": "Observation",
        "id": "8d9a3154-5d29-485c-9fd3-fa3ae75e0417",
        "meta": {
          "profile": [
            "http://hl7.eu/fhir/laboratory/StructureDefinition/Observation-resultslab-eu-lab"
          ]
        },
        "performer": [
          {
            "display": "The Central European Lab"
          }
        ],
        "category": [
          {
            "coding": [
              {
                "system": "http://terminology.hl7.org/CodeSystem/observation-category",
                "code": "laboratory"
              }
            ]
          }
        ],
        "code": {
          "coding": [
            {
              "code": "5794-3",
              "system": "http://loinc.org",
              "display": "Hemoglobin [Presence] in Urine by Test strip"
            }
          ],
          "text": "Hemoglobin [Presence] in Urine by Test strip"
        },
        "text": {
          "status": "generated",
          "div": "<div xmlns=\"http://www.w3.org/1999/xhtml\"><table class=\"hl7__eu__lab__report\"><tr><th>Test</th><th>02-Feb-2025</th><th>Reference&#xA0;Range</th><th>Unit</th></tr><tr><td>Hemoglobin [Presence] in Urine by Test strip</td></tr></table></div>"
        },
        "status": "final",
        "subject": {
          "reference": "urn:uuid:b3d6ccb3-6519-41c3-9e77-df0b5fe23a91",
          "display": "Iva Kratochvílová"
        },
        "effectiveDateTime": "2025-02-02T16:10:29Z",
        "specimen": {
          "reference": "urn:uuid:db8a9348-c842-4169-96aa-c81f4b7a24c0"
        }
      }
    },
    {
      "fullUrl": "urn:uuid:048897e4-6944-4a39-9a80-6dfde77cfc29",
      "resource": {
        "resourceType": "Observation",
        "id": "048897e4-6944-4a39-9a80-6dfde77cfc29",
        "meta": {
          "profile": [
            "http://hl7.eu/fhir/laboratory/StructureDefinition/Observation-resultslab-eu-lab"
          ]
        },
        "performer": [
          {
            "display": "The Central European Lab"
          }
        ],
        "category": [
          {
            "coding": [
              {
                "system": "http://terminology.hl7.org/CodeSystem/observation-category",
                "code": "laboratory"
              }
            ]
          }
        ],
        "code": {
          "coding": [
            {
              "code": "5799-2",
              "system": "http://loinc.org",
              "display": "Leukocyte esterase [Presence] in Urine by Test strip"
            }
          ],
          "text": "Leukocyte esterase [Presence] in Urine by Test strip"
        },
        "text": {
          "status": "generated",
          "div": "<div xmlns=\"http://www.w3.org/1999/xhtml\"><table class=\"hl7__eu__lab__report\"><tr><th>Test</th><th>02-Feb-2025</th><th>Reference&#xA0;Range</th><th>Unit</th></tr><tr><td>Leukocyte esterase [Presence] in Urine by Test strip</td></tr></table></div>"
        },
        "status": "final",
        "subject": {
          "reference": "urn:uuid:b3d6ccb3-6519-41c3-9e77-df0b5fe23a91",
          "display": "Iva Kratochvílová"
        },
        "effectiveDateTime": "2025-02-02T16:10:29Z",
        "specimen": {
          "reference": "urn:uuid:db8a9348-c842-4169-96aa-c81f4b7a24c0"
        }
      }
    },
    {
      "fullUrl": "urn:uuid:4da31e8b-2832-4893-93d9-925fe6e59edd",
      "resource": {
        "resourceType": "Observation",
        "id": "4da31e8b-2832-4893-93d9-925fe6e59edd",
        "meta": {
          "profile": [
            "http://hl7.eu/fhir/laboratory/StructureDefinition/Observation-resultslab-eu-lab"
          ]
        },
        "performer": [
          {
            "display": "The Central European Lab"
          }
        ],
        "category": [
          {
            "coding": [
              {
                "system": "http://terminology.hl7.org/CodeSystem/observation-category",
                "code": "laboratory"
              }
            ]
          }
        ],
        "code": {
          "coding": [
            {
              "code": "4548-4",
              "system": "http://loinc.org",
              "display": "Hemoglobin A1c/Hemoglobin.total in Blood"
            }
          ],
          "text": "Hemoglobin A1c/Hemoglobin.total in Blood"
        },
        "valueQuantity": {
          "system": "http://unitsofmeasure.org",
          "value": 3.2,
          "unit": "%",
          "code": "%"
        },
        "referenceRange": [
          {
            "low": {
              "value": 4,
              "code": "%",
              "system": "http://unitsofmeasure.org"
            }
          },
          {
            "high": {
              "value": 6,
              "code": "%",
              "system": "http://unitsofmeasure.org"
            }
          }
        ],
        "interpretation": [
          {
            "coding": [
              {
                "code": "L",
                "system": "http://terminology.hl7.org/CodeSystem/v3-ObservationInterpretation",
                "display": "Low"
              }
            ]
          }
        ],
        "text": {
          "status": "generated",
          "div": "<div xmlns=\"http://www.w3.org/1999/xhtml\"><table class=\"hl7__eu__lab__report\"><tr><th>Test</th><th>02-Feb-2025</th><th>Reference&#xA0;Range</th><th>Unit</th></tr><tr><td>Hemoglobin A1c/Hemoglobin.total in Blood</td><td>3.2</td><td>4 - 6</td><td>L</td><td>%</td></tr></table></div>"
        },
        "status": "final",
        "subject": {
          "reference": "urn:uuid:b3d6ccb3-6519-41c3-9e77-df0b5fe23a91",
          "display": "Iva Kratochvílová"
        },
        "effectiveDateTime": "2025-02-02T16:10:29Z",
        "specimen": {
          "reference": "urn:uuid:690fa7bf-a269-452c-9c2e-934fe355871f"
        }
      }
    },
    {
      "fullUrl": "urn:uuid:001f15c0-519f-4c73-9ba6-a7caf00e4cc1",
      "resource": {
        "resourceType": "Observation",
        "id": "001f15c0-519f-4c73-9ba6-a7caf00e4cc1",
        "meta": {
          "profile": [
            "http://hl7.eu/fhir/laboratory/StructureDefinition/Observation-resultslab-eu-lab"
          ]
        },
        "performer": [
          {
            "display": "The Central European Lab"
          }
        ],
        "category": [
          {
            "coding": [
              {
                "system": "http://terminology.hl7.org/CodeSystem/observation-category",
                "code": "laboratory"
              }
            ]
          }
        ],
        "code": {
          "coding": [
            {
              "code": "2339-0",
              "system": "http://loinc.org",
              "display": "Glucose [Mass/volume] in Blood"
            }
          ],
          "text": "Glucose [Mass/volume] in Blood"
        },
        "valueQuantity": {
          "system": "http://unitsofmeasure.org",
          "value": 78,
          "unit": "mg/dL",
          "code": "mg/dL"
        },
        "referenceRange": [
          {
            "low": {
              "value": 70,
              "code": "mg/dL",
              "system": "http://unitsofmeasure.org"
            }
          },
          {
            "high": {
              "value": 140,
              "code": "mg/dL",
              "system": "http://unitsofmeasure.org"
            }
          }
        ],
        "text": {
          "status": "generated",
          "div": "<div xmlns=\"http://www.w3.org/1999/xhtml\"><table class=\"hl7__eu__lab__report\"><tr><th>Test</th><th>02-Feb-2025</th><th>Reference&#xA0;Range</th><th>Unit</th></tr><tr><td>Glucose [Mass/volume] in Blood</td><td>78.0</td><td>70 - 140</td><td></td><td>mg/dL</td></tr></table></div>"
        },
        "status": "final",
        "subject": {
          "reference": "urn:uuid:b3d6ccb3-6519-41c3-9e77-df0b5fe23a91",
          "display": "Iva Kratochvílová"
        },
        "effectiveDateTime": "2025-02-02T16:10:29Z",
        "specimen": {
          "reference": "urn:uuid:690fa7bf-a269-452c-9c2e-934fe355871f"
        }
      }
    },
    {
      "fullUrl": "urn:uuid:d8f67a27-0b2d-40f5-8df0-2a28d9a90b2e",
      "resource": {
        "resourceType": "Observation",
        "id": "d8f67a27-0b2d-40f5-8df0-2a28d9a90b2e",
        "meta": {
          "profile": [
            "http://hl7.eu/fhir/laboratory/StructureDefinition/Observation-resultslab-eu-lab"
          ]
        },
        "performer": [
          {
            "display": "The Central European Lab"
          }
        ],
        "category": [
          {
            "coding": [
              {
                "system": "http://terminology.hl7.org/CodeSystem/observation-category",
                "code": "laboratory"
              }
            ]
          }
        ],
        "code": {
          "coding": [
            {
              "code": "6299-2",
              "system": "http://loinc.org",
              "display": "Urea nitrogen [Mass/volume] in Blood"
            }
          ],
          "text": "Urea nitrogen [Mass/volume] in Blood"
        },
        "valueQuantity": {
          "system": "http://unitsofmeasure.org",
          "value": 19,
          "unit": "mg/dL",
          "code": "mg/dL"
        },
        "referenceRange": [
          {
            "low": {
              "value": 7,
              "code": "mg/dL",
              "system": "http://unitsofmeasure.org"
            }
          },
          {
            "high": {
              "value": 25,
              "code": "mg/dL",
              "system": "http://unitsofmeasure.org"
            }
          }
        ],
        "text": {
          "status": "generated",
          "div": "<div xmlns=\"http://www.w3.org/1999/xhtml\"><table class=\"hl7__eu__lab__report\"><tr><th>Test</th><th>02-Feb-2025</th><th>Reference&#xA0;Range</th><th>Unit</th></tr><tr><td>Urea nitrogen [Mass/volume] in Blood</td><td>19.0</td><td>7 - 25</td><td></td><td>mg/dL</td></tr></table></div>"
        },
        "status": "final",
        "subject": {
          "reference": "urn:uuid:b3d6ccb3-6519-41c3-9e77-df0b5fe23a91",
          "display": "Iva Kratochvílová"
        },
        "effectiveDateTime": "2025-02-02T16:10:29Z",
        "specimen": {
          "reference": "urn:uuid:690fa7bf-a269-452c-9c2e-934fe355871f"
        }
      }
    },
    {
      "fullUrl": "urn:uuid:89662307-aee4-4e5e-9817-1461261691bb",
      "resource": {
        "resourceType": "Observation",
        "id": "89662307-aee4-4e5e-9817-1461261691bb",
        "meta": {
          "profile": [
            "http://hl7.eu/fhir/laboratory/StructureDefinition/Observation-resultslab-eu-lab"
          ]
        },
        "performer": [
          {
            "display": "The Central European Lab"
          }
        ],
        "category": [
          {
            "coding": [
              {
                "system": "http://terminology.hl7.org/CodeSystem/observation-category",
                "code": "laboratory"
              }
            ]
          }
        ],
        "code": {
          "coding": [
            {
              "code": "38483-4",
              "system": "http://loinc.org",
              "display": "Creatinine [Mass/volume] in Blood"
            }
          ],
          "text": "Creatinine [Mass/volume] in Blood"
        },
        "valueQuantity": {
          "system": "http://unitsofmeasure.org",
          "value": 1.4,
          "unit": "mg/dL",
          "code": "mg/dL"
        },
        "referenceRange": [
          {
            "low": {
              "value": 0.6,
              "code": "mg/dL",
              "system": "http://unitsofmeasure.org"
            }
          },
          {
            "high": {
              "value": 1.1,
              "code": "mg/dL",
              "system": "http://unitsofmeasure.org"
            }
          }
        ],
        "interpretation": [
          {
            "coding": [
              {
                "code": "H",
                "system": "http://terminology.hl7.org/CodeSystem/v3-ObservationInterpretation",
                "display": "High"
              }
            ]
          }
        ],
        "text": {
          "status": "generated",
          "div": "<div xmlns=\"http://www.w3.org/1999/xhtml\"><table class=\"hl7__eu__lab__report\"><tr><th>Test</th><th>02-Feb-2025</th><th>Reference&#xA0;Range</th><th>Unit</th></tr><tr><td>Creatinine [Mass/volume] in Blood</td><td>1.4</td><td>0.6 - 1.1</td><td>H</td><td>mg/dL</td></tr></table></div>"
        },
        "status": "final",
        "subject": {
          "reference": "urn:uuid:b3d6ccb3-6519-41c3-9e77-df0b5fe23a91",
          "display": "Iva Kratochvílová"
        },
        "effectiveDateTime": "2025-02-02T16:10:29Z",
        "specimen": {
          "reference": "urn:uuid:690fa7bf-a269-452c-9c2e-934fe355871f"
        }
      }
    },
    {
      "fullUrl": "urn:uuid:39e88d15-1da6-4509-835a-e993b584ded1",
      "resource": {
        "resourceType": "Observation",
        "id": "39e88d15-1da6-4509-835a-e993b584ded1",
        "meta": {
          "profile": [
            "http://hl7.eu/fhir/laboratory/StructureDefinition/Observation-resultslab-eu-lab"
          ]
        },
        "performer": [
          {
            "display": "The Central European Lab"
          }
        ],
        "category": [
          {
            "coding": [
              {
                "system": "http://terminology.hl7.org/CodeSystem/observation-category",
                "code": "laboratory"
              }
            ]
          }
        ],
        "code": {
          "coding": [
            {
              "code": "49765-1",
              "system": "http://loinc.org",
              "display": "Calcium [Mass/volume] in Blood"
            }
          ],
          "text": "Calcium [Mass/volume] in Blood"
        },
        "valueQuantity": {
          "system": "http://unitsofmeasure.org",
          "value": 10.2,
          "unit": "mg/dL",
          "code": "mg/dL"
        },
        "referenceRange": [
          {
            "low": {
              "value": 8.6,
              "code": "mg/dL",
              "system": "http://unitsofmeasure.org"
            }
          },
          {
            "high": {
              "value": 10.4,
              "code": "mg/dL",
              "system": "http://unitsofmeasure.org"
            }
          }
        ],
        "text": {
          "status": "generated",
          "div": "<div xmlns=\"http://www.w3.org/1999/xhtml\"><table class=\"hl7__eu__lab__report\"><tr><th>Test</th><th>02-Feb-2025</th><th>Reference&#xA0;Range</th><th>Unit</th></tr><tr><td>Calcium [Mass/volume] in Blood</td><td>10.2</td><td>8.6 - 10.4</td><td></td><td>mg/dL</td></tr></table></div>"
        },
        "status": "final",
        "subject": {
          "reference": "urn:uuid:b3d6ccb3-6519-41c3-9e77-df0b5fe23a91",
          "display": "Iva Kratochvílová"
        },
        "effectiveDateTime": "2025-02-02T16:10:29Z",
        "specimen": {
          "reference": "urn:uuid:690fa7bf-a269-452c-9c2e-934fe355871f"
        }
      }
    },
    {
      "fullUrl": "urn:uuid:edb46b53-0f22-4f48-82f6-c6a3649e8328",
      "resource": {
        "resourceType": "Observation",
        "id": "edb46b53-0f22-4f48-82f6-c6a3649e8328",
        "meta": {
          "profile": [
            "http://hl7.eu/fhir/laboratory/StructureDefinition/Observation-resultslab-eu-lab"
          ]
        },
        "performer": [
          {
            "display": "The Central European Lab"
          }
        ],
        "category": [
          {
            "coding": [
              {
                "system": "http://terminology.hl7.org/CodeSystem/observation-category",
                "code": "laboratory"
              }
            ]
          }
        ],
        "code": {
          "coding": [
            {
              "code": "2947-0",
              "system": "http://loinc.org",
              "display": "Sodium [Moles/volume] in Blood"
            }
          ],
          "text": "Sodium [Moles/volume] in Blood"
        },
        "valueQuantity": {
          "system": "http://unitsofmeasure.org",
          "value": 141.4,
          "unit": "mmol/L",
          "code": "mmol/L"
        },
        "referenceRange": [
          {
            "low": {
              "value": 135,
              "code": "mmol/L",
              "system": "http://unitsofmeasure.org"
            }
          },
          {
            "high": {
              "value": 145,
              "code": "mmol/L",
              "system": "http://unitsofmeasure.org"
            }
          }
        ],
        "text": {
          "status": "generated",
          "div": "<div xmlns=\"http://www.w3.org/1999/xhtml\"><table class=\"hl7__eu__lab__report\"><tr><th>Test</th><th>02-Feb-2025</th><th>Reference&#xA0;Range</th><th>Unit</th></tr><tr><td>Sodium [Moles/volume] in Blood</td><td>141.4</td><td>135 - 145</td><td></td><td>mmol/L</td></tr></table></div>"
        },
        "status": "final",
        "subject": {
          "reference": "urn:uuid:b3d6ccb3-6519-41c3-9e77-df0b5fe23a91",
          "display": "Iva Kratochvílová"
        },
        "effectiveDateTime": "2025-02-02T16:10:29Z",
        "specimen": {
          "reference": "urn:uuid:690fa7bf-a269-452c-9c2e-934fe355871f"
        }
      }
    },
    {
      "fullUrl": "urn:uuid:d214fe65-4ced-47b3-a091-40d95ba76ac0",
      "resource": {
        "resourceType": "Observation",
        "id": "d214fe65-4ced-47b3-a091-40d95ba76ac0",
        "meta": {
          "profile": [
            "http://hl7.eu/fhir/laboratory/StructureDefinition/Observation-resultslab-eu-lab"
          ]
        },
        "performer": [
          {
            "display": "The Central European Lab"
          }
        ],
        "category": [
          {
            "coding": [
              {
                "system": "http://terminology.hl7.org/CodeSystem/observation-category",
                "code": "laboratory"
              }
            ]
          }
        ],
        "code": {
          "coding": [
            {
              "code": "6298-4",
              "system": "http://loinc.org",
              "display": "Potassium [Moles/volume] in Blood"
            }
          ],
          "text": "Potassium [Moles/volume] in Blood"
        },
        "valueQuantity": {
          "system": "http://unitsofmeasure.org",
          "value": 4.6,
          "unit": "mmol/L",
          "code": "mmol/L"
        },
        "referenceRange": [
          {
            "low": {
              "value": 3.5,
              "code": "mmol/L",
              "system": "http://unitsofmeasure.org"
            }
          },
          {
            "high": {
              "value": 5.1,
              "code": "mmol/L",
              "system": "http://unitsofmeasure.org"
            }
          }
        ],
        "text": {
          "status": "generated",
          "div": "<div xmlns=\"http://www.w3.org/1999/xhtml\"><table class=\"hl7__eu__lab__report\"><tr><th>Test</th><th>02-Feb-2025</th><th>Reference&#xA0;Range</th><th>Unit</th></tr><tr><td>Potassium [Moles/volume] in Blood</td><td>4.6</td><td>3.5 - 5.1</td><td></td><td>mmol/L</td></tr></table></div>"
        },
        "status": "final",
        "subject": {
          "reference": "urn:uuid:b3d6ccb3-6519-41c3-9e77-df0b5fe23a91",
          "display": "Iva Kratochvílová"
        },
        "effectiveDateTime": "2025-02-02T16:10:29Z",
        "specimen": {
          "reference": "urn:uuid:690fa7bf-a269-452c-9c2e-934fe355871f"
        }
      }
    },
    {
      "fullUrl": "urn:uuid:80208cd4-9984-4447-a1c4-f438357b903e",
      "resource": {
        "resourceType": "Observation",
        "id": "80208cd4-9984-4447-a1c4-f438357b903e",
        "meta": {
          "profile": [
            "http://hl7.eu/fhir/laboratory/StructureDefinition/Observation-resultslab-eu-lab"
          ]
        },
        "performer": [
          {
            "display": "The Central European Lab"
          }
        ],
        "category": [
          {
            "coding": [
              {
                "system": "http://terminology.hl7.org/CodeSystem/observation-category",
                "code": "laboratory"
              }
            ]
          }
        ],
        "code": {
          "coding": [
            {
              "code": "2069-3",
              "system": "http://loinc.org",
              "display": "Chloride [Moles/volume] in Blood"
            }
          ],
          "text": "Chloride [Moles/volume] in Blood"
        },
        "valueQuantity": {
          "system": "http://unitsofmeasure.org",
          "value": 102.5,
          "unit": "mmol/L",
          "code": "mmol/L"
        },
        "referenceRange": [
          {
            "low": {
              "value": 98,
              "code": "mmol/L",
              "system": "http://unitsofmeasure.org"
            }
          },
          {
            "high": {
              "value": 110,
              "code": "mmol/L",
              "system": "http://unitsofmeasure.org"
            }
          }
        ],
        "text": {
          "status": "generated",
          "div": "<div xmlns=\"http://www.w3.org/1999/xhtml\"><table class=\"hl7__eu__lab__report\"><tr><th>Test</th><th>02-Feb-2025</th><th>Reference&#xA0;Range</th><th>Unit</th></tr><tr><td>Chloride [Moles/volume] in Blood</td><td>102.5</td><td>98 - 110</td><td></td><td>mmol/L</td></tr></table></div>"
        },
        "status": "final",
        "subject": {
          "reference": "urn:uuid:b3d6ccb3-6519-41c3-9e77-df0b5fe23a91",
          "display": "Iva Kratochvílová"
        },
        "effectiveDateTime": "2025-02-02T16:10:29Z",
        "specimen": {
          "reference": "urn:uuid:690fa7bf-a269-452c-9c2e-934fe355871f"
        }
      }
    },
    {
      "fullUrl": "urn:uuid:e5c2f0c7-4d06-4010-856e-da32d2d4fa76",
      "resource": {
        "resourceType": "Observation",
        "id": "e5c2f0c7-4d06-4010-856e-da32d2d4fa76",
        "meta": {
          "profile": [
            "http://hl7.eu/fhir/laboratory/StructureDefinition/Observation-resultslab-eu-lab"
          ]
        },
        "performer": [
          {
            "display": "The Central European Lab"
          }
        ],
        "category": [
          {
            "coding": [
              {
                "system": "http://terminology.hl7.org/CodeSystem/observation-category",
                "code": "laboratory"
              }
            ]
          }
        ],
        "code": {
          "coding": [
            {
              "code": "20565-8",
              "system": "http://loinc.org",
              "display": "Carbon dioxide, total [Moles/volume] in Blood"
            }
          ],
          "text": "Carbon dioxide, total [Moles/volume] in Blood"
        },
        "valueQuantity": {
          "system": "http://unitsofmeasure.org",
          "value": 26.1,
          "unit": "mmol/L",
          "code": "mmol/L"
        },
        "referenceRange": [
          {
            "low": {
              "value": 22,
              "code": "mmol/L",
              "system": "http://unitsofmeasure.org"
            }
          },
          {
            "high": {
              "value": 29,
              "code": "mmol/L",
              "system": "http://unitsofmeasure.org"
            }
          }
        ],
        "text": {
          "status": "generated",
          "div": "<div xmlns=\"http://www.w3.org/1999/xhtml\"><table class=\"hl7__eu__lab__report\"><tr><th>Test</th><th>02-Feb-2025</th><th>Reference&#xA0;Range</th><th>Unit</th></tr><tr><td>Carbon dioxide, total [Moles/volume] in Blood</td><td>26.1</td><td>22 - 29</td><td></td><td>mmol/L</td></tr></table></div>"
        },
        "status": "final",
        "subject": {
          "reference": "urn:uuid:b3d6ccb3-6519-41c3-9e77-df0b5fe23a91",
          "display": "Iva Kratochvílová"
        },
        "effectiveDateTime": "2025-02-02T16:10:29Z",
        "specimen": {
          "reference": "urn:uuid:690fa7bf-a269-452c-9c2e-934fe355871f"
        }
      }
    },
    {
      "fullUrl": "urn:uuid:c1edaa05-2c75-4901-b31e-c55db591c392",
      "resource": {
        "resourceType": "Device",
        "id": "c1edaa05-2c75-4901-b31e-c55db591c392",
        "deviceName": [
          {
            "name": "SYNDERAI Synthetic Generator",
            "type": "manufacturer-name"
          }
        ],
        "version": [
          {
            "value": "5.0"
          }
        ],
        "text": {
          "status": "generated",
          "div": "<div xmlns=\"http://www.w3.org/1999/xhtml\">SYNDERAI Synthetic Generator v5.0</div>"
        },
        "status": "active\"",
        "distinctIdentifier": "synderai-generator-50",
        "manufacturer": "SYNDERAI Project"
      }
    },
    {
      "fullUrl": "urn:uuid:b8400f12-ae2b-4973-afbc-56381b4efa60",
      "resource": {
        "resourceType": "Provenance",
        "id": "b8400f12-ae2b-4973-afbc-56381b4efa60",
        "target": [
          {
            "reference": "Patient/b3d6ccb3-6519-41c3-9e77-df0b5fe23a91"
          },
          {
            "reference": "Bundle/16453383-707f-4dea-bf86-b0c6bb454d96"
          },
          {
            "reference": "Composition/ae7b7699-4aed-4b03-9576-19f4c14b5aec"
          },
          {
            "reference": "PractitionerRole/5d3f611f-b021-42ac-b790-d032e3c0a4c9"
          },
          {
            "reference": "Practitioner/7c135017-31cf-4fef-b309-eca040b7eb98"
          },
          {
            "reference": "PractitionerRole/7535d564-d5d3-4677-9ec8-820a87c0edcd"
          },
          {
            "reference": "Organization/05465940-118c-47b1-8f2c-06fda655b665"
          }
        ],
        "activity": {
          "text": "Synthetic Example Data Generation"
        },
        "policy": [
          "https://synderai.net/synderai-synthetic-data-policy"
        ],
        "agent": [
          {
            "type": {
              "text": "author"
            },
            "who": {
              "reference": "Device/c1edaa05-2c75-4901-b31e-c55db591c392"
            }
          }
        ],
        "reason": [
          {
            "text": "Interoperability Testing and Training (non-clinical use)"
          }
        ],
        "text": {
          "status": "generated",
          "div": "<div xmlns=\"http://www.w3.org/1999/xhtml\">Provenance for SYNDERAI Synthetic Example Data Resource</div>"
        },
        "recorded": "2025-02-02T17:10:29Z"
      }
    },
    {
      "fullUrl": "urn:uuid:5d3f611f-b021-42ac-b790-d032e3c0a4c9",
      "resource": {
        "resourceType": "PractitionerRole",
        "id": "5d3f611f-b021-42ac-b790-d032e3c0a4c9",
        "meta": {
          "profile": [
            "http://hl7.eu/fhir/base/StructureDefinition/practitionerRole-eu"
          ]
        },
        "text": {
          "status": "generated",
          "div": "<div xmlns=\"http://www.w3.org/1999/xhtml\">Laboratory Role Id: 5d3f611f-b021-42ac-b790-d032e3c0a4c9</div>"
        },
        "practitioner": {
          "reference": "urn:uuid:7c135017-31cf-4fef-b309-eca040b7eb98"
        }
      }
    },
    {
      "fullUrl": "urn:uuid:7c135017-31cf-4fef-b309-eca040b7eb98",
      "resource": {
        "resourceType": "Practitioner",
        "id": "7c135017-31cf-4fef-b309-eca040b7eb98",
        "meta": {
          "profile": [
            "http://hl7.eu/fhir/base/StructureDefinition/practitioner-eu"
          ]
        },
        "identifier": [
          {
            "assigner": {
              "display": "HL7 Europe"
            },
            "system": "urn:oid:2.16.840.1.113883.2.51.999",
            "value": "06440663-3704-444d-a571-c5275947cece"
          }
        ],
        "name": [
          {
            "prefix": [
              "dr"
            ],
            "given": [
              "Ex"
            ],
            "family": "Ample"
          }
        ],
        "address": [
          {
            "line": [
              "Laboratoire Central Européenne",
              "Boulevard du Jardin Botanique 32"
            ],
            "postalCode": "1000",
            "city": "Brussels",
            "country": "Belgium"
          }
        ],
        "text": {
          "status": "generated",
          "div": "<div xmlns=\"http://www.w3.org/1999/xhtml\">Laboratory: Laboratoire Central Européenne, 1000 Brussels, Belgium</div>"
        }
      }
    }
  ],
  "type": "document",
  "timestamp": "2025-02-02T17:10:29Z"
}
