{
  "resourceType": "Bundle",
  "id": "84e7705d-6487-45ce-9437-2773cc4cd3a2",
  "meta": {
    "profile": [
      "http://hl7.eu/fhir/laboratory/StructureDefinition/Bundle-eu-lab"
    ]
  },
  "identifier": {
    "assigner": {
      "display": "HL7 Europe"
    },
    "system": "urn:oid:2.16.840.1.113883.2.51.999",
    "value": "e6bcacc1-154b-4a2b-a94b-ae8d465301fa"
  },
  "entry": [
    {
      "fullUrl": "urn:uuid:aec1dc25-e550-479e-b846-804f3f8c666e",
      "resource": {
        "resourceType": "Composition",
        "id": "aec1dc25-e550-479e-b846-804f3f8c666e",
        "meta": {
          "profile": [
            "http://hl7.eu/fhir/laboratory/StructureDefinition/Composition-eu-lab"
          ]
        },
        "identifier": {
          "assigner": {
            "display": "HL7 Europe"
          },
          "system": "urn:oid:2.16.840.1.113883.2.51.999",
          "value": "38431486-de94-4560-b1ed-a9be4c17b3bf"
        },
        "author": [
          {
            "reference": "urn:uuid:e9305218-044d-4746-af03-8558f5f9718c"
          }
        ],
        "category": [
          {
            "coding": [
              {
                "code": "26436-6",
                "system": "http://loinc.org",
                "display": "Laboratory studies (set)"
              }
            ]
          }
        ],
        "type": {
          "coding": [
            {
              "code": "11502-2",
              "system": "http://loinc.org",
              "display": "Laboratory report"
            }
          ],
          "text": "Laboratory Report"
        },
        "section": [
          {
            "code": {
              "coding": [
                {
                  "code": "26436-6",
                  "system": "http://loinc.org",
                  "display": "Laboratory studies (set)"
                }
              ],
              "text": "Laboratory studies"
            },
            "section": [
              {
                "code": {
                  "coding": [
                    {
                      "code": "$18719-5",
                      "system": "http://loinc.org",
                      "display": "Chemistry studies (set)"
                    }
                  ],
                  "text": "Chemistry"
                },
                "entry": [
                  {
                    "reference": "urn:uuid:4700fdb0-9e8e-45d5-b480-48739946e069"
                  },
                  {
                    "reference": "urn:uuid:16b84cdf-571b-4f4b-b884-d67c6e1246fc"
                  },
                  {
                    "reference": "urn:uuid:c0cb9460-6597-4afb-8579-7cd9bb84acde"
                  },
                  {
                    "reference": "urn:uuid:d5086e97-89e5-4e9d-9bb4-1375c58ce921"
                  },
                  {
                    "reference": "urn:uuid:94574996-b496-40c9-9122-77db1ce47f80"
                  },
                  {
                    "reference": "urn:uuid:8fbddd68-fe09-435a-ba01-0cf6a4e6ccb0"
                  },
                  {
                    "reference": "urn:uuid:d35d5151-9d6d-4779-8a38-f37a8516a862"
                  },
                  {
                    "reference": "urn:uuid:14d1da87-b4fd-481c-8ca0-dcd5ae72f6de"
                  },
                  {
                    "reference": "urn:uuid:8a83676e-92e0-4309-a047-c0b76efa5df4"
                  }
                ],
                "text": {
                  "status": "generated",
                  "div": "<div xmlns=\"http://www.w3.org/1999/xhtml\"><h3>Chemistry</h3><table class=\"hl7__eu__lab__report\"><thead><tr><th>Test</th><th>12-NOV-2022</th><th>Reference&#xA0;Range</th><th>Unit</th></tr></thead><tbody><tr><td>Hemoglobin A1c/Hemoglobin.total in Blood</td><td>6.2</td><td>4.5 - 6.4</td><td>%</td></tr><tr><td>Glucose [Mass/volume] in Blood</td><td><strong>68.8 L</strong></td><td>70 - 140</td><td>mg/dL</td></tr><tr><td>Urea nitrogen [Mass/volume] in Blood</td><td>15.8</td><td>7 - 25</td><td>mg/dL</td></tr><tr><td>Creatinine [Mass/volume] in Blood</td><td>0.8</td><td>0.6 - 1.1</td><td>mg/dL</td></tr><tr><td>Calcium [Mass/volume] in Blood</td><td>8.8</td><td>8.6 - 10.4</td><td>mg/dL</td></tr><tr><td>Sodium [Moles/volume] in Blood</td><td>140.5</td><td>135 - 145</td><td>mmol/L</td></tr><tr><td>Potassium [Moles/volume] in Blood</td><td>4.9</td><td>3.5 - 5.3</td><td>mmol/L</td></tr><tr><td>Chloride [Moles/volume] in Blood</td><td><strong>110.1 H</strong></td><td>98 - 108</td><td>mmol/L</td></tr><tr><td>Carbon dioxide, total [Moles/volume] in Blood</td><td>25.0</td><td>22 - 32</td><td>mmol/L</td></tr></tbody></table></div>"
                },
                "title": "Chemistry"
              }
            ],
            "title": "Laboratory Report"
          },
          {
            "text": {
              "status": "generated",
              "div": "<div xmlns=\"http://www.w3.org/1999/xhtml\"><h3>Annotation</h3><table class=\"hl7__eu__lab__report\"><tr><th>Conclusion and Recommendations based on this report and previous findings known to us</th></tr><tr><td>The results show well-controlled long-term glucose (HbA1c), but a slightly low current blood glucose, which may indicate risk of hypoglycemia. Renal function and electrolytes are within normal limits except for mildly elevated chloride, which is likely not clinically significant in isolation. No acute concerns, but monitor for hypoglycemic symptoms and review antidiabetic therapy if applicable.</td></tr></table></div>"
            },
            "code": {
              "coding": [
                {
                  "system": "http://loinc.org",
                  "code": "48767-8",
                  "display": "Annotation comment"
                }
              ]
            },
            "title": "Annotation comment"
          }
        ],
        "status": "final",
        "subject": {
          "reference": "urn:uuid:ea0e9e09-f2f4-4c77-96ac-b4f5d2980ba4",
          "display": "Helene Andresen"
        },
        "date": "2022-11-12T23:53:36Z",
        "title": "Laboratory Report",
        "confidentiality": "N"
      }
    },
    {
      "fullUrl": "urn:uuid:7972b17e-3e7a-454d-b5d1-3eb0559e9aac",
      "resource": {
        "resourceType": "DiagnosticReport",
        "id": "7972b17e-3e7a-454d-b5d1-3eb0559e9aac",
        "meta": {
          "profile": [
            "http://hl7.eu/fhir/laboratory/StructureDefinition/DiagnosticReport-eu-lab"
          ]
        },
        "identifier": [
          {
            "assigner": {
              "display": "HL7 Europe"
            },
            "system": "urn:oid:2.16.840.1.113883.2.51.999",
            "value": "d3cdb3d1-a4a9-48c0-b12e-7ab7d2cb3413"
          }
        ],
        "extension": [
          {
            "url": "http://hl7.org/fhir/5.0/StructureDefinition/extension-DiagnosticReport.composition",
            "valueReference": {
              "reference": "urn:uuid:38431486-de94-4560-b1ed-a9be4c17b3bf"
            }
          }
        ],
        "category": [
          {
            "coding": [
              {
                "code": "26436-6",
                "system": "http://loinc.org",
                "display": "Laboratory studies (set)"
              }
            ]
          }
        ],
        "specimen": [
          {
            "reference": "urn:uuid:bb8882f2-4e99-4cbf-b840-80a2ed0c213f"
          }
        ],
        "result": [
          {
            "reference": "urn:uuid:4700fdb0-9e8e-45d5-b480-48739946e069"
          },
          {
            "reference": "urn:uuid:16b84cdf-571b-4f4b-b884-d67c6e1246fc"
          },
          {
            "reference": "urn:uuid:c0cb9460-6597-4afb-8579-7cd9bb84acde"
          },
          {
            "reference": "urn:uuid:d5086e97-89e5-4e9d-9bb4-1375c58ce921"
          },
          {
            "reference": "urn:uuid:94574996-b496-40c9-9122-77db1ce47f80"
          },
          {
            "reference": "urn:uuid:8fbddd68-fe09-435a-ba01-0cf6a4e6ccb0"
          },
          {
            "reference": "urn:uuid:d35d5151-9d6d-4779-8a38-f37a8516a862"
          },
          {
            "reference": "urn:uuid:14d1da87-b4fd-481c-8ca0-dcd5ae72f6de"
          },
          {
            "reference": "urn:uuid:8a83676e-92e0-4309-a047-c0b76efa5df4"
          }
        ],
        "status": "registered",
        "code": {
          "coding": [
            {
              "code": "11502-2",
              "system": "http://loinc.org",
              "display": "Laboratory report"
            }
          ]
        },
        "subject": {
          "reference": "urn:uuid:ea0e9e09-f2f4-4c77-96ac-b4f5d2980ba4",
          "display": "Helene Andresen"
        }
      }
    },
    {
      "fullUrl": "urn:uuid:ea0e9e09-f2f4-4c77-96ac-b4f5d2980ba4",
      "resource": {
        "resourceType": "Patient",
        "id": "ea0e9e09-f2f4-4c77-96ac-b4f5d2980ba4",
        "meta": {
          "security": [
            {
              "system": "http://terminology.hl7.org/CodeSystem/v3-ActReason",
              "code": "HTEST"
            },
            {
              "system": "http://terminology.hl7.org/CodeSystem/v3-ActReason",
              "code": "TRAIN"
            }
          ],
          "tag": [
            {
              "system": "https://synderai.net/fhir/CodeSystem/tags",
              "code": "synthetic",
              "display": "SYNDERAI Synthetic data"
            }
          ],
          "profile": [
            "http://hl7.eu/fhir/base/StructureDefinition/patient-eu-core"
          ]
        },
        "identifier": [
          {
            "type": {
              "coding": [
                {
                  "code": "PT",
                  "system": "http://terminology.hl7.org/CodeSystem/v2-0203"
                }
              ]
            },
            "system": "http://ec.europa.eu/identifier/eci",
            "value": "3450-170343-2"
          },
          {
            "type": {
              "coding": [
                {
                  "code": "MR",
                  "system": "http://terminology.hl7.org/CodeSystem/v2-0203"
                }
              ]
            },
            "system": "http://local.setting.eu/identifier",
            "value": "72e91c9c-0b01-42b0-a6a0-6dcc70aeec49"
          }
        ],
        "name": [
          {
            "family": "Andresen"
          },
          {
            "given": [
              "Helene"
            ]
          },
          {
            "text": "Helene Andresen"
          }
        ],
        "address": [
          {
            "line": [
              "Kristiansenberget 2"
            ],
            "use": "home",
            "type": "physical",
            "postalCode": "0172",
            "city": "Sørensen",
            "country": "Norway"
          }
        ],
        "telecom": [
          {
            "system": "phone",
            "value": "53 98 86 24"
          }
        ],
        "extension": [
          {
            "url": "http://hl7.org/fhir/StructureDefinition/patient-nationality",
            "valueCodeableConcept": {
              "coding": [
                {
                  "code": "NO",
                  "system": "http://hl7.org/fhir/ValueSet/country"
                }
              ]
            }
          }
        ],
        "text": {
          "status": "generated",
          "div": "<div xmlns=\"http://www.w3.org/1999/xhtml\"><table class=\"hl7__ips\"><tr><td>Helene Andresen</td><td>female</td><td>17-Oct-1939</td></tr></table></div>"
        },
        "gender": "female",
        "birthDate": "1939-10-17"
      }
    },
    {
      "fullUrl": "urn:uuid:3139a4c4-fc26-4266-8bd9-fc3c08a2c722",
      "resource": {
        "resourceType": "ServiceRequest",
        "id": "3139a4c4-fc26-4266-8bd9-fc3c08a2c722",
        "meta": {
          "profile": [
            "http://hl7.eu/fhir/laboratory/StructureDefinition/ServiceRequest-eu-lab"
          ]
        },
        "identifier": [
          {
            "system": "http://example.org",
            "value": "f7790157-da08-4fa3-9047-151305b32fd2"
          }
        ],
        "specimen": [
          {
            "reference": "urn:uuid:bb8882f2-4e99-4cbf-b840-80a2ed0c213f"
          }
        ],
        "reasonCode": [
          {
            "coding": [
              {
                "code": "64859006",
                "system": "http://snomed.info/sct",
                "display": "Osteoporosis"
              }
            ]
          },
          {
            "coding": [
              {
                "code": "40055000",
                "system": "http://snomed.info/sct",
                "display": "Chronic sinusitis"
              }
            ]
          },
          {
            "coding": [
              {
                "code": "55822004",
                "system": "http://snomed.info/sct",
                "display": "Hyperlipidemia"
              }
            ]
          },
          {
            "coding": [
              {
                "code": "271737000",
                "system": "http://snomed.info/sct",
                "display": "Anemia"
              }
            ]
          },
          {
            "coding": [
              {
                "code": "15777000",
                "system": "http://snomed.info/sct",
                "display": "Prediabetes"
              }
            ]
          },
          {
            "coding": [
              {
                "code": "128613002",
                "system": "http://snomed.info/sct",
                "display": "Seizure disorder"
              }
            ]
          }
        ],
        "status": "active",
        "intent": "order",
        "code": {
          "coding": [
            {
              "code": "108252007",
              "system": "http://snomed.info/sct",
              "display": "Laboratory procedure"
            }
          ]
        },
        "subject": {
          "reference": "urn:uuid:ea0e9e09-f2f4-4c77-96ac-b4f5d2980ba4",
          "display": "Helene Andresen"
        },
        "requester": {
          "reference": "urn:uuid:248c520e-6f02-4bc8-bec6-c7390c574946"
        }
      }
    },
    {
      "fullUrl": "urn:uuid:248c520e-6f02-4bc8-bec6-c7390c574946",
      "resource": {
        "resourceType": "PractitionerRole",
        "id": "248c520e-6f02-4bc8-bec6-c7390c574946",
        "meta": {
          "profile": [
            "http://hl7.eu/fhir/base/StructureDefinition/practitionerRole-eu"
          ]
        },
        "text": {
          "status": "generated",
          "div": "<div xmlns=\"http://www.w3.org/1999/xhtml\">Provider Role Id: 248c520e-6f02-4bc8-bec6-c7390c574946</div>"
        },
        "organization": {
          "reference": "urn:uuid:52d089d2-2ade-4499-88ef-f365b60653c8"
        }
      }
    },
    {
      "fullUrl": "urn:uuid:52d089d2-2ade-4499-88ef-f365b60653c8",
      "resource": {
        "resourceType": "Organization",
        "id": "52d089d2-2ade-4499-88ef-f365b60653c8",
        "meta": {
          "profile": [
            "http://hl7.eu/fhir/base/StructureDefinition/organization-eu"
          ]
        },
        "identifier": [
          {
            "assigner": {
              "display": "HL7 Europe"
            },
            "system": "urn:oid:2.16.840.1.113883.2.51.999",
            "value": "69379f60-a165-4208-a4a3-1007b62ebe70"
          }
        ],
        "address": [
          {
            "city": "Oslo",
            "postalCode": "0155",
            "country": "Norway"
          }
        ],
        "text": {
          "status": "generated",
          "div": "<div xmlns=\"http://www.w3.org/1999/xhtml\">Provider Organization: Oslo universitetssykehus (Ullevål)</div>"
        },
        "name": "Oslo universitetssykehus (Ullevål)"
      }
    },
    {
      "fullUrl": "urn:uuid:bb8882f2-4e99-4cbf-b840-80a2ed0c213f",
      "resource": {
        "resourceType": "Specimen",
        "id": "bb8882f2-4e99-4cbf-b840-80a2ed0c213f",
        "meta": {
          "profile": [
            "http://hl7.eu/fhir/laboratory/StructureDefinition/Specimen-eu-lab"
          ]
        },
        "collection": {
          "collectedDateTime": "2022-11-12"
        },
        "text": {
          "status": "generated",
          "div": "<div xmlns=\"http://www.w3.org/1999/xhtml\"><table class=\"hl7__eu__lab__report\"><tr><th>Specimen</th><th>Collection Date</th></tr><tr><td>Whole blood specimen (specimen)</td><td><span class=\"nb\">12-Nov-2022</span></td></tr></table></div>"
        },
        "type": {
          "coding": [
            {
              "code": "258580003",
              "system": "http://snomed.info/sct",
              "display": "Whole blood specimen (specimen)"
            }
          ]
        }
      }
    },
    {
      "fullUrl": "urn:uuid:4700fdb0-9e8e-45d5-b480-48739946e069",
      "resource": {
        "resourceType": "Observation",
        "id": "4700fdb0-9e8e-45d5-b480-48739946e069",
        "meta": {
          "profile": [
            "http://hl7.eu/fhir/laboratory/StructureDefinition/Observation-resultslab-eu-lab"
          ]
        },
        "performer": [
          {
            "display": "The Central European Lab"
          }
        ],
        "category": [
          {
            "coding": [
              {
                "system": "http://terminology.hl7.org/CodeSystem/observation-category",
                "code": "laboratory"
              }
            ]
          }
        ],
        "code": {
          "coding": [
            {
              "code": "4548-4",
              "system": "http://loinc.org",
              "display": "Hemoglobin A1c/Hemoglobin.total in Blood"
            }
          ],
          "text": "Hemoglobin A1c/Hemoglobin.total in Blood"
        },
        "valueQuantity": {
          "system": "http://unitsofmeasure.org",
          "value": 6.2,
          "unit": "%",
          "code": "%"
        },
        "referenceRange": [
          {
            "low": {
              "value": 4.5,
              "code": "%",
              "system": "http://unitsofmeasure.org"
            }
          },
          {
            "high": {
              "value": 6.4,
              "code": "%",
              "system": "http://unitsofmeasure.org"
            }
          }
        ],
        "text": {
          "status": "generated",
          "div": "<div xmlns=\"http://www.w3.org/1999/xhtml\"><table class=\"hl7__eu__lab__report\"><tr><th>Test</th><th>12-Nov-2022</th><th>Reference&#xA0;Range</th><th>Unit</th></tr><tr><td>Hemoglobin A1c/Hemoglobin.total in Blood</td><td>6.2</td><td>4.5 - 6.4</td><td></td><td>%</td></tr></table></div>"
        },
        "status": "final",
        "subject": {
          "reference": "urn:uuid:ea0e9e09-f2f4-4c77-96ac-b4f5d2980ba4",
          "display": "Helene Andresen"
        },
        "effectiveDateTime": "2022-11-12T22:53:36Z",
        "specimen": {
          "reference": "urn:uuid:bb8882f2-4e99-4cbf-b840-80a2ed0c213f"
        }
      }
    },
    {
      "fullUrl": "urn:uuid:16b84cdf-571b-4f4b-b884-d67c6e1246fc",
      "resource": {
        "resourceType": "Observation",
        "id": "16b84cdf-571b-4f4b-b884-d67c6e1246fc",
        "meta": {
          "profile": [
            "http://hl7.eu/fhir/laboratory/StructureDefinition/Observation-resultslab-eu-lab"
          ]
        },
        "performer": [
          {
            "display": "The Central European Lab"
          }
        ],
        "category": [
          {
            "coding": [
              {
                "system": "http://terminology.hl7.org/CodeSystem/observation-category",
                "code": "laboratory"
              }
            ]
          }
        ],
        "code": {
          "coding": [
            {
              "code": "2339-0",
              "system": "http://loinc.org",
              "display": "Glucose [Mass/volume] in Blood"
            }
          ],
          "text": "Glucose [Mass/volume] in Blood"
        },
        "valueQuantity": {
          "system": "http://unitsofmeasure.org",
          "value": 68.8,
          "unit": "mg/dL",
          "code": "mg/dL"
        },
        "referenceRange": [
          {
            "low": {
              "value": 70,
              "code": "mg/dL",
              "system": "http://unitsofmeasure.org"
            }
          },
          {
            "high": {
              "value": 140,
              "code": "mg/dL",
              "system": "http://unitsofmeasure.org"
            }
          }
        ],
        "interpretation": [
          {
            "coding": [
              {
                "code": "L",
                "system": "http://terminology.hl7.org/CodeSystem/v3-ObservationInterpretation",
                "display": "Low"
              }
            ]
          }
        ],
        "text": {
          "status": "generated",
          "div": "<div xmlns=\"http://www.w3.org/1999/xhtml\"><table class=\"hl7__eu__lab__report\"><tr><th>Test</th><th>12-Nov-2022</th><th>Reference&#xA0;Range</th><th>Unit</th></tr><tr><td>Glucose [Mass/volume] in Blood</td><td>68.8</td><td>70 - 140</td><td>L</td><td>mg/dL</td></tr></table></div>"
        },
        "status": "final",
        "subject": {
          "reference": "urn:uuid:ea0e9e09-f2f4-4c77-96ac-b4f5d2980ba4",
          "display": "Helene Andresen"
        },
        "effectiveDateTime": "2022-11-12T22:53:36Z",
        "specimen": {
          "reference": "urn:uuid:bb8882f2-4e99-4cbf-b840-80a2ed0c213f"
        }
      }
    },
    {
      "fullUrl": "urn:uuid:c0cb9460-6597-4afb-8579-7cd9bb84acde",
      "resource": {
        "resourceType": "Observation",
        "id": "c0cb9460-6597-4afb-8579-7cd9bb84acde",
        "meta": {
          "profile": [
            "http://hl7.eu/fhir/laboratory/StructureDefinition/Observation-resultslab-eu-lab"
          ]
        },
        "performer": [
          {
            "display": "The Central European Lab"
          }
        ],
        "category": [
          {
            "coding": [
              {
                "system": "http://terminology.hl7.org/CodeSystem/observation-category",
                "code": "laboratory"
              }
            ]
          }
        ],
        "code": {
          "coding": [
            {
              "code": "6299-2",
              "system": "http://loinc.org",
              "display": "Urea nitrogen [Mass/volume] in Blood"
            }
          ],
          "text": "Urea nitrogen [Mass/volume] in Blood"
        },
        "valueQuantity": {
          "system": "http://unitsofmeasure.org",
          "value": 15.8,
          "unit": "mg/dL",
          "code": "mg/dL"
        },
        "referenceRange": [
          {
            "low": {
              "value": 7,
              "code": "mg/dL",
              "system": "http://unitsofmeasure.org"
            }
          },
          {
            "high": {
              "value": 25,
              "code": "mg/dL",
              "system": "http://unitsofmeasure.org"
            }
          }
        ],
        "text": {
          "status": "generated",
          "div": "<div xmlns=\"http://www.w3.org/1999/xhtml\"><table class=\"hl7__eu__lab__report\"><tr><th>Test</th><th>12-Nov-2022</th><th>Reference&#xA0;Range</th><th>Unit</th></tr><tr><td>Urea nitrogen [Mass/volume] in Blood</td><td>15.8</td><td>7 - 25</td><td></td><td>mg/dL</td></tr></table></div>"
        },
        "status": "final",
        "subject": {
          "reference": "urn:uuid:ea0e9e09-f2f4-4c77-96ac-b4f5d2980ba4",
          "display": "Helene Andresen"
        },
        "effectiveDateTime": "2022-11-12T22:53:36Z",
        "specimen": {
          "reference": "urn:uuid:bb8882f2-4e99-4cbf-b840-80a2ed0c213f"
        }
      }
    },
    {
      "fullUrl": "urn:uuid:d5086e97-89e5-4e9d-9bb4-1375c58ce921",
      "resource": {
        "resourceType": "Observation",
        "id": "d5086e97-89e5-4e9d-9bb4-1375c58ce921",
        "meta": {
          "profile": [
            "http://hl7.eu/fhir/laboratory/StructureDefinition/Observation-resultslab-eu-lab"
          ]
        },
        "performer": [
          {
            "display": "The Central European Lab"
          }
        ],
        "category": [
          {
            "coding": [
              {
                "system": "http://terminology.hl7.org/CodeSystem/observation-category",
                "code": "laboratory"
              }
            ]
          }
        ],
        "code": {
          "coding": [
            {
              "code": "38483-4",
              "system": "http://loinc.org",
              "display": "Creatinine [Mass/volume] in Blood"
            }
          ],
          "text": "Creatinine [Mass/volume] in Blood"
        },
        "valueQuantity": {
          "system": "http://unitsofmeasure.org",
          "value": 0.8,
          "unit": "mg/dL",
          "code": "mg/dL"
        },
        "referenceRange": [
          {
            "low": {
              "value": 0.6,
              "code": "mg/dL",
              "system": "http://unitsofmeasure.org"
            }
          },
          {
            "high": {
              "value": 1.1,
              "code": "mg/dL",
              "system": "http://unitsofmeasure.org"
            }
          }
        ],
        "text": {
          "status": "generated",
          "div": "<div xmlns=\"http://www.w3.org/1999/xhtml\"><table class=\"hl7__eu__lab__report\"><tr><th>Test</th><th>12-Nov-2022</th><th>Reference&#xA0;Range</th><th>Unit</th></tr><tr><td>Creatinine [Mass/volume] in Blood</td><td>0.8</td><td>0.6 - 1.1</td><td></td><td>mg/dL</td></tr></table></div>"
        },
        "status": "final",
        "subject": {
          "reference": "urn:uuid:ea0e9e09-f2f4-4c77-96ac-b4f5d2980ba4",
          "display": "Helene Andresen"
        },
        "effectiveDateTime": "2022-11-12T22:53:36Z",
        "specimen": {
          "reference": "urn:uuid:bb8882f2-4e99-4cbf-b840-80a2ed0c213f"
        }
      }
    },
    {
      "fullUrl": "urn:uuid:94574996-b496-40c9-9122-77db1ce47f80",
      "resource": {
        "resourceType": "Observation",
        "id": "94574996-b496-40c9-9122-77db1ce47f80",
        "meta": {
          "profile": [
            "http://hl7.eu/fhir/laboratory/StructureDefinition/Observation-resultslab-eu-lab"
          ]
        },
        "performer": [
          {
            "display": "The Central European Lab"
          }
        ],
        "category": [
          {
            "coding": [
              {
                "system": "http://terminology.hl7.org/CodeSystem/observation-category",
                "code": "laboratory"
              }
            ]
          }
        ],
        "code": {
          "coding": [
            {
              "code": "49765-1",
              "system": "http://loinc.org",
              "display": "Calcium [Mass/volume] in Blood"
            }
          ],
          "text": "Calcium [Mass/volume] in Blood"
        },
        "valueQuantity": {
          "system": "http://unitsofmeasure.org",
          "value": 8.8,
          "unit": "mg/dL",
          "code": "mg/dL"
        },
        "referenceRange": [
          {
            "low": {
              "value": 8.6,
              "code": "mg/dL",
              "system": "http://unitsofmeasure.org"
            }
          },
          {
            "high": {
              "value": 10.4,
              "code": "mg/dL",
              "system": "http://unitsofmeasure.org"
            }
          }
        ],
        "text": {
          "status": "generated",
          "div": "<div xmlns=\"http://www.w3.org/1999/xhtml\"><table class=\"hl7__eu__lab__report\"><tr><th>Test</th><th>12-Nov-2022</th><th>Reference&#xA0;Range</th><th>Unit</th></tr><tr><td>Calcium [Mass/volume] in Blood</td><td>8.8</td><td>8.6 - 10.4</td><td></td><td>mg/dL</td></tr></table></div>"
        },
        "status": "final",
        "subject": {
          "reference": "urn:uuid:ea0e9e09-f2f4-4c77-96ac-b4f5d2980ba4",
          "display": "Helene Andresen"
        },
        "effectiveDateTime": "2022-11-12T22:53:36Z",
        "specimen": {
          "reference": "urn:uuid:bb8882f2-4e99-4cbf-b840-80a2ed0c213f"
        }
      }
    },
    {
      "fullUrl": "urn:uuid:8fbddd68-fe09-435a-ba01-0cf6a4e6ccb0",
      "resource": {
        "resourceType": "Observation",
        "id": "8fbddd68-fe09-435a-ba01-0cf6a4e6ccb0",
        "meta": {
          "profile": [
            "http://hl7.eu/fhir/laboratory/StructureDefinition/Observation-resultslab-eu-lab"
          ]
        },
        "performer": [
          {
            "display": "The Central European Lab"
          }
        ],
        "category": [
          {
            "coding": [
              {
                "system": "http://terminology.hl7.org/CodeSystem/observation-category",
                "code": "laboratory"
              }
            ]
          }
        ],
        "code": {
          "coding": [
            {
              "code": "2947-0",
              "system": "http://loinc.org",
              "display": "Sodium [Moles/volume] in Blood"
            }
          ],
          "text": "Sodium [Moles/volume] in Blood"
        },
        "valueQuantity": {
          "system": "http://unitsofmeasure.org",
          "value": 140.5,
          "unit": "mmol/L",
          "code": "mmol/L"
        },
        "referenceRange": [
          {
            "low": {
              "value": 135,
              "code": "mmol/L",
              "system": "http://unitsofmeasure.org"
            }
          },
          {
            "high": {
              "value": 145,
              "code": "mmol/L",
              "system": "http://unitsofmeasure.org"
            }
          }
        ],
        "text": {
          "status": "generated",
          "div": "<div xmlns=\"http://www.w3.org/1999/xhtml\"><table class=\"hl7__eu__lab__report\"><tr><th>Test</th><th>12-Nov-2022</th><th>Reference&#xA0;Range</th><th>Unit</th></tr><tr><td>Sodium [Moles/volume] in Blood</td><td>140.5</td><td>135 - 145</td><td></td><td>mmol/L</td></tr></table></div>"
        },
        "status": "final",
        "subject": {
          "reference": "urn:uuid:ea0e9e09-f2f4-4c77-96ac-b4f5d2980ba4",
          "display": "Helene Andresen"
        },
        "effectiveDateTime": "2022-11-12T22:53:36Z",
        "specimen": {
          "reference": "urn:uuid:bb8882f2-4e99-4cbf-b840-80a2ed0c213f"
        }
      }
    },
    {
      "fullUrl": "urn:uuid:d35d5151-9d6d-4779-8a38-f37a8516a862",
      "resource": {
        "resourceType": "Observation",
        "id": "d35d5151-9d6d-4779-8a38-f37a8516a862",
        "meta": {
          "profile": [
            "http://hl7.eu/fhir/laboratory/StructureDefinition/Observation-resultslab-eu-lab"
          ]
        },
        "performer": [
          {
            "display": "The Central European Lab"
          }
        ],
        "category": [
          {
            "coding": [
              {
                "system": "http://terminology.hl7.org/CodeSystem/observation-category",
                "code": "laboratory"
              }
            ]
          }
        ],
        "code": {
          "coding": [
            {
              "code": "6298-4",
              "system": "http://loinc.org",
              "display": "Potassium [Moles/volume] in Blood"
            }
          ],
          "text": "Potassium [Moles/volume] in Blood"
        },
        "valueQuantity": {
          "system": "http://unitsofmeasure.org",
          "value": 4.9,
          "unit": "mmol/L",
          "code": "mmol/L"
        },
        "referenceRange": [
          {
            "low": {
              "value": 3.5,
              "code": "mmol/L",
              "system": "http://unitsofmeasure.org"
            }
          },
          {
            "high": {
              "value": 5.3,
              "code": "mmol/L",
              "system": "http://unitsofmeasure.org"
            }
          }
        ],
        "text": {
          "status": "generated",
          "div": "<div xmlns=\"http://www.w3.org/1999/xhtml\"><table class=\"hl7__eu__lab__report\"><tr><th>Test</th><th>12-Nov-2022</th><th>Reference&#xA0;Range</th><th>Unit</th></tr><tr><td>Potassium [Moles/volume] in Blood</td><td>4.9</td><td>3.5 - 5.3</td><td></td><td>mmol/L</td></tr></table></div>"
        },
        "status": "final",
        "subject": {
          "reference": "urn:uuid:ea0e9e09-f2f4-4c77-96ac-b4f5d2980ba4",
          "display": "Helene Andresen"
        },
        "effectiveDateTime": "2022-11-12T22:53:36Z",
        "specimen": {
          "reference": "urn:uuid:bb8882f2-4e99-4cbf-b840-80a2ed0c213f"
        }
      }
    },
    {
      "fullUrl": "urn:uuid:14d1da87-b4fd-481c-8ca0-dcd5ae72f6de",
      "resource": {
        "resourceType": "Observation",
        "id": "14d1da87-b4fd-481c-8ca0-dcd5ae72f6de",
        "meta": {
          "profile": [
            "http://hl7.eu/fhir/laboratory/StructureDefinition/Observation-resultslab-eu-lab"
          ]
        },
        "performer": [
          {
            "display": "The Central European Lab"
          }
        ],
        "category": [
          {
            "coding": [
              {
                "system": "http://terminology.hl7.org/CodeSystem/observation-category",
                "code": "laboratory"
              }
            ]
          }
        ],
        "code": {
          "coding": [
            {
              "code": "2069-3",
              "system": "http://loinc.org",
              "display": "Chloride [Moles/volume] in Blood"
            }
          ],
          "text": "Chloride [Moles/volume] in Blood"
        },
        "valueQuantity": {
          "system": "http://unitsofmeasure.org",
          "value": 110.1,
          "unit": "mmol/L",
          "code": "mmol/L"
        },
        "referenceRange": [
          {
            "low": {
              "value": 98,
              "code": "mmol/L",
              "system": "http://unitsofmeasure.org"
            }
          },
          {
            "high": {
              "value": 108,
              "code": "mmol/L",
              "system": "http://unitsofmeasure.org"
            }
          }
        ],
        "interpretation": [
          {
            "coding": [
              {
                "code": "H",
                "system": "http://terminology.hl7.org/CodeSystem/v3-ObservationInterpretation",
                "display": "High"
              }
            ]
          }
        ],
        "text": {
          "status": "generated",
          "div": "<div xmlns=\"http://www.w3.org/1999/xhtml\"><table class=\"hl7__eu__lab__report\"><tr><th>Test</th><th>12-Nov-2022</th><th>Reference&#xA0;Range</th><th>Unit</th></tr><tr><td>Chloride [Moles/volume] in Blood</td><td>110.1</td><td>98 - 108</td><td>H</td><td>mmol/L</td></tr></table></div>"
        },
        "status": "final",
        "subject": {
          "reference": "urn:uuid:ea0e9e09-f2f4-4c77-96ac-b4f5d2980ba4",
          "display": "Helene Andresen"
        },
        "effectiveDateTime": "2022-11-12T22:53:36Z",
        "specimen": {
          "reference": "urn:uuid:bb8882f2-4e99-4cbf-b840-80a2ed0c213f"
        }
      }
    },
    {
      "fullUrl": "urn:uuid:8a83676e-92e0-4309-a047-c0b76efa5df4",
      "resource": {
        "resourceType": "Observation",
        "id": "8a83676e-92e0-4309-a047-c0b76efa5df4",
        "meta": {
          "profile": [
            "http://hl7.eu/fhir/laboratory/StructureDefinition/Observation-resultslab-eu-lab"
          ]
        },
        "performer": [
          {
            "display": "The Central European Lab"
          }
        ],
        "category": [
          {
            "coding": [
              {
                "system": "http://terminology.hl7.org/CodeSystem/observation-category",
                "code": "laboratory"
              }
            ]
          }
        ],
        "code": {
          "coding": [
            {
              "code": "20565-8",
              "system": "http://loinc.org",
              "display": "Carbon dioxide, total [Moles/volume] in Blood"
            }
          ],
          "text": "Carbon dioxide, total [Moles/volume] in Blood"
        },
        "valueQuantity": {
          "system": "http://unitsofmeasure.org",
          "value": 25,
          "unit": "mmol/L",
          "code": "mmol/L"
        },
        "referenceRange": [
          {
            "low": {
              "value": 22,
              "code": "mmol/L",
              "system": "http://unitsofmeasure.org"
            }
          },
          {
            "high": {
              "value": 32,
              "code": "mmol/L",
              "system": "http://unitsofmeasure.org"
            }
          }
        ],
        "text": {
          "status": "generated",
          "div": "<div xmlns=\"http://www.w3.org/1999/xhtml\"><table class=\"hl7__eu__lab__report\"><tr><th>Test</th><th>12-Nov-2022</th><th>Reference&#xA0;Range</th><th>Unit</th></tr><tr><td>Carbon dioxide, total [Moles/volume] in Blood</td><td>25.0</td><td>22 - 32</td><td></td><td>mmol/L</td></tr></table></div>"
        },
        "status": "final",
        "subject": {
          "reference": "urn:uuid:ea0e9e09-f2f4-4c77-96ac-b4f5d2980ba4",
          "display": "Helene Andresen"
        },
        "effectiveDateTime": "2022-11-12T22:53:36Z",
        "specimen": {
          "reference": "urn:uuid:bb8882f2-4e99-4cbf-b840-80a2ed0c213f"
        }
      }
    },
    {
      "fullUrl": "urn:uuid:51510428-89d4-4552-9f4d-21230526824d",
      "resource": {
        "resourceType": "Device",
        "id": "51510428-89d4-4552-9f4d-21230526824d",
        "deviceName": [
          {
            "name": "SYNDERAI Synthetic Generator",
            "type": "manufacturer-name"
          }
        ],
        "version": [
          {
            "value": "5.0"
          }
        ],
        "text": {
          "status": "generated",
          "div": "<div xmlns=\"http://www.w3.org/1999/xhtml\">SYNDERAI Synthetic Generator v5.0</div>"
        },
        "status": "active\"",
        "distinctIdentifier": "synderai-generator-50",
        "manufacturer": "SYNDERAI Project"
      }
    },
    {
      "fullUrl": "urn:uuid:b3afa73a-a17f-43a7-a3c2-830a77a39953",
      "resource": {
        "resourceType": "Provenance",
        "id": "b3afa73a-a17f-43a7-a3c2-830a77a39953",
        "target": [
          {
            "reference": "Patient/ea0e9e09-f2f4-4c77-96ac-b4f5d2980ba4"
          },
          {
            "reference": "Bundle/84e7705d-6487-45ce-9437-2773cc4cd3a2"
          },
          {
            "reference": "Composition/aec1dc25-e550-479e-b846-804f3f8c666e"
          },
          {
            "reference": "PractitionerRole/e9305218-044d-4746-af03-8558f5f9718c"
          },
          {
            "reference": "Practitioner/2d07be82-a87e-426a-82cb-7502a6af9257"
          },
          {
            "reference": "PractitionerRole/248c520e-6f02-4bc8-bec6-c7390c574946"
          },
          {
            "reference": "Organization/52d089d2-2ade-4499-88ef-f365b60653c8"
          }
        ],
        "activity": {
          "text": "Synthetic Example Data Generation"
        },
        "policy": [
          "https://synderai.net/synderai-synthetic-data-policy"
        ],
        "agent": [
          {
            "type": {
              "text": "author"
            },
            "who": {
              "reference": "Device/51510428-89d4-4552-9f4d-21230526824d"
            }
          }
        ],
        "reason": [
          {
            "text": "Interoperability Testing and Training (non-clinical use)"
          }
        ],
        "text": {
          "status": "generated",
          "div": "<div xmlns=\"http://www.w3.org/1999/xhtml\">Provenance for SYNDERAI Synthetic Example Data Resource</div>"
        },
        "recorded": "2022-11-12T23:53:36Z"
      }
    },
    {
      "fullUrl": "urn:uuid:e9305218-044d-4746-af03-8558f5f9718c",
      "resource": {
        "resourceType": "PractitionerRole",
        "id": "e9305218-044d-4746-af03-8558f5f9718c",
        "meta": {
          "profile": [
            "http://hl7.eu/fhir/base/StructureDefinition/practitionerRole-eu"
          ]
        },
        "text": {
          "status": "generated",
          "div": "<div xmlns=\"http://www.w3.org/1999/xhtml\">Laboratory Role Id: e9305218-044d-4746-af03-8558f5f9718c</div>"
        },
        "practitioner": {
          "reference": "urn:uuid:2d07be82-a87e-426a-82cb-7502a6af9257"
        }
      }
    },
    {
      "fullUrl": "urn:uuid:2d07be82-a87e-426a-82cb-7502a6af9257",
      "resource": {
        "resourceType": "Practitioner",
        "id": "2d07be82-a87e-426a-82cb-7502a6af9257",
        "meta": {
          "profile": [
            "http://hl7.eu/fhir/base/StructureDefinition/practitioner-eu"
          ]
        },
        "identifier": [
          {
            "assigner": {
              "display": "HL7 Europe"
            },
            "system": "urn:oid:2.16.840.1.113883.2.51.999",
            "value": "3ff87c57-fce8-45c7-b6d0-18c9446f8408"
          }
        ],
        "name": [
          {
            "prefix": [
              "dr"
            ],
            "given": [
              "Ex"
            ],
            "family": "Ample"
          }
        ],
        "address": [
          {
            "line": [
              "Laboratoire Central Européenne",
              "Boulevard du Jardin Botanique 32"
            ],
            "postalCode": "1000",
            "city": "Brussels",
            "country": "Belgium"
          }
        ],
        "text": {
          "status": "generated",
          "div": "<div xmlns=\"http://www.w3.org/1999/xhtml\">Laboratory: Laboratoire Central Européenne, 1000 Brussels, Belgium</div>"
        }
      }
    }
  ],
  "type": "document",
  "timestamp": "2022-11-12T23:53:36Z"
}
