{
  "resourceType": "Bundle",
  "id": "cb4fa467-ce25-474b-a0d2-32f0a81041fc",
  "meta": {
    "profile": [
      "http://hl7.eu/fhir/laboratory/StructureDefinition/Bundle-eu-lab"
    ]
  },
  "identifier": {
    "assigner": {
      "display": "HL7 Europe"
    },
    "system": "urn:oid:2.16.840.1.113883.2.51.999",
    "value": "153749b9-bfcd-45a6-8c6e-93d6f56dbf38"
  },
  "entry": [
    {
      "fullUrl": "urn:uuid:38bfd304-d2ea-4815-ac59-34375281daed",
      "resource": {
        "resourceType": "Composition",
        "id": "38bfd304-d2ea-4815-ac59-34375281daed",
        "meta": {
          "profile": [
            "http://hl7.eu/fhir/laboratory/StructureDefinition/Composition-eu-lab"
          ]
        },
        "identifier": {
          "assigner": {
            "display": "HL7 Europe"
          },
          "system": "urn:oid:2.16.840.1.113883.2.51.999",
          "value": "c5265679-be6c-4b85-86b9-cfff9868fbfa"
        },
        "author": [
          {
            "reference": "urn:uuid:ad4505fb-0265-4ae9-bf57-2ed5bff62cea"
          }
        ],
        "category": [
          {
            "coding": [
              {
                "code": "26436-6",
                "system": "http://loinc.org",
                "display": "Laboratory studies (set)"
              }
            ]
          }
        ],
        "type": {
          "coding": [
            {
              "code": "11502-2",
              "system": "http://loinc.org",
              "display": "Laboratory report"
            }
          ],
          "text": "Laboratory Report"
        },
        "section": [
          {
            "code": {
              "coding": [
                {
                  "code": "26436-6",
                  "system": "http://loinc.org",
                  "display": "Laboratory studies (set)"
                }
              ],
              "text": "Laboratory studies"
            },
            "section": [
              {
                "code": {
                  "coding": [
                    {
                      "code": "$18719-5",
                      "system": "http://loinc.org",
                      "display": "Chemistry studies (set)"
                    }
                  ],
                  "text": "Chemistry"
                },
                "entry": [
                  {
                    "reference": "urn:uuid:fb218dab-85b6-432f-a16a-d115a397589a"
                  },
                  {
                    "reference": "urn:uuid:87db040f-19bf-443a-802f-749348cf3872"
                  },
                  {
                    "reference": "urn:uuid:9f0c3e0c-7263-4b4f-a307-4b15410b41c5"
                  },
                  {
                    "reference": "urn:uuid:f14d2473-0c7f-442d-b745-eb2874a76923"
                  },
                  {
                    "reference": "urn:uuid:2702f4b4-eceb-4a33-8312-a44a45397a2c"
                  },
                  {
                    "reference": "urn:uuid:2a6bd83b-f455-491a-9ac0-3e700592a434"
                  },
                  {
                    "reference": "urn:uuid:279e4228-b0d3-40a5-8807-a2d46208e077"
                  },
                  {
                    "reference": "urn:uuid:55d70439-0758-4826-9e7d-b4bd5741862f"
                  },
                  {
                    "reference": "urn:uuid:2fce2d3e-e18b-4bf8-9344-eb4fcba737f8"
                  },
                  {
                    "reference": "urn:uuid:7c173335-6c0c-4846-9f30-80e7354b1205"
                  },
                  {
                    "reference": "urn:uuid:c115dac6-359c-4910-be99-c1c86a9b9b70"
                  },
                  {
                    "reference": "urn:uuid:42cdc4e9-b089-464d-a0b4-d571dbb794b3"
                  },
                  {
                    "reference": "urn:uuid:b73cba54-d7be-49ea-b833-dc64902467d4"
                  },
                  {
                    "reference": "urn:uuid:c1f7d23b-5fce-42bf-bccb-62eea1701490"
                  },
                  {
                    "reference": "urn:uuid:c9f344d4-dcab-4a65-8e98-acc2add9b49e"
                  },
                  {
                    "reference": "urn:uuid:d03c47bc-1cb9-40a4-b552-50981f3ecd5d"
                  },
                  {
                    "reference": "urn:uuid:b658e4e2-3a71-48d3-ac51-fc17ece3d84b"
                  },
                  {
                    "reference": "urn:uuid:6b659a22-9717-4f44-8e0a-563e8e4ce49e"
                  }
                ],
                "text": {
                  "status": "generated",
                  "div": "<div xmlns=\"http://www.w3.org/1999/xhtml\"><h3>Chemistry</h3><table class=\"hl7__eu__lab__report\"><thead><tr><th>Test</th><th>05-OCT-2022</th><th>Reference&#xA0;Range</th><th>Unit</th></tr></thead><tbody><tr><td>Glucose [Mass/volume] in Serum or Plasma</td><td><strong>69.8 L</strong></td><td>70 - 140</td><td>mg/dL</td></tr><tr><td>Urea nitrogen [Mass/volume] in Serum or Plasma</td><td>16.2</td><td>7 - 20</td><td>mg/dL</td></tr><tr><td>Creatinine [Mass/volume] in Serum or Plasma</td><td><strong>2.1 H</strong></td><td>0.9 - 1.3</td><td>mg/dL</td></tr><tr><td>Calcium [Mass/volume] in Serum or Plasma</td><td>8.9</td><td>8.5 - 10.5</td><td>mg/dL</td></tr><tr><td>Sodium [Moles/volume] in Serum or Plasma</td><td>138.7</td><td>135 - 145</td><td>mmol/L</td></tr><tr><td>Potassium [Moles/volume] in Serum or Plasma</td><td>4.9</td><td>3.5 - 5</td><td>mmol/L</td></tr><tr><td>Chloride [Moles/volume] in Serum or Plasma</td><td>104.5</td><td>98 - 108</td><td>mmol/L</td></tr><tr><td>Carbon dioxide, total [Moles/volume] in Serum or Plasma</td><td>23.2</td><td>22 - 29</td><td>mmol/L</td></tr><tr><td>Ketones [Presence] in Urine by Test strip</td><td>Urine ketone test = ++</td><td></td><td></td></tr><tr><td>Hemoglobin A1c/Hemoglobin.total in Blood</td><td><strong>2.8 L</strong></td><td>4.3 - 6.4</td><td>%</td></tr><tr><td>Glucose [Mass/volume] in Blood</td><td><strong>69.8 L</strong></td><td>70 - 140</td><td>mg/dL</td></tr><tr><td>Urea nitrogen [Mass/volume] in Blood</td><td>16.2</td><td>7 - 20</td><td>mg/dL</td></tr><tr><td>Creatinine [Mass/volume] in Blood</td><td><strong>7.7 H</strong></td><td>0.6 - 1.3</td><td>mg/dL</td></tr><tr><td>Calcium [Mass/volume] in Blood</td><td>8.9</td><td>8.5 - 10.5</td><td>mg/dL</td></tr><tr><td>Sodium [Moles/volume] in Blood</td><td>138.7</td><td>135 - 145</td><td>mmol/L</td></tr><tr><td>Potassium [Moles/volume] in Blood</td><td>4.9</td><td>3.5 - 5.3</td><td>mmol/L</td></tr><tr><td>Chloride [Moles/volume] in Blood</td><td>104.5</td><td>98 - 110</td><td>mmol/L</td></tr><tr><td>Carbon dioxide, total [Moles/volume] in Blood</td><td>23.2</td><td>22 - 29</td><td>mmol/L</td></tr></tbody></table></div>"
                },
                "title": "Chemistry"
              },
              {
                "code": {
                  "coding": [
                    {
                      "code": "$18729-4",
                      "system": "http://loinc.org",
                      "display": "Urinalysis studies (set)"
                    }
                  ],
                  "text": "Urinalysis"
                },
                "entry": [
                  {
                    "reference": "urn:uuid:17ae109e-b596-479d-b817-2b092c0e2963"
                  },
                  {
                    "reference": "urn:uuid:19f38aa9-137f-41af-ba23-acf656a6a94e"
                  },
                  {
                    "reference": "urn:uuid:06c7e335-e8aa-4f03-86b6-bac9f730142d"
                  },
                  {
                    "reference": "urn:uuid:40ed4800-53d2-4426-b6a2-eb5305eb18ff"
                  },
                  {
                    "reference": "urn:uuid:77634854-b839-412c-b9f0-971682a50dc6"
                  },
                  {
                    "reference": "urn:uuid:3f6dcd7c-d880-46fc-83c0-0df8bb41c99e"
                  },
                  {
                    "reference": "urn:uuid:74a830e8-ee44-4b93-a900-92f9b7c6712b"
                  },
                  {
                    "reference": "urn:uuid:09a0ffd1-0cb3-4b6e-ae8c-aae1ba766733"
                  },
                  {
                    "reference": "urn:uuid:35922653-b5f3-46e8-a939-d0ccdcbbefd7"
                  },
                  {
                    "reference": "urn:uuid:61879b19-5cbb-480a-8c9d-a0e748776d4b"
                  },
                  {
                    "reference": "urn:uuid:5be86f68-f771-4ad2-9129-64bd3c78cf0a"
                  },
                  {
                    "reference": "urn:uuid:e68f785b-061c-49a5-a5a5-df3b5a7e2721"
                  }
                ],
                "text": {
                  "status": "generated",
                  "div": "<div xmlns=\"http://www.w3.org/1999/xhtml\"><h3>Urinalysis</h3><table class=\"hl7__eu__lab__report\"><thead><tr><th>Test</th><th>05-OCT-2022</th><th>Reference&#xA0;Range</th><th>Unit</th></tr></thead><tbody><tr><td>Glucose [Mass/volume] in Urine by Test strip</td><td><strong>2.0 H</strong></td><td>0 - 0.8</td><td>mg/dL</td></tr><tr><td>Glucose [Presence] in Urine by Test strip</td><td>++</td><td></td><td></td></tr><tr><td>Bilirubin.total [Mass/volume] in Urine by Test strip</td><td>0.6</td><td>0.2 - 1</td><td>mg/dL</td></tr><tr><td>Bilirubin.total [Presence] in Urine by Test strip</td><td>Finding of bilirubin in urine</td><td></td><td></td></tr><tr><td>Ketones [Mass/volume] in Urine by Test strip</td><td>1.7</td><td>0 - 5</td><td>mg/dL</td></tr><tr><td>Specific gravity of Urine by Test strip</td><td><strong>1.0 L</strong></td><td>1.005 - 1.03</td><td>{nominal}</td></tr><tr><td>pH of Urine by Test strip</td><td>6.9</td><td>4.6 - 7</td><td>pH</td></tr><tr><td>Protein [Mass/volume] in Urine by Test strip</td><td><strong>375.6 H</strong></td><td>0 - 150</td><td>mg/dL</td></tr><tr><td>Protein [Presence] in Urine by Test strip</td><td>Urine protein test = ++</td><td></td><td></td></tr><tr><td>Nitrite [Presence] in Urine by Test strip</td><td>Urine nitrite negative</td><td></td><td></td></tr><tr><td>Hemoglobin [Presence] in Urine by Test strip</td><td>Urine blood test = negative</td><td></td><td></td></tr><tr><td>Leukocyte esterase [Presence] in Urine by Test strip</td><td>Urine leukocyte test negative</td><td></td><td></td></tr></tbody></table></div>"
                },
                "title": "Urinalysis"
              },
              {
                "code": {
                  "coding": [
                    {
                      "code": "$LP7846-1",
                      "system": "http://loinc.org",
                      "display": "Specimen information"
                    }
                  ],
                  "text": "Specimen information"
                },
                "entry": [
                  {
                    "reference": "urn:uuid:5f3d42ae-770f-485a-8763-7d0d2dae80d4"
                  },
                  {
                    "reference": "urn:uuid:b7d39930-3b09-4a3a-97da-176b1eb88d22"
                  },
                  {
                    "reference": "urn:uuid:be33759e-d389-4dab-9504-125f389f2338"
                  },
                  {
                    "reference": "urn:uuid:d611fd37-46fc-4dbc-b035-2e68d32dbdf1"
                  }
                ],
                "text": {
                  "status": "generated",
                  "div": "<div xmlns=\"http://www.w3.org/1999/xhtml\"><h3>Specimen information</h3><table class=\"hl7__eu__lab__report\"><thead><tr><th>Test</th><th>05-OCT-2022</th><th>Specimen</th><th></th></tr></thead><tbody><tr><td>Appearance of Urine</td><td>Cloudy urine</td><td>Urine</td><td></td></tr><tr><td>Odor of Urine</td><td>Urine smell ammoniacal</td><td>Urine</td><td></td></tr><tr><td>Clarity of Urine</td><td>Translucent</td><td>Urine</td><td></td></tr><tr><td>Color of Urine</td><td>Brown color</td><td>Urine</td><td></td></tr></tbody></table></div>"
                },
                "title": "Specimen information"
              }
            ],
            "title": "Laboratory Report"
          },
          {
            "text": {
              "status": "generated",
              "div": "<div xmlns=\"http://www.w3.org/1999/xhtml\"><h3>Annotation</h3><table class=\"hl7__eu__lab__report\"><tr><th>Conclusion and Recommendations based on this report and previous findings known to us</th></tr><tr><td>The patient shows significant renal dysfunction (markedly elevated creatinine in both serum and blood, proteinuria), hypoglycemia, and low HbA1c. Urinalysis reveals glucosuria, proteinuria, ketonuria, and abnormal urine appearance (cloudy, brown, low specific gravity), suggesting possible acute or chronic kidney injury with impaired glucose handling. No evidence of urinary tract infection. Immediate clinical evaluation and nephrology consultation are recommended.</td></tr></table></div>"
            },
            "code": {
              "coding": [
                {
                  "system": "http://loinc.org",
                  "code": "48767-8",
                  "display": "Annotation comment"
                }
              ]
            },
            "title": "Annotation comment"
          }
        ],
        "status": "final",
        "subject": {
          "reference": "urn:uuid:650439f2-ecee-4723-a027-8f16ecebe04c",
          "display": "Θεμιστοκλής Λιναρδάκη"
        },
        "date": "2022-10-05T08:16:00Z",
        "title": "Laboratory Report",
        "confidentiality": "N"
      }
    },
    {
      "fullUrl": "urn:uuid:d8c0a8b2-d508-4ccd-96ee-2ea6e3700c9d",
      "resource": {
        "resourceType": "DiagnosticReport",
        "id": "d8c0a8b2-d508-4ccd-96ee-2ea6e3700c9d",
        "meta": {
          "profile": [
            "http://hl7.eu/fhir/laboratory/StructureDefinition/DiagnosticReport-eu-lab"
          ]
        },
        "identifier": [
          {
            "assigner": {
              "display": "HL7 Europe"
            },
            "system": "urn:oid:2.16.840.1.113883.2.51.999",
            "value": "88108ec6-251c-413f-af51-c7c58dac9644"
          }
        ],
        "extension": [
          {
            "url": "http://hl7.org/fhir/5.0/StructureDefinition/extension-DiagnosticReport.composition",
            "valueReference": {
              "reference": "urn:uuid:c5265679-be6c-4b85-86b9-cfff9868fbfa"
            }
          }
        ],
        "category": [
          {
            "coding": [
              {
                "code": "26436-6",
                "system": "http://loinc.org",
                "display": "Laboratory studies (set)"
              }
            ]
          }
        ],
        "specimen": [
          {
            "reference": "urn:uuid:605f0f7d-3d64-4780-b236-7023f5b1d8da"
          },
          {
            "reference": "urn:uuid:e9c5bdb5-7b96-4657-a664-99142aa3e890"
          },
          {
            "reference": "urn:uuid:de8d3d97-00ba-42c4-83eb-f15a618ac87b"
          }
        ],
        "result": [
          {
            "reference": "urn:uuid:fb218dab-85b6-432f-a16a-d115a397589a"
          },
          {
            "reference": "urn:uuid:87db040f-19bf-443a-802f-749348cf3872"
          },
          {
            "reference": "urn:uuid:9f0c3e0c-7263-4b4f-a307-4b15410b41c5"
          },
          {
            "reference": "urn:uuid:f14d2473-0c7f-442d-b745-eb2874a76923"
          },
          {
            "reference": "urn:uuid:2702f4b4-eceb-4a33-8312-a44a45397a2c"
          },
          {
            "reference": "urn:uuid:2a6bd83b-f455-491a-9ac0-3e700592a434"
          },
          {
            "reference": "urn:uuid:279e4228-b0d3-40a5-8807-a2d46208e077"
          },
          {
            "reference": "urn:uuid:55d70439-0758-4826-9e7d-b4bd5741862f"
          },
          {
            "reference": "urn:uuid:5f3d42ae-770f-485a-8763-7d0d2dae80d4"
          },
          {
            "reference": "urn:uuid:b7d39930-3b09-4a3a-97da-176b1eb88d22"
          },
          {
            "reference": "urn:uuid:be33759e-d389-4dab-9504-125f389f2338"
          },
          {
            "reference": "urn:uuid:d611fd37-46fc-4dbc-b035-2e68d32dbdf1"
          },
          {
            "reference": "urn:uuid:17ae109e-b596-479d-b817-2b092c0e2963"
          },
          {
            "reference": "urn:uuid:19f38aa9-137f-41af-ba23-acf656a6a94e"
          },
          {
            "reference": "urn:uuid:06c7e335-e8aa-4f03-86b6-bac9f730142d"
          },
          {
            "reference": "urn:uuid:40ed4800-53d2-4426-b6a2-eb5305eb18ff"
          },
          {
            "reference": "urn:uuid:77634854-b839-412c-b9f0-971682a50dc6"
          },
          {
            "reference": "urn:uuid:2fce2d3e-e18b-4bf8-9344-eb4fcba737f8"
          },
          {
            "reference": "urn:uuid:3f6dcd7c-d880-46fc-83c0-0df8bb41c99e"
          },
          {
            "reference": "urn:uuid:74a830e8-ee44-4b93-a900-92f9b7c6712b"
          },
          {
            "reference": "urn:uuid:09a0ffd1-0cb3-4b6e-ae8c-aae1ba766733"
          },
          {
            "reference": "urn:uuid:35922653-b5f3-46e8-a939-d0ccdcbbefd7"
          },
          {
            "reference": "urn:uuid:61879b19-5cbb-480a-8c9d-a0e748776d4b"
          },
          {
            "reference": "urn:uuid:5be86f68-f771-4ad2-9129-64bd3c78cf0a"
          },
          {
            "reference": "urn:uuid:e68f785b-061c-49a5-a5a5-df3b5a7e2721"
          },
          {
            "reference": "urn:uuid:7c173335-6c0c-4846-9f30-80e7354b1205"
          },
          {
            "reference": "urn:uuid:c115dac6-359c-4910-be99-c1c86a9b9b70"
          },
          {
            "reference": "urn:uuid:42cdc4e9-b089-464d-a0b4-d571dbb794b3"
          },
          {
            "reference": "urn:uuid:b73cba54-d7be-49ea-b833-dc64902467d4"
          },
          {
            "reference": "urn:uuid:c1f7d23b-5fce-42bf-bccb-62eea1701490"
          },
          {
            "reference": "urn:uuid:c9f344d4-dcab-4a65-8e98-acc2add9b49e"
          },
          {
            "reference": "urn:uuid:d03c47bc-1cb9-40a4-b552-50981f3ecd5d"
          },
          {
            "reference": "urn:uuid:b658e4e2-3a71-48d3-ac51-fc17ece3d84b"
          },
          {
            "reference": "urn:uuid:6b659a22-9717-4f44-8e0a-563e8e4ce49e"
          }
        ],
        "status": "registered",
        "code": {
          "coding": [
            {
              "code": "11502-2",
              "system": "http://loinc.org",
              "display": "Laboratory report"
            }
          ]
        },
        "subject": {
          "reference": "urn:uuid:650439f2-ecee-4723-a027-8f16ecebe04c",
          "display": "Θεμιστοκλής Λιναρδάκη"
        }
      }
    },
    {
      "fullUrl": "urn:uuid:650439f2-ecee-4723-a027-8f16ecebe04c",
      "resource": {
        "resourceType": "Patient",
        "id": "650439f2-ecee-4723-a027-8f16ecebe04c",
        "meta": {
          "security": [
            {
              "system": "http://terminology.hl7.org/CodeSystem/v3-ActReason",
              "code": "HTEST"
            },
            {
              "system": "http://terminology.hl7.org/CodeSystem/v3-ActReason",
              "code": "TRAIN"
            }
          ],
          "tag": [
            {
              "system": "https://synderai.net/fhir/CodeSystem/tags",
              "code": "synthetic",
              "display": "SYNDERAI Synthetic data"
            }
          ],
          "profile": [
            "http://hl7.eu/fhir/base/StructureDefinition/patient-eu-core"
          ]
        },
        "identifier": [
          {
            "type": {
              "coding": [
                {
                  "code": "PT",
                  "system": "http://terminology.hl7.org/CodeSystem/v2-0203"
                }
              ]
            },
            "system": "http://ec.europa.eu/identifier/eci",
            "value": "5962-476889-7"
          },
          {
            "type": {
              "coding": [
                {
                  "code": "MR",
                  "system": "http://terminology.hl7.org/CodeSystem/v2-0203"
                }
              ]
            },
            "system": "http://local.setting.eu/identifier",
            "value": "925e2603-2ef9-6bdf-1330-2ebf526636c4"
          }
        ],
        "name": [
          {
            "family": "Λιναρδάκη"
          },
          {
            "given": [
              "Θεμιστοκλής"
            ]
          },
          {
            "text": "Θεμιστοκλής Λιναρδάκη"
          }
        ],
        "address": [
          {
            "line": [
              "Αμαρύνθου 54-58"
            ],
            "use": "home",
            "type": "physical",
            "postalCode": "262 21",
            "city": "Πάτρα",
            "country": "Greece"
          }
        ],
        "telecom": [
          {
            "system": "phone",
            "value": "+302226364480"
          }
        ],
        "extension": [
          {
            "url": "http://hl7.org/fhir/StructureDefinition/patient-nationality",
            "valueCodeableConcept": {
              "coding": [
                {
                  "code": "GR",
                  "system": "http://hl7.org/fhir/ValueSet/country"
                }
              ]
            }
          }
        ],
        "text": {
          "status": "generated",
          "div": "<div xmlns=\"http://www.w3.org/1999/xhtml\"><table class=\"hl7__ips\"><tr><td>Θεμιστοκλής Λιναρδάκη</td><td>male</td><td>21-Jan-1974</td></tr></table></div>"
        },
        "gender": "male",
        "birthDate": "1974-01-21"
      }
    },
    {
      "fullUrl": "urn:uuid:f5f0c065-3218-418f-8985-18229d61ca12",
      "resource": {
        "resourceType": "ServiceRequest",
        "id": "f5f0c065-3218-418f-8985-18229d61ca12",
        "meta": {
          "profile": [
            "http://hl7.eu/fhir/laboratory/StructureDefinition/ServiceRequest-eu-lab"
          ]
        },
        "identifier": [
          {
            "system": "http://example.org",
            "value": "70f79c15-60ae-410e-80b2-f4967ecd7164"
          }
        ],
        "specimen": [
          {
            "reference": "urn:uuid:605f0f7d-3d64-4780-b236-7023f5b1d8da"
          },
          {
            "reference": "urn:uuid:e9c5bdb5-7b96-4657-a664-99142aa3e890"
          },
          {
            "reference": "urn:uuid:de8d3d97-00ba-42c4-83eb-f15a618ac87b"
          }
        ],
        "reasonCode": [
          {
            "coding": [
              {
                "code": "237602007",
                "system": "http://snomed.info/sct",
                "display": "Metabolic syndrome X"
              }
            ]
          },
          {
            "coding": [
              {
                "code": "433144002",
                "system": "http://snomed.info/sct",
                "display": "Chronic kidney disease stage 3"
              }
            ]
          },
          {
            "coding": [
              {
                "code": "157141000119108",
                "system": "http://snomed.info/sct",
                "display": "Proteinuria due to type 2 diabetes mellitus"
              }
            ]
          },
          {
            "coding": [
              {
                "code": "431856006",
                "system": "http://snomed.info/sct",
                "display": "Chronic kidney disease stage 2"
              }
            ]
          },
          {
            "coding": [
              {
                "code": "90781000119102",
                "system": "http://snomed.info/sct",
                "display": "Microalbuminuria due to type 2 diabetes mellitus"
              }
            ]
          },
          {
            "coding": [
              {
                "code": "127013003",
                "system": "http://snomed.info/sct",
                "display": "Disorder of kidney due to diabetes mellitus"
              }
            ]
          },
          {
            "coding": [
              {
                "code": "431855005",
                "system": "http://snomed.info/sct",
                "display": "Chronic kidney disease stage 1"
              }
            ]
          },
          {
            "coding": [
              {
                "code": "59621000",
                "system": "http://snomed.info/sct",
                "display": "Essential hypertension"
              }
            ]
          },
          {
            "coding": [
              {
                "code": "15777000",
                "system": "http://snomed.info/sct",
                "display": "Prediabetes"
              }
            ]
          },
          {
            "coding": [
              {
                "code": "271737000",
                "system": "http://snomed.info/sct",
                "display": "Anemia"
              }
            ]
          }
        ],
        "status": "active",
        "intent": "order",
        "code": {
          "coding": [
            {
              "code": "108252007",
              "system": "http://snomed.info/sct",
              "display": "Laboratory procedure"
            }
          ]
        },
        "subject": {
          "reference": "urn:uuid:650439f2-ecee-4723-a027-8f16ecebe04c",
          "display": "Θεμιστοκλής Λιναρδάκη"
        },
        "requester": {
          "reference": "urn:uuid:a68ce27c-3b18-482c-a2f3-3ad95053c7a0"
        }
      }
    },
    {
      "fullUrl": "urn:uuid:a68ce27c-3b18-482c-a2f3-3ad95053c7a0",
      "resource": {
        "resourceType": "PractitionerRole",
        "id": "a68ce27c-3b18-482c-a2f3-3ad95053c7a0",
        "meta": {
          "profile": [
            "http://hl7.eu/fhir/base/StructureDefinition/practitionerRole-eu"
          ]
        },
        "text": {
          "status": "generated",
          "div": "<div xmlns=\"http://www.w3.org/1999/xhtml\">Provider Role Id: a68ce27c-3b18-482c-a2f3-3ad95053c7a0</div>"
        },
        "organization": {
          "reference": "urn:uuid:83bc2d8c-b9da-495e-88d7-3dd42eca22d8"
        }
      }
    },
    {
      "fullUrl": "urn:uuid:83bc2d8c-b9da-495e-88d7-3dd42eca22d8",
      "resource": {
        "resourceType": "Organization",
        "id": "83bc2d8c-b9da-495e-88d7-3dd42eca22d8",
        "meta": {
          "profile": [
            "http://hl7.eu/fhir/base/StructureDefinition/organization-eu"
          ]
        },
        "identifier": [
          {
            "assigner": {
              "display": "HL7 Europe"
            },
            "system": "urn:oid:2.16.840.1.113883.2.51.999",
            "value": "d745ddf8-6408-479d-ba8e-1c451a68d937"
          }
        ],
        "address": [
          {
            "line": [
              "211 Odós Filellinon"
            ],
            "city": "Patras",
            "postalCode": "262 21",
            "country": "Greece"
          }
        ],
        "text": {
          "status": "generated",
          "div": "<div xmlns=\"http://www.w3.org/1999/xhtml\">Provider Organization: Dr. Dimitris Economou</div>"
        },
        "name": "Dr. Dimitris Economou"
      }
    },
    {
      "fullUrl": "urn:uuid:605f0f7d-3d64-4780-b236-7023f5b1d8da",
      "resource": {
        "resourceType": "Specimen",
        "id": "605f0f7d-3d64-4780-b236-7023f5b1d8da",
        "meta": {
          "profile": [
            "http://hl7.eu/fhir/laboratory/StructureDefinition/Specimen-eu-lab"
          ]
        },
        "collection": {
          "collectedDateTime": "2022-10-05"
        },
        "text": {
          "status": "generated",
          "div": "<div xmlns=\"http://www.w3.org/1999/xhtml\"><table class=\"hl7__eu__lab__report\"><tr><th>Specimen</th><th>Collection Date</th></tr><tr><td>Acellular blood (serum or plasma) specimen</td><td><span class=\"nb\">05-Oct-2022</span></td></tr></table></div>"
        },
        "type": {
          "coding": [
            {
              "code": "122592007",
              "system": "http://snomed.info/sct",
              "display": "Acellular blood (serum or plasma) specimen"
            }
          ]
        }
      }
    },
    {
      "fullUrl": "urn:uuid:e9c5bdb5-7b96-4657-a664-99142aa3e890",
      "resource": {
        "resourceType": "Specimen",
        "id": "e9c5bdb5-7b96-4657-a664-99142aa3e890",
        "meta": {
          "profile": [
            "http://hl7.eu/fhir/laboratory/StructureDefinition/Specimen-eu-lab"
          ]
        },
        "collection": {
          "collectedDateTime": "2022-10-05"
        },
        "text": {
          "status": "generated",
          "div": "<div xmlns=\"http://www.w3.org/1999/xhtml\"><table class=\"hl7__eu__lab__report\"><tr><th>Specimen</th><th>Collection Date</th></tr><tr><td>Urine specimen</td><td><span class=\"nb\">05-Oct-2022</span></td></tr></table></div>"
        },
        "type": {
          "coding": [
            {
              "code": "122575003",
              "system": "http://snomed.info/sct",
              "display": "Urine specimen"
            }
          ]
        }
      }
    },
    {
      "fullUrl": "urn:uuid:de8d3d97-00ba-42c4-83eb-f15a618ac87b",
      "resource": {
        "resourceType": "Specimen",
        "id": "de8d3d97-00ba-42c4-83eb-f15a618ac87b",
        "meta": {
          "profile": [
            "http://hl7.eu/fhir/laboratory/StructureDefinition/Specimen-eu-lab"
          ]
        },
        "collection": {
          "collectedDateTime": "2022-10-05"
        },
        "text": {
          "status": "generated",
          "div": "<div xmlns=\"http://www.w3.org/1999/xhtml\"><table class=\"hl7__eu__lab__report\"><tr><th>Specimen</th><th>Collection Date</th></tr><tr><td>Whole blood specimen (specimen)</td><td><span class=\"nb\">05-Oct-2022</span></td></tr></table></div>"
        },
        "type": {
          "coding": [
            {
              "code": "258580003",
              "system": "http://snomed.info/sct",
              "display": "Whole blood specimen (specimen)"
            }
          ]
        }
      }
    },
    {
      "fullUrl": "urn:uuid:fb218dab-85b6-432f-a16a-d115a397589a",
      "resource": {
        "resourceType": "Observation",
        "id": "fb218dab-85b6-432f-a16a-d115a397589a",
        "meta": {
          "profile": [
            "http://hl7.eu/fhir/laboratory/StructureDefinition/Observation-resultslab-eu-lab"
          ]
        },
        "performer": [
          {
            "display": "The Central European Lab"
          }
        ],
        "category": [
          {
            "coding": [
              {
                "system": "http://terminology.hl7.org/CodeSystem/observation-category",
                "code": "laboratory"
              }
            ]
          }
        ],
        "code": {
          "coding": [
            {
              "code": "2345-7",
              "system": "http://loinc.org",
              "display": "Glucose [Mass/volume] in Serum or Plasma"
            }
          ],
          "text": "Glucose [Mass/volume] in Serum or Plasma"
        },
        "valueQuantity": {
          "system": "http://unitsofmeasure.org",
          "value": 69.8,
          "unit": "mg/dL",
          "code": "mg/dL"
        },
        "referenceRange": [
          {
            "low": {
              "value": 70,
              "code": "mg/dL",
              "system": "http://unitsofmeasure.org"
            }
          },
          {
            "high": {
              "value": 140,
              "code": "mg/dL",
              "system": "http://unitsofmeasure.org"
            }
          }
        ],
        "interpretation": [
          {
            "coding": [
              {
                "code": "L",
                "system": "http://terminology.hl7.org/CodeSystem/v3-ObservationInterpretation",
                "display": "Low"
              }
            ]
          }
        ],
        "text": {
          "status": "generated",
          "div": "<div xmlns=\"http://www.w3.org/1999/xhtml\"><table class=\"hl7__eu__lab__report\"><tr><th>Test</th><th>05-Oct-2022</th><th>Reference&#xA0;Range</th><th>Unit</th></tr><tr><td>Glucose [Mass/volume] in Serum or Plasma</td><td>69.8</td><td>70 - 140</td><td>L</td><td>mg/dL</td></tr></table></div>"
        },
        "status": "final",
        "subject": {
          "reference": "urn:uuid:650439f2-ecee-4723-a027-8f16ecebe04c",
          "display": "Θεμιστοκλής Λιναρδάκη"
        },
        "effectiveDateTime": "2022-10-05T06:16:00Z",
        "specimen": {
          "reference": "urn:uuid:605f0f7d-3d64-4780-b236-7023f5b1d8da"
        }
      }
    },
    {
      "fullUrl": "urn:uuid:87db040f-19bf-443a-802f-749348cf3872",
      "resource": {
        "resourceType": "Observation",
        "id": "87db040f-19bf-443a-802f-749348cf3872",
        "meta": {
          "profile": [
            "http://hl7.eu/fhir/laboratory/StructureDefinition/Observation-resultslab-eu-lab"
          ]
        },
        "performer": [
          {
            "display": "The Central European Lab"
          }
        ],
        "category": [
          {
            "coding": [
              {
                "system": "http://terminology.hl7.org/CodeSystem/observation-category",
                "code": "laboratory"
              }
            ]
          }
        ],
        "code": {
          "coding": [
            {
              "code": "3094-0",
              "system": "http://loinc.org",
              "display": "Urea nitrogen [Mass/volume] in Serum or Plasma"
            }
          ],
          "text": "Urea nitrogen [Mass/volume] in Serum or Plasma"
        },
        "valueQuantity": {
          "system": "http://unitsofmeasure.org",
          "value": 16.2,
          "unit": "mg/dL",
          "code": "mg/dL"
        },
        "referenceRange": [
          {
            "low": {
              "value": 7,
              "code": "mg/dL",
              "system": "http://unitsofmeasure.org"
            }
          },
          {
            "high": {
              "value": 20,
              "code": "mg/dL",
              "system": "http://unitsofmeasure.org"
            }
          }
        ],
        "text": {
          "status": "generated",
          "div": "<div xmlns=\"http://www.w3.org/1999/xhtml\"><table class=\"hl7__eu__lab__report\"><tr><th>Test</th><th>05-Oct-2022</th><th>Reference&#xA0;Range</th><th>Unit</th></tr><tr><td>Urea nitrogen [Mass/volume] in Serum or Plasma</td><td>16.2</td><td>7 - 20</td><td></td><td>mg/dL</td></tr></table></div>"
        },
        "status": "final",
        "subject": {
          "reference": "urn:uuid:650439f2-ecee-4723-a027-8f16ecebe04c",
          "display": "Θεμιστοκλής Λιναρδάκη"
        },
        "effectiveDateTime": "2022-10-05T06:16:00Z",
        "specimen": {
          "reference": "urn:uuid:605f0f7d-3d64-4780-b236-7023f5b1d8da"
        }
      }
    },
    {
      "fullUrl": "urn:uuid:9f0c3e0c-7263-4b4f-a307-4b15410b41c5",
      "resource": {
        "resourceType": "Observation",
        "id": "9f0c3e0c-7263-4b4f-a307-4b15410b41c5",
        "meta": {
          "profile": [
            "http://hl7.eu/fhir/laboratory/StructureDefinition/Observation-resultslab-eu-lab"
          ]
        },
        "performer": [
          {
            "display": "The Central European Lab"
          }
        ],
        "category": [
          {
            "coding": [
              {
                "system": "http://terminology.hl7.org/CodeSystem/observation-category",
                "code": "laboratory"
              }
            ]
          }
        ],
        "code": {
          "coding": [
            {
              "code": "2160-0",
              "system": "http://loinc.org",
              "display": "Creatinine [Mass/volume] in Serum or Plasma"
            }
          ],
          "text": "Creatinine [Mass/volume] in Serum or Plasma"
        },
        "valueQuantity": {
          "system": "http://unitsofmeasure.org",
          "value": 2.1,
          "unit": "mg/dL",
          "code": "mg/dL"
        },
        "referenceRange": [
          {
            "low": {
              "value": 0.9,
              "code": "mg/dL",
              "system": "http://unitsofmeasure.org"
            }
          },
          {
            "high": {
              "value": 1.3,
              "code": "mg/dL",
              "system": "http://unitsofmeasure.org"
            }
          }
        ],
        "interpretation": [
          {
            "coding": [
              {
                "code": "H",
                "system": "http://terminology.hl7.org/CodeSystem/v3-ObservationInterpretation",
                "display": "High"
              }
            ]
          }
        ],
        "text": {
          "status": "generated",
          "div": "<div xmlns=\"http://www.w3.org/1999/xhtml\"><table class=\"hl7__eu__lab__report\"><tr><th>Test</th><th>05-Oct-2022</th><th>Reference&#xA0;Range</th><th>Unit</th></tr><tr><td>Creatinine [Mass/volume] in Serum or Plasma</td><td>2.1</td><td>0.9 - 1.3</td><td>H</td><td>mg/dL</td></tr></table></div>"
        },
        "status": "final",
        "subject": {
          "reference": "urn:uuid:650439f2-ecee-4723-a027-8f16ecebe04c",
          "display": "Θεμιστοκλής Λιναρδάκη"
        },
        "effectiveDateTime": "2022-10-05T06:16:00Z",
        "specimen": {
          "reference": "urn:uuid:605f0f7d-3d64-4780-b236-7023f5b1d8da"
        }
      }
    },
    {
      "fullUrl": "urn:uuid:f14d2473-0c7f-442d-b745-eb2874a76923",
      "resource": {
        "resourceType": "Observation",
        "id": "f14d2473-0c7f-442d-b745-eb2874a76923",
        "meta": {
          "profile": [
            "http://hl7.eu/fhir/laboratory/StructureDefinition/Observation-resultslab-eu-lab"
          ]
        },
        "performer": [
          {
            "display": "The Central European Lab"
          }
        ],
        "category": [
          {
            "coding": [
              {
                "system": "http://terminology.hl7.org/CodeSystem/observation-category",
                "code": "laboratory"
              }
            ]
          }
        ],
        "code": {
          "coding": [
            {
              "code": "17861-6",
              "system": "http://loinc.org",
              "display": "Calcium [Mass/volume] in Serum or Plasma"
            }
          ],
          "text": "Calcium [Mass/volume] in Serum or Plasma"
        },
        "valueQuantity": {
          "system": "http://unitsofmeasure.org",
          "value": 8.9,
          "unit": "mg/dL",
          "code": "mg/dL"
        },
        "referenceRange": [
          {
            "low": {
              "value": 8.5,
              "code": "mg/dL",
              "system": "http://unitsofmeasure.org"
            }
          },
          {
            "high": {
              "value": 10.5,
              "code": "mg/dL",
              "system": "http://unitsofmeasure.org"
            }
          }
        ],
        "text": {
          "status": "generated",
          "div": "<div xmlns=\"http://www.w3.org/1999/xhtml\"><table class=\"hl7__eu__lab__report\"><tr><th>Test</th><th>05-Oct-2022</th><th>Reference&#xA0;Range</th><th>Unit</th></tr><tr><td>Calcium [Mass/volume] in Serum or Plasma</td><td>8.9</td><td>8.5 - 10.5</td><td></td><td>mg/dL</td></tr></table></div>"
        },
        "status": "final",
        "subject": {
          "reference": "urn:uuid:650439f2-ecee-4723-a027-8f16ecebe04c",
          "display": "Θεμιστοκλής Λιναρδάκη"
        },
        "effectiveDateTime": "2022-10-05T06:16:00Z",
        "specimen": {
          "reference": "urn:uuid:605f0f7d-3d64-4780-b236-7023f5b1d8da"
        }
      }
    },
    {
      "fullUrl": "urn:uuid:2702f4b4-eceb-4a33-8312-a44a45397a2c",
      "resource": {
        "resourceType": "Observation",
        "id": "2702f4b4-eceb-4a33-8312-a44a45397a2c",
        "meta": {
          "profile": [
            "http://hl7.eu/fhir/laboratory/StructureDefinition/Observation-resultslab-eu-lab"
          ]
        },
        "performer": [
          {
            "display": "The Central European Lab"
          }
        ],
        "category": [
          {
            "coding": [
              {
                "system": "http://terminology.hl7.org/CodeSystem/observation-category",
                "code": "laboratory"
              }
            ]
          }
        ],
        "code": {
          "coding": [
            {
              "code": "2951-2",
              "system": "http://loinc.org",
              "display": "Sodium [Moles/volume] in Serum or Plasma"
            }
          ],
          "text": "Sodium [Moles/volume] in Serum or Plasma"
        },
        "valueQuantity": {
          "system": "http://unitsofmeasure.org",
          "value": 138.7,
          "unit": "mmol/L",
          "code": "mmol/L"
        },
        "referenceRange": [
          {
            "low": {
              "value": 135,
              "code": "mmol/L",
              "system": "http://unitsofmeasure.org"
            }
          },
          {
            "high": {
              "value": 145,
              "code": "mmol/L",
              "system": "http://unitsofmeasure.org"
            }
          }
        ],
        "text": {
          "status": "generated",
          "div": "<div xmlns=\"http://www.w3.org/1999/xhtml\"><table class=\"hl7__eu__lab__report\"><tr><th>Test</th><th>05-Oct-2022</th><th>Reference&#xA0;Range</th><th>Unit</th></tr><tr><td>Sodium [Moles/volume] in Serum or Plasma</td><td>138.7</td><td>135 - 145</td><td></td><td>mmol/L</td></tr></table></div>"
        },
        "status": "final",
        "subject": {
          "reference": "urn:uuid:650439f2-ecee-4723-a027-8f16ecebe04c",
          "display": "Θεμιστοκλής Λιναρδάκη"
        },
        "effectiveDateTime": "2022-10-05T06:16:00Z",
        "specimen": {
          "reference": "urn:uuid:605f0f7d-3d64-4780-b236-7023f5b1d8da"
        }
      }
    },
    {
      "fullUrl": "urn:uuid:2a6bd83b-f455-491a-9ac0-3e700592a434",
      "resource": {
        "resourceType": "Observation",
        "id": "2a6bd83b-f455-491a-9ac0-3e700592a434",
        "meta": {
          "profile": [
            "http://hl7.eu/fhir/laboratory/StructureDefinition/Observation-resultslab-eu-lab"
          ]
        },
        "performer": [
          {
            "display": "The Central European Lab"
          }
        ],
        "category": [
          {
            "coding": [
              {
                "system": "http://terminology.hl7.org/CodeSystem/observation-category",
                "code": "laboratory"
              }
            ]
          }
        ],
        "code": {
          "coding": [
            {
              "code": "2823-3",
              "system": "http://loinc.org",
              "display": "Potassium [Moles/volume] in Serum or Plasma"
            }
          ],
          "text": "Potassium [Moles/volume] in Serum or Plasma"
        },
        "valueQuantity": {
          "system": "http://unitsofmeasure.org",
          "value": 4.9,
          "unit": "mmol/L",
          "code": "mmol/L"
        },
        "referenceRange": [
          {
            "low": {
              "value": 3.5,
              "code": "mmol/L",
              "system": "http://unitsofmeasure.org"
            }
          },
          {
            "high": {
              "value": 5,
              "code": "mmol/L",
              "system": "http://unitsofmeasure.org"
            }
          }
        ],
        "text": {
          "status": "generated",
          "div": "<div xmlns=\"http://www.w3.org/1999/xhtml\"><table class=\"hl7__eu__lab__report\"><tr><th>Test</th><th>05-Oct-2022</th><th>Reference&#xA0;Range</th><th>Unit</th></tr><tr><td>Potassium [Moles/volume] in Serum or Plasma</td><td>4.9</td><td>3.5 - 5</td><td></td><td>mmol/L</td></tr></table></div>"
        },
        "status": "final",
        "subject": {
          "reference": "urn:uuid:650439f2-ecee-4723-a027-8f16ecebe04c",
          "display": "Θεμιστοκλής Λιναρδάκη"
        },
        "effectiveDateTime": "2022-10-05T06:16:00Z",
        "specimen": {
          "reference": "urn:uuid:605f0f7d-3d64-4780-b236-7023f5b1d8da"
        }
      }
    },
    {
      "fullUrl": "urn:uuid:279e4228-b0d3-40a5-8807-a2d46208e077",
      "resource": {
        "resourceType": "Observation",
        "id": "279e4228-b0d3-40a5-8807-a2d46208e077",
        "meta": {
          "profile": [
            "http://hl7.eu/fhir/laboratory/StructureDefinition/Observation-resultslab-eu-lab"
          ]
        },
        "performer": [
          {
            "display": "The Central European Lab"
          }
        ],
        "category": [
          {
            "coding": [
              {
                "system": "http://terminology.hl7.org/CodeSystem/observation-category",
                "code": "laboratory"
              }
            ]
          }
        ],
        "code": {
          "coding": [
            {
              "code": "2075-0",
              "system": "http://loinc.org",
              "display": "Chloride [Moles/volume] in Serum or Plasma"
            }
          ],
          "text": "Chloride [Moles/volume] in Serum or Plasma"
        },
        "valueQuantity": {
          "system": "http://unitsofmeasure.org",
          "value": 104.5,
          "unit": "mmol/L",
          "code": "mmol/L"
        },
        "referenceRange": [
          {
            "low": {
              "value": 98,
              "code": "mmol/L",
              "system": "http://unitsofmeasure.org"
            }
          },
          {
            "high": {
              "value": 108,
              "code": "mmol/L",
              "system": "http://unitsofmeasure.org"
            }
          }
        ],
        "text": {
          "status": "generated",
          "div": "<div xmlns=\"http://www.w3.org/1999/xhtml\"><table class=\"hl7__eu__lab__report\"><tr><th>Test</th><th>05-Oct-2022</th><th>Reference&#xA0;Range</th><th>Unit</th></tr><tr><td>Chloride [Moles/volume] in Serum or Plasma</td><td>104.5</td><td>98 - 108</td><td></td><td>mmol/L</td></tr></table></div>"
        },
        "status": "final",
        "subject": {
          "reference": "urn:uuid:650439f2-ecee-4723-a027-8f16ecebe04c",
          "display": "Θεμιστοκλής Λιναρδάκη"
        },
        "effectiveDateTime": "2022-10-05T06:16:00Z",
        "specimen": {
          "reference": "urn:uuid:605f0f7d-3d64-4780-b236-7023f5b1d8da"
        }
      }
    },
    {
      "fullUrl": "urn:uuid:55d70439-0758-4826-9e7d-b4bd5741862f",
      "resource": {
        "resourceType": "Observation",
        "id": "55d70439-0758-4826-9e7d-b4bd5741862f",
        "meta": {
          "profile": [
            "http://hl7.eu/fhir/laboratory/StructureDefinition/Observation-resultslab-eu-lab"
          ]
        },
        "performer": [
          {
            "display": "The Central European Lab"
          }
        ],
        "category": [
          {
            "coding": [
              {
                "system": "http://terminology.hl7.org/CodeSystem/observation-category",
                "code": "laboratory"
              }
            ]
          }
        ],
        "code": {
          "coding": [
            {
              "code": "2028-9",
              "system": "http://loinc.org",
              "display": "Carbon dioxide, total [Moles/volume] in Serum or Plasma"
            }
          ],
          "text": "Carbon dioxide, total [Moles/volume] in Serum or Plasma"
        },
        "valueQuantity": {
          "system": "http://unitsofmeasure.org",
          "value": 23.2,
          "unit": "mmol/L",
          "code": "mmol/L"
        },
        "referenceRange": [
          {
            "low": {
              "value": 22,
              "code": "mmol/L",
              "system": "http://unitsofmeasure.org"
            }
          },
          {
            "high": {
              "value": 29,
              "code": "mmol/L",
              "system": "http://unitsofmeasure.org"
            }
          }
        ],
        "text": {
          "status": "generated",
          "div": "<div xmlns=\"http://www.w3.org/1999/xhtml\"><table class=\"hl7__eu__lab__report\"><tr><th>Test</th><th>05-Oct-2022</th><th>Reference&#xA0;Range</th><th>Unit</th></tr><tr><td>Carbon dioxide, total [Moles/volume] in Serum or Plasma</td><td>23.2</td><td>22 - 29</td><td></td><td>mmol/L</td></tr></table></div>"
        },
        "status": "final",
        "subject": {
          "reference": "urn:uuid:650439f2-ecee-4723-a027-8f16ecebe04c",
          "display": "Θεμιστοκλής Λιναρδάκη"
        },
        "effectiveDateTime": "2022-10-05T06:16:00Z",
        "specimen": {
          "reference": "urn:uuid:605f0f7d-3d64-4780-b236-7023f5b1d8da"
        }
      }
    },
    {
      "fullUrl": "urn:uuid:5f3d42ae-770f-485a-8763-7d0d2dae80d4",
      "resource": {
        "resourceType": "Observation",
        "id": "5f3d42ae-770f-485a-8763-7d0d2dae80d4",
        "meta": {
          "profile": [
            "http://hl7.eu/fhir/laboratory/StructureDefinition/Observation-resultslab-eu-lab"
          ]
        },
        "performer": [
          {
            "display": "The Central European Lab"
          }
        ],
        "category": [
          {
            "coding": [
              {
                "system": "http://terminology.hl7.org/CodeSystem/observation-category",
                "code": "laboratory"
              }
            ]
          }
        ],
        "code": {
          "coding": [
            {
              "code": "5767-9",
              "system": "http://loinc.org",
              "display": "Appearance of Urine"
            }
          ],
          "text": "Appearance of Urine"
        },
        "text": {
          "status": "generated",
          "div": "<div xmlns=\"http://www.w3.org/1999/xhtml\"><table class=\"hl7__eu__lab__report\"><tr><th>Test</th><th>05-Oct-2022</th><th>Reference&#xA0;Range</th><th>Unit</th></tr><tr><td>Appearance of Urine</td></tr></table></div>"
        },
        "status": "final",
        "subject": {
          "reference": "urn:uuid:650439f2-ecee-4723-a027-8f16ecebe04c",
          "display": "Θεμιστοκλής Λιναρδάκη"
        },
        "effectiveDateTime": "2022-10-05T06:16:00Z",
        "specimen": {
          "reference": "urn:uuid:e9c5bdb5-7b96-4657-a664-99142aa3e890"
        }
      }
    },
    {
      "fullUrl": "urn:uuid:b7d39930-3b09-4a3a-97da-176b1eb88d22",
      "resource": {
        "resourceType": "Observation",
        "id": "b7d39930-3b09-4a3a-97da-176b1eb88d22",
        "meta": {
          "profile": [
            "http://hl7.eu/fhir/laboratory/StructureDefinition/Observation-resultslab-eu-lab"
          ]
        },
        "performer": [
          {
            "display": "The Central European Lab"
          }
        ],
        "category": [
          {
            "coding": [
              {
                "system": "http://terminology.hl7.org/CodeSystem/observation-category",
                "code": "laboratory"
              }
            ]
          }
        ],
        "code": {
          "coding": [
            {
              "code": "34533-0",
              "system": "http://loinc.org",
              "display": "Odor of Urine"
            }
          ],
          "text": "Odor of Urine"
        },
        "text": {
          "status": "generated",
          "div": "<div xmlns=\"http://www.w3.org/1999/xhtml\"><table class=\"hl7__eu__lab__report\"><tr><th>Test</th><th>05-Oct-2022</th><th>Reference&#xA0;Range</th><th>Unit</th></tr><tr><td>Odor of Urine</td></tr></table></div>"
        },
        "status": "final",
        "subject": {
          "reference": "urn:uuid:650439f2-ecee-4723-a027-8f16ecebe04c",
          "display": "Θεμιστοκλής Λιναρδάκη"
        },
        "effectiveDateTime": "2022-10-05T06:16:00Z",
        "specimen": {
          "reference": "urn:uuid:e9c5bdb5-7b96-4657-a664-99142aa3e890"
        }
      }
    },
    {
      "fullUrl": "urn:uuid:be33759e-d389-4dab-9504-125f389f2338",
      "resource": {
        "resourceType": "Observation",
        "id": "be33759e-d389-4dab-9504-125f389f2338",
        "meta": {
          "profile": [
            "http://hl7.eu/fhir/laboratory/StructureDefinition/Observation-resultslab-eu-lab"
          ]
        },
        "performer": [
          {
            "display": "The Central European Lab"
          }
        ],
        "category": [
          {
            "coding": [
              {
                "system": "http://terminology.hl7.org/CodeSystem/observation-category",
                "code": "laboratory"
              }
            ]
          }
        ],
        "code": {
          "coding": [
            {
              "code": "32167-9",
              "system": "http://loinc.org",
              "display": "Clarity of Urine"
            }
          ],
          "text": "Clarity of Urine"
        },
        "text": {
          "status": "generated",
          "div": "<div xmlns=\"http://www.w3.org/1999/xhtml\"><table class=\"hl7__eu__lab__report\"><tr><th>Test</th><th>05-Oct-2022</th><th>Reference&#xA0;Range</th><th>Unit</th></tr><tr><td>Clarity of Urine</td></tr></table></div>"
        },
        "status": "final",
        "subject": {
          "reference": "urn:uuid:650439f2-ecee-4723-a027-8f16ecebe04c",
          "display": "Θεμιστοκλής Λιναρδάκη"
        },
        "effectiveDateTime": "2022-10-05T06:16:00Z",
        "specimen": {
          "reference": "urn:uuid:e9c5bdb5-7b96-4657-a664-99142aa3e890"
        }
      }
    },
    {
      "fullUrl": "urn:uuid:d611fd37-46fc-4dbc-b035-2e68d32dbdf1",
      "resource": {
        "resourceType": "Observation",
        "id": "d611fd37-46fc-4dbc-b035-2e68d32dbdf1",
        "meta": {
          "profile": [
            "http://hl7.eu/fhir/laboratory/StructureDefinition/Observation-resultslab-eu-lab"
          ]
        },
        "performer": [
          {
            "display": "The Central European Lab"
          }
        ],
        "category": [
          {
            "coding": [
              {
                "system": "http://terminology.hl7.org/CodeSystem/observation-category",
                "code": "laboratory"
              }
            ]
          }
        ],
        "code": {
          "coding": [
            {
              "code": "5778-6",
              "system": "http://loinc.org",
              "display": "Color of Urine"
            }
          ],
          "text": "Color of Urine"
        },
        "text": {
          "status": "generated",
          "div": "<div xmlns=\"http://www.w3.org/1999/xhtml\"><table class=\"hl7__eu__lab__report\"><tr><th>Test</th><th>05-Oct-2022</th><th>Reference&#xA0;Range</th><th>Unit</th></tr><tr><td>Color of Urine</td></tr></table></div>"
        },
        "status": "final",
        "subject": {
          "reference": "urn:uuid:650439f2-ecee-4723-a027-8f16ecebe04c",
          "display": "Θεμιστοκλής Λιναρδάκη"
        },
        "effectiveDateTime": "2022-10-05T06:16:00Z",
        "specimen": {
          "reference": "urn:uuid:e9c5bdb5-7b96-4657-a664-99142aa3e890"
        }
      }
    },
    {
      "fullUrl": "urn:uuid:17ae109e-b596-479d-b817-2b092c0e2963",
      "resource": {
        "resourceType": "Observation",
        "id": "17ae109e-b596-479d-b817-2b092c0e2963",
        "meta": {
          "profile": [
            "http://hl7.eu/fhir/laboratory/StructureDefinition/Observation-resultslab-eu-lab"
          ]
        },
        "performer": [
          {
            "display": "The Central European Lab"
          }
        ],
        "category": [
          {
            "coding": [
              {
                "system": "http://terminology.hl7.org/CodeSystem/observation-category",
                "code": "laboratory"
              }
            ]
          }
        ],
        "code": {
          "coding": [
            {
              "code": "5792-7",
              "system": "http://loinc.org",
              "display": "Glucose [Mass/volume] in Urine by Test strip"
            }
          ],
          "text": "Glucose [Mass/volume] in Urine by Test strip"
        },
        "valueQuantity": {
          "system": "http://unitsofmeasure.org",
          "value": 2,
          "unit": "mg/dL",
          "code": "mg/dL"
        },
        "referenceRange": [
          {
            "low": {
              "value": 0,
              "code": "mg/dL",
              "system": "http://unitsofmeasure.org"
            }
          },
          {
            "high": {
              "value": 0.8,
              "code": "mg/dL",
              "system": "http://unitsofmeasure.org"
            }
          }
        ],
        "interpretation": [
          {
            "coding": [
              {
                "code": "H",
                "system": "http://terminology.hl7.org/CodeSystem/v3-ObservationInterpretation",
                "display": "High"
              }
            ]
          }
        ],
        "text": {
          "status": "generated",
          "div": "<div xmlns=\"http://www.w3.org/1999/xhtml\"><table class=\"hl7__eu__lab__report\"><tr><th>Test</th><th>05-Oct-2022</th><th>Reference&#xA0;Range</th><th>Unit</th></tr><tr><td>Glucose [Mass/volume] in Urine by Test strip</td><td>2.0</td><td>0 - 0.8</td><td>H</td><td>mg/dL</td></tr></table></div>"
        },
        "status": "final",
        "subject": {
          "reference": "urn:uuid:650439f2-ecee-4723-a027-8f16ecebe04c",
          "display": "Θεμιστοκλής Λιναρδάκη"
        },
        "effectiveDateTime": "2022-10-05T06:16:00Z",
        "specimen": {
          "reference": "urn:uuid:e9c5bdb5-7b96-4657-a664-99142aa3e890"
        }
      }
    },
    {
      "fullUrl": "urn:uuid:19f38aa9-137f-41af-ba23-acf656a6a94e",
      "resource": {
        "resourceType": "Observation",
        "id": "19f38aa9-137f-41af-ba23-acf656a6a94e",
        "meta": {
          "profile": [
            "http://hl7.eu/fhir/laboratory/StructureDefinition/Observation-resultslab-eu-lab"
          ]
        },
        "performer": [
          {
            "display": "The Central European Lab"
          }
        ],
        "category": [
          {
            "coding": [
              {
                "system": "http://terminology.hl7.org/CodeSystem/observation-category",
                "code": "laboratory"
              }
            ]
          }
        ],
        "code": {
          "coding": [
            {
              "code": "25428-4",
              "system": "http://loinc.org",
              "display": "Glucose [Presence] in Urine by Test strip"
            }
          ],
          "text": "Glucose [Presence] in Urine by Test strip"
        },
        "text": {
          "status": "generated",
          "div": "<div xmlns=\"http://www.w3.org/1999/xhtml\"><table class=\"hl7__eu__lab__report\"><tr><th>Test</th><th>05-Oct-2022</th><th>Reference&#xA0;Range</th><th>Unit</th></tr><tr><td>Glucose [Presence] in Urine by Test strip</td></tr></table></div>"
        },
        "status": "final",
        "subject": {
          "reference": "urn:uuid:650439f2-ecee-4723-a027-8f16ecebe04c",
          "display": "Θεμιστοκλής Λιναρδάκη"
        },
        "effectiveDateTime": "2022-10-05T06:16:00Z",
        "specimen": {
          "reference": "urn:uuid:e9c5bdb5-7b96-4657-a664-99142aa3e890"
        }
      }
    },
    {
      "fullUrl": "urn:uuid:06c7e335-e8aa-4f03-86b6-bac9f730142d",
      "resource": {
        "resourceType": "Observation",
        "id": "06c7e335-e8aa-4f03-86b6-bac9f730142d",
        "meta": {
          "profile": [
            "http://hl7.eu/fhir/laboratory/StructureDefinition/Observation-resultslab-eu-lab"
          ]
        },
        "performer": [
          {
            "display": "The Central European Lab"
          }
        ],
        "category": [
          {
            "coding": [
              {
                "system": "http://terminology.hl7.org/CodeSystem/observation-category",
                "code": "laboratory"
              }
            ]
          }
        ],
        "code": {
          "coding": [
            {
              "code": "20505-4",
              "system": "http://loinc.org",
              "display": "Bilirubin.total [Mass/volume] in Urine by Test strip"
            }
          ],
          "text": "Bilirubin.total [Mass/volume] in Urine by Test strip"
        },
        "valueQuantity": {
          "system": "http://unitsofmeasure.org",
          "value": 0.6,
          "unit": "mg/dL",
          "code": "mg/dL"
        },
        "referenceRange": [
          {
            "low": {
              "value": 0.2,
              "code": "mg/dL",
              "system": "http://unitsofmeasure.org"
            }
          },
          {
            "high": {
              "value": 1,
              "code": "mg/dL",
              "system": "http://unitsofmeasure.org"
            }
          }
        ],
        "text": {
          "status": "generated",
          "div": "<div xmlns=\"http://www.w3.org/1999/xhtml\"><table class=\"hl7__eu__lab__report\"><tr><th>Test</th><th>05-Oct-2022</th><th>Reference&#xA0;Range</th><th>Unit</th></tr><tr><td>Bilirubin.total [Mass/volume] in Urine by Test strip</td><td>0.6</td><td>0.2 - 1</td><td></td><td>mg/dL</td></tr></table></div>"
        },
        "status": "final",
        "subject": {
          "reference": "urn:uuid:650439f2-ecee-4723-a027-8f16ecebe04c",
          "display": "Θεμιστοκλής Λιναρδάκη"
        },
        "effectiveDateTime": "2022-10-05T06:16:00Z",
        "specimen": {
          "reference": "urn:uuid:e9c5bdb5-7b96-4657-a664-99142aa3e890"
        }
      }
    },
    {
      "fullUrl": "urn:uuid:40ed4800-53d2-4426-b6a2-eb5305eb18ff",
      "resource": {
        "resourceType": "Observation",
        "id": "40ed4800-53d2-4426-b6a2-eb5305eb18ff",
        "meta": {
          "profile": [
            "http://hl7.eu/fhir/laboratory/StructureDefinition/Observation-resultslab-eu-lab"
          ]
        },
        "performer": [
          {
            "display": "The Central European Lab"
          }
        ],
        "category": [
          {
            "coding": [
              {
                "system": "http://terminology.hl7.org/CodeSystem/observation-category",
                "code": "laboratory"
              }
            ]
          }
        ],
        "code": {
          "coding": [
            {
              "code": "5770-3",
              "system": "http://loinc.org",
              "display": "Bilirubin.total [Presence] in Urine by Test strip"
            }
          ],
          "text": "Bilirubin.total [Presence] in Urine by Test strip"
        },
        "text": {
          "status": "generated",
          "div": "<div xmlns=\"http://www.w3.org/1999/xhtml\"><table class=\"hl7__eu__lab__report\"><tr><th>Test</th><th>05-Oct-2022</th><th>Reference&#xA0;Range</th><th>Unit</th></tr><tr><td>Bilirubin.total [Presence] in Urine by Test strip</td></tr></table></div>"
        },
        "status": "final",
        "subject": {
          "reference": "urn:uuid:650439f2-ecee-4723-a027-8f16ecebe04c",
          "display": "Θεμιστοκλής Λιναρδάκη"
        },
        "effectiveDateTime": "2022-10-05T06:16:00Z",
        "specimen": {
          "reference": "urn:uuid:e9c5bdb5-7b96-4657-a664-99142aa3e890"
        }
      }
    },
    {
      "fullUrl": "urn:uuid:77634854-b839-412c-b9f0-971682a50dc6",
      "resource": {
        "resourceType": "Observation",
        "id": "77634854-b839-412c-b9f0-971682a50dc6",
        "meta": {
          "profile": [
            "http://hl7.eu/fhir/laboratory/StructureDefinition/Observation-resultslab-eu-lab"
          ]
        },
        "performer": [
          {
            "display": "The Central European Lab"
          }
        ],
        "category": [
          {
            "coding": [
              {
                "system": "http://terminology.hl7.org/CodeSystem/observation-category",
                "code": "laboratory"
              }
            ]
          }
        ],
        "code": {
          "coding": [
            {
              "code": "5797-6",
              "system": "http://loinc.org",
              "display": "Ketones [Mass/volume] in Urine by Test strip"
            }
          ],
          "text": "Ketones [Mass/volume] in Urine by Test strip"
        },
        "valueQuantity": {
          "system": "http://unitsofmeasure.org",
          "value": 1.7,
          "unit": "mg/dL",
          "code": "mg/dL"
        },
        "referenceRange": [
          {
            "low": {
              "value": 0,
              "code": "mg/dL",
              "system": "http://unitsofmeasure.org"
            }
          },
          {
            "high": {
              "value": 5,
              "code": "mg/dL",
              "system": "http://unitsofmeasure.org"
            }
          }
        ],
        "text": {
          "status": "generated",
          "div": "<div xmlns=\"http://www.w3.org/1999/xhtml\"><table class=\"hl7__eu__lab__report\"><tr><th>Test</th><th>05-Oct-2022</th><th>Reference&#xA0;Range</th><th>Unit</th></tr><tr><td>Ketones [Mass/volume] in Urine by Test strip</td><td>1.7</td><td>0 - 5</td><td></td><td>mg/dL</td></tr></table></div>"
        },
        "status": "final",
        "subject": {
          "reference": "urn:uuid:650439f2-ecee-4723-a027-8f16ecebe04c",
          "display": "Θεμιστοκλής Λιναρδάκη"
        },
        "effectiveDateTime": "2022-10-05T06:16:00Z",
        "specimen": {
          "reference": "urn:uuid:e9c5bdb5-7b96-4657-a664-99142aa3e890"
        }
      }
    },
    {
      "fullUrl": "urn:uuid:2fce2d3e-e18b-4bf8-9344-eb4fcba737f8",
      "resource": {
        "resourceType": "Observation",
        "id": "2fce2d3e-e18b-4bf8-9344-eb4fcba737f8",
        "meta": {
          "profile": [
            "http://hl7.eu/fhir/laboratory/StructureDefinition/Observation-resultslab-eu-lab"
          ]
        },
        "performer": [
          {
            "display": "The Central European Lab"
          }
        ],
        "category": [
          {
            "coding": [
              {
                "system": "http://terminology.hl7.org/CodeSystem/observation-category",
                "code": "laboratory"
              }
            ]
          }
        ],
        "code": {
          "coding": [
            {
              "code": "2514-8",
              "system": "http://loinc.org",
              "display": "Ketones [Presence] in Urine by Test strip"
            }
          ],
          "text": "Ketones [Presence] in Urine by Test strip"
        },
        "text": {
          "status": "generated",
          "div": "<div xmlns=\"http://www.w3.org/1999/xhtml\"><table class=\"hl7__eu__lab__report\"><tr><th>Test</th><th>05-Oct-2022</th><th>Reference&#xA0;Range</th><th>Unit</th></tr><tr><td>Ketones [Presence] in Urine by Test strip</td></tr></table></div>"
        },
        "status": "final",
        "subject": {
          "reference": "urn:uuid:650439f2-ecee-4723-a027-8f16ecebe04c",
          "display": "Θεμιστοκλής Λιναρδάκη"
        },
        "effectiveDateTime": "2022-10-05T06:16:00Z",
        "specimen": {
          "reference": "urn:uuid:e9c5bdb5-7b96-4657-a664-99142aa3e890"
        }
      }
    },
    {
      "fullUrl": "urn:uuid:3f6dcd7c-d880-46fc-83c0-0df8bb41c99e",
      "resource": {
        "resourceType": "Observation",
        "id": "3f6dcd7c-d880-46fc-83c0-0df8bb41c99e",
        "meta": {
          "profile": [
            "http://hl7.eu/fhir/laboratory/StructureDefinition/Observation-resultslab-eu-lab"
          ]
        },
        "performer": [
          {
            "display": "The Central European Lab"
          }
        ],
        "category": [
          {
            "coding": [
              {
                "system": "http://terminology.hl7.org/CodeSystem/observation-category",
                "code": "laboratory"
              }
            ]
          }
        ],
        "code": {
          "coding": [
            {
              "code": "5811-5",
              "system": "http://loinc.org",
              "display": "Specific gravity of Urine by Test strip"
            }
          ],
          "text": "Specific gravity of Urine by Test strip"
        },
        "valueQuantity": {
          "system": "http://unitsofmeasure.org",
          "value": 1,
          "unit": "{nominal}",
          "code": "{nominal}"
        },
        "referenceRange": [
          {
            "low": {
              "value": 1.005,
              "code": "g/mL",
              "system": "http://unitsofmeasure.org"
            }
          },
          {
            "high": {
              "value": 1.03,
              "code": "g/mL",
              "system": "http://unitsofmeasure.org"
            }
          }
        ],
        "interpretation": [
          {
            "coding": [
              {
                "code": "L",
                "system": "http://terminology.hl7.org/CodeSystem/v3-ObservationInterpretation",
                "display": "Low"
              }
            ]
          }
        ],
        "text": {
          "status": "generated",
          "div": "<div xmlns=\"http://www.w3.org/1999/xhtml\"><table class=\"hl7__eu__lab__report\"><tr><th>Test</th><th>05-Oct-2022</th><th>Reference&#xA0;Range</th><th>Unit</th></tr><tr><td>Specific gravity of Urine by Test strip</td><td>1.0</td><td>1.005 - 1.03</td><td>L</td><td>{nominal}</td></tr></table></div>"
        },
        "status": "final",
        "subject": {
          "reference": "urn:uuid:650439f2-ecee-4723-a027-8f16ecebe04c",
          "display": "Θεμιστοκλής Λιναρδάκη"
        },
        "effectiveDateTime": "2022-10-05T06:16:00Z",
        "specimen": {
          "reference": "urn:uuid:e9c5bdb5-7b96-4657-a664-99142aa3e890"
        }
      }
    },
    {
      "fullUrl": "urn:uuid:74a830e8-ee44-4b93-a900-92f9b7c6712b",
      "resource": {
        "resourceType": "Observation",
        "id": "74a830e8-ee44-4b93-a900-92f9b7c6712b",
        "meta": {
          "profile": [
            "http://hl7.eu/fhir/laboratory/StructureDefinition/Observation-resultslab-eu-lab"
          ]
        },
        "performer": [
          {
            "display": "The Central European Lab"
          }
        ],
        "category": [
          {
            "coding": [
              {
                "system": "http://terminology.hl7.org/CodeSystem/observation-category",
                "code": "laboratory"
              }
            ]
          }
        ],
        "code": {
          "coding": [
            {
              "code": "5803-2",
              "system": "http://loinc.org",
              "display": "pH of Urine by Test strip"
            }
          ],
          "text": "pH of Urine by Test strip"
        },
        "valueQuantity": {
          "system": "http://unitsofmeasure.org",
          "value": 6.9,
          "unit": "pH",
          "code": "pH"
        },
        "referenceRange": [
          {
            "low": {
              "value": 4.6,
              "code": "pH",
              "system": "http://unitsofmeasure.org"
            }
          },
          {
            "high": {
              "value": 7,
              "code": "pH",
              "system": "http://unitsofmeasure.org"
            }
          }
        ],
        "text": {
          "status": "generated",
          "div": "<div xmlns=\"http://www.w3.org/1999/xhtml\"><table class=\"hl7__eu__lab__report\"><tr><th>Test</th><th>05-Oct-2022</th><th>Reference&#xA0;Range</th><th>Unit</th></tr><tr><td>pH of Urine by Test strip</td><td>6.9</td><td>4.6 - 7</td><td></td><td>pH</td></tr></table></div>"
        },
        "status": "final",
        "subject": {
          "reference": "urn:uuid:650439f2-ecee-4723-a027-8f16ecebe04c",
          "display": "Θεμιστοκλής Λιναρδάκη"
        },
        "effectiveDateTime": "2022-10-05T06:16:00Z",
        "specimen": {
          "reference": "urn:uuid:e9c5bdb5-7b96-4657-a664-99142aa3e890"
        }
      }
    },
    {
      "fullUrl": "urn:uuid:09a0ffd1-0cb3-4b6e-ae8c-aae1ba766733",
      "resource": {
        "resourceType": "Observation",
        "id": "09a0ffd1-0cb3-4b6e-ae8c-aae1ba766733",
        "meta": {
          "profile": [
            "http://hl7.eu/fhir/laboratory/StructureDefinition/Observation-resultslab-eu-lab"
          ]
        },
        "performer": [
          {
            "display": "The Central European Lab"
          }
        ],
        "category": [
          {
            "coding": [
              {
                "system": "http://terminology.hl7.org/CodeSystem/observation-category",
                "code": "laboratory"
              }
            ]
          }
        ],
        "code": {
          "coding": [
            {
              "code": "5804-0",
              "system": "http://loinc.org",
              "display": "Protein [Mass/volume] in Urine by Test strip"
            }
          ],
          "text": "Protein [Mass/volume] in Urine by Test strip"
        },
        "valueQuantity": {
          "system": "http://unitsofmeasure.org",
          "value": 375.6,
          "unit": "mg/dL",
          "code": "mg/dL"
        },
        "referenceRange": [
          {
            "low": {
              "value": 0,
              "code": "mg/dL",
              "system": "http://unitsofmeasure.org"
            }
          },
          {
            "high": {
              "value": 150,
              "code": "mg/dL",
              "system": "http://unitsofmeasure.org"
            }
          }
        ],
        "interpretation": [
          {
            "coding": [
              {
                "code": "H",
                "system": "http://terminology.hl7.org/CodeSystem/v3-ObservationInterpretation",
                "display": "High"
              }
            ]
          }
        ],
        "text": {
          "status": "generated",
          "div": "<div xmlns=\"http://www.w3.org/1999/xhtml\"><table class=\"hl7__eu__lab__report\"><tr><th>Test</th><th>05-Oct-2022</th><th>Reference&#xA0;Range</th><th>Unit</th></tr><tr><td>Protein [Mass/volume] in Urine by Test strip</td><td>375.6</td><td>0 - 150</td><td>H</td><td>mg/dL</td></tr></table></div>"
        },
        "status": "final",
        "subject": {
          "reference": "urn:uuid:650439f2-ecee-4723-a027-8f16ecebe04c",
          "display": "Θεμιστοκλής Λιναρδάκη"
        },
        "effectiveDateTime": "2022-10-05T06:16:00Z",
        "specimen": {
          "reference": "urn:uuid:e9c5bdb5-7b96-4657-a664-99142aa3e890"
        }
      }
    },
    {
      "fullUrl": "urn:uuid:35922653-b5f3-46e8-a939-d0ccdcbbefd7",
      "resource": {
        "resourceType": "Observation",
        "id": "35922653-b5f3-46e8-a939-d0ccdcbbefd7",
        "meta": {
          "profile": [
            "http://hl7.eu/fhir/laboratory/StructureDefinition/Observation-resultslab-eu-lab"
          ]
        },
        "performer": [
          {
            "display": "The Central European Lab"
          }
        ],
        "category": [
          {
            "coding": [
              {
                "system": "http://terminology.hl7.org/CodeSystem/observation-category",
                "code": "laboratory"
              }
            ]
          }
        ],
        "code": {
          "coding": [
            {
              "code": "20454-5",
              "system": "http://loinc.org",
              "display": "Protein [Presence] in Urine by Test strip"
            }
          ],
          "text": "Protein [Presence] in Urine by Test strip"
        },
        "text": {
          "status": "generated",
          "div": "<div xmlns=\"http://www.w3.org/1999/xhtml\"><table class=\"hl7__eu__lab__report\"><tr><th>Test</th><th>05-Oct-2022</th><th>Reference&#xA0;Range</th><th>Unit</th></tr><tr><td>Protein [Presence] in Urine by Test strip</td></tr></table></div>"
        },
        "status": "final",
        "subject": {
          "reference": "urn:uuid:650439f2-ecee-4723-a027-8f16ecebe04c",
          "display": "Θεμιστοκλής Λιναρδάκη"
        },
        "effectiveDateTime": "2022-10-05T06:16:00Z",
        "specimen": {
          "reference": "urn:uuid:e9c5bdb5-7b96-4657-a664-99142aa3e890"
        }
      }
    },
    {
      "fullUrl": "urn:uuid:61879b19-5cbb-480a-8c9d-a0e748776d4b",
      "resource": {
        "resourceType": "Observation",
        "id": "61879b19-5cbb-480a-8c9d-a0e748776d4b",
        "meta": {
          "profile": [
            "http://hl7.eu/fhir/laboratory/StructureDefinition/Observation-resultslab-eu-lab"
          ]
        },
        "performer": [
          {
            "display": "The Central European Lab"
          }
        ],
        "category": [
          {
            "coding": [
              {
                "system": "http://terminology.hl7.org/CodeSystem/observation-category",
                "code": "laboratory"
              }
            ]
          }
        ],
        "code": {
          "coding": [
            {
              "code": "5802-4",
              "system": "http://loinc.org",
              "display": "Nitrite [Presence] in Urine by Test strip"
            }
          ],
          "text": "Nitrite [Presence] in Urine by Test strip"
        },
        "text": {
          "status": "generated",
          "div": "<div xmlns=\"http://www.w3.org/1999/xhtml\"><table class=\"hl7__eu__lab__report\"><tr><th>Test</th><th>05-Oct-2022</th><th>Reference&#xA0;Range</th><th>Unit</th></tr><tr><td>Nitrite [Presence] in Urine by Test strip</td></tr></table></div>"
        },
        "status": "final",
        "subject": {
          "reference": "urn:uuid:650439f2-ecee-4723-a027-8f16ecebe04c",
          "display": "Θεμιστοκλής Λιναρδάκη"
        },
        "effectiveDateTime": "2022-10-05T06:16:00Z",
        "specimen": {
          "reference": "urn:uuid:e9c5bdb5-7b96-4657-a664-99142aa3e890"
        }
      }
    },
    {
      "fullUrl": "urn:uuid:5be86f68-f771-4ad2-9129-64bd3c78cf0a",
      "resource": {
        "resourceType": "Observation",
        "id": "5be86f68-f771-4ad2-9129-64bd3c78cf0a",
        "meta": {
          "profile": [
            "http://hl7.eu/fhir/laboratory/StructureDefinition/Observation-resultslab-eu-lab"
          ]
        },
        "performer": [
          {
            "display": "The Central European Lab"
          }
        ],
        "category": [
          {
            "coding": [
              {
                "system": "http://terminology.hl7.org/CodeSystem/observation-category",
                "code": "laboratory"
              }
            ]
          }
        ],
        "code": {
          "coding": [
            {
              "code": "5794-3",
              "system": "http://loinc.org",
              "display": "Hemoglobin [Presence] in Urine by Test strip"
            }
          ],
          "text": "Hemoglobin [Presence] in Urine by Test strip"
        },
        "text": {
          "status": "generated",
          "div": "<div xmlns=\"http://www.w3.org/1999/xhtml\"><table class=\"hl7__eu__lab__report\"><tr><th>Test</th><th>05-Oct-2022</th><th>Reference&#xA0;Range</th><th>Unit</th></tr><tr><td>Hemoglobin [Presence] in Urine by Test strip</td></tr></table></div>"
        },
        "status": "final",
        "subject": {
          "reference": "urn:uuid:650439f2-ecee-4723-a027-8f16ecebe04c",
          "display": "Θεμιστοκλής Λιναρδάκη"
        },
        "effectiveDateTime": "2022-10-05T06:16:00Z",
        "specimen": {
          "reference": "urn:uuid:e9c5bdb5-7b96-4657-a664-99142aa3e890"
        }
      }
    },
    {
      "fullUrl": "urn:uuid:e68f785b-061c-49a5-a5a5-df3b5a7e2721",
      "resource": {
        "resourceType": "Observation",
        "id": "e68f785b-061c-49a5-a5a5-df3b5a7e2721",
        "meta": {
          "profile": [
            "http://hl7.eu/fhir/laboratory/StructureDefinition/Observation-resultslab-eu-lab"
          ]
        },
        "performer": [
          {
            "display": "The Central European Lab"
          }
        ],
        "category": [
          {
            "coding": [
              {
                "system": "http://terminology.hl7.org/CodeSystem/observation-category",
                "code": "laboratory"
              }
            ]
          }
        ],
        "code": {
          "coding": [
            {
              "code": "5799-2",
              "system": "http://loinc.org",
              "display": "Leukocyte esterase [Presence] in Urine by Test strip"
            }
          ],
          "text": "Leukocyte esterase [Presence] in Urine by Test strip"
        },
        "text": {
          "status": "generated",
          "div": "<div xmlns=\"http://www.w3.org/1999/xhtml\"><table class=\"hl7__eu__lab__report\"><tr><th>Test</th><th>05-Oct-2022</th><th>Reference&#xA0;Range</th><th>Unit</th></tr><tr><td>Leukocyte esterase [Presence] in Urine by Test strip</td></tr></table></div>"
        },
        "status": "final",
        "subject": {
          "reference": "urn:uuid:650439f2-ecee-4723-a027-8f16ecebe04c",
          "display": "Θεμιστοκλής Λιναρδάκη"
        },
        "effectiveDateTime": "2022-10-05T06:16:00Z",
        "specimen": {
          "reference": "urn:uuid:e9c5bdb5-7b96-4657-a664-99142aa3e890"
        }
      }
    },
    {
      "fullUrl": "urn:uuid:7c173335-6c0c-4846-9f30-80e7354b1205",
      "resource": {
        "resourceType": "Observation",
        "id": "7c173335-6c0c-4846-9f30-80e7354b1205",
        "meta": {
          "profile": [
            "http://hl7.eu/fhir/laboratory/StructureDefinition/Observation-resultslab-eu-lab"
          ]
        },
        "performer": [
          {
            "display": "The Central European Lab"
          }
        ],
        "category": [
          {
            "coding": [
              {
                "system": "http://terminology.hl7.org/CodeSystem/observation-category",
                "code": "laboratory"
              }
            ]
          }
        ],
        "code": {
          "coding": [
            {
              "code": "4548-4",
              "system": "http://loinc.org",
              "display": "Hemoglobin A1c/Hemoglobin.total in Blood"
            }
          ],
          "text": "Hemoglobin A1c/Hemoglobin.total in Blood"
        },
        "valueQuantity": {
          "system": "http://unitsofmeasure.org",
          "value": 2.8,
          "unit": "%",
          "code": "%"
        },
        "referenceRange": [
          {
            "low": {
              "value": 4.3,
              "code": "%",
              "system": "http://unitsofmeasure.org"
            }
          },
          {
            "high": {
              "value": 6.4,
              "code": "%",
              "system": "http://unitsofmeasure.org"
            }
          }
        ],
        "interpretation": [
          {
            "coding": [
              {
                "code": "L",
                "system": "http://terminology.hl7.org/CodeSystem/v3-ObservationInterpretation",
                "display": "Low"
              }
            ]
          }
        ],
        "text": {
          "status": "generated",
          "div": "<div xmlns=\"http://www.w3.org/1999/xhtml\"><table class=\"hl7__eu__lab__report\"><tr><th>Test</th><th>05-Oct-2022</th><th>Reference&#xA0;Range</th><th>Unit</th></tr><tr><td>Hemoglobin A1c/Hemoglobin.total in Blood</td><td>2.8</td><td>4.3 - 6.4</td><td>L</td><td>%</td></tr></table></div>"
        },
        "status": "final",
        "subject": {
          "reference": "urn:uuid:650439f2-ecee-4723-a027-8f16ecebe04c",
          "display": "Θεμιστοκλής Λιναρδάκη"
        },
        "effectiveDateTime": "2022-10-05T06:16:00Z",
        "specimen": {
          "reference": "urn:uuid:de8d3d97-00ba-42c4-83eb-f15a618ac87b"
        }
      }
    },
    {
      "fullUrl": "urn:uuid:c115dac6-359c-4910-be99-c1c86a9b9b70",
      "resource": {
        "resourceType": "Observation",
        "id": "c115dac6-359c-4910-be99-c1c86a9b9b70",
        "meta": {
          "profile": [
            "http://hl7.eu/fhir/laboratory/StructureDefinition/Observation-resultslab-eu-lab"
          ]
        },
        "performer": [
          {
            "display": "The Central European Lab"
          }
        ],
        "category": [
          {
            "coding": [
              {
                "system": "http://terminology.hl7.org/CodeSystem/observation-category",
                "code": "laboratory"
              }
            ]
          }
        ],
        "code": {
          "coding": [
            {
              "code": "2339-0",
              "system": "http://loinc.org",
              "display": "Glucose [Mass/volume] in Blood"
            }
          ],
          "text": "Glucose [Mass/volume] in Blood"
        },
        "valueQuantity": {
          "system": "http://unitsofmeasure.org",
          "value": 69.8,
          "unit": "mg/dL",
          "code": "mg/dL"
        },
        "referenceRange": [
          {
            "low": {
              "value": 70,
              "code": "mg/dL",
              "system": "http://unitsofmeasure.org"
            }
          },
          {
            "high": {
              "value": 140,
              "code": "mg/dL",
              "system": "http://unitsofmeasure.org"
            }
          }
        ],
        "interpretation": [
          {
            "coding": [
              {
                "code": "L",
                "system": "http://terminology.hl7.org/CodeSystem/v3-ObservationInterpretation",
                "display": "Low"
              }
            ]
          }
        ],
        "text": {
          "status": "generated",
          "div": "<div xmlns=\"http://www.w3.org/1999/xhtml\"><table class=\"hl7__eu__lab__report\"><tr><th>Test</th><th>05-Oct-2022</th><th>Reference&#xA0;Range</th><th>Unit</th></tr><tr><td>Glucose [Mass/volume] in Blood</td><td>69.8</td><td>70 - 140</td><td>L</td><td>mg/dL</td></tr></table></div>"
        },
        "status": "final",
        "subject": {
          "reference": "urn:uuid:650439f2-ecee-4723-a027-8f16ecebe04c",
          "display": "Θεμιστοκλής Λιναρδάκη"
        },
        "effectiveDateTime": "2022-10-05T06:16:00Z",
        "specimen": {
          "reference": "urn:uuid:de8d3d97-00ba-42c4-83eb-f15a618ac87b"
        }
      }
    },
    {
      "fullUrl": "urn:uuid:42cdc4e9-b089-464d-a0b4-d571dbb794b3",
      "resource": {
        "resourceType": "Observation",
        "id": "42cdc4e9-b089-464d-a0b4-d571dbb794b3",
        "meta": {
          "profile": [
            "http://hl7.eu/fhir/laboratory/StructureDefinition/Observation-resultslab-eu-lab"
          ]
        },
        "performer": [
          {
            "display": "The Central European Lab"
          }
        ],
        "category": [
          {
            "coding": [
              {
                "system": "http://terminology.hl7.org/CodeSystem/observation-category",
                "code": "laboratory"
              }
            ]
          }
        ],
        "code": {
          "coding": [
            {
              "code": "6299-2",
              "system": "http://loinc.org",
              "display": "Urea nitrogen [Mass/volume] in Blood"
            }
          ],
          "text": "Urea nitrogen [Mass/volume] in Blood"
        },
        "valueQuantity": {
          "system": "http://unitsofmeasure.org",
          "value": 16.2,
          "unit": "mg/dL",
          "code": "mg/dL"
        },
        "referenceRange": [
          {
            "low": {
              "value": 7,
              "code": "mg/dL",
              "system": "http://unitsofmeasure.org"
            }
          },
          {
            "high": {
              "value": 20,
              "code": "mg/dL",
              "system": "http://unitsofmeasure.org"
            }
          }
        ],
        "text": {
          "status": "generated",
          "div": "<div xmlns=\"http://www.w3.org/1999/xhtml\"><table class=\"hl7__eu__lab__report\"><tr><th>Test</th><th>05-Oct-2022</th><th>Reference&#xA0;Range</th><th>Unit</th></tr><tr><td>Urea nitrogen [Mass/volume] in Blood</td><td>16.2</td><td>7 - 20</td><td></td><td>mg/dL</td></tr></table></div>"
        },
        "status": "final",
        "subject": {
          "reference": "urn:uuid:650439f2-ecee-4723-a027-8f16ecebe04c",
          "display": "Θεμιστοκλής Λιναρδάκη"
        },
        "effectiveDateTime": "2022-10-05T06:16:00Z",
        "specimen": {
          "reference": "urn:uuid:de8d3d97-00ba-42c4-83eb-f15a618ac87b"
        }
      }
    },
    {
      "fullUrl": "urn:uuid:b73cba54-d7be-49ea-b833-dc64902467d4",
      "resource": {
        "resourceType": "Observation",
        "id": "b73cba54-d7be-49ea-b833-dc64902467d4",
        "meta": {
          "profile": [
            "http://hl7.eu/fhir/laboratory/StructureDefinition/Observation-resultslab-eu-lab"
          ]
        },
        "performer": [
          {
            "display": "The Central European Lab"
          }
        ],
        "category": [
          {
            "coding": [
              {
                "system": "http://terminology.hl7.org/CodeSystem/observation-category",
                "code": "laboratory"
              }
            ]
          }
        ],
        "code": {
          "coding": [
            {
              "code": "38483-4",
              "system": "http://loinc.org",
              "display": "Creatinine [Mass/volume] in Blood"
            }
          ],
          "text": "Creatinine [Mass/volume] in Blood"
        },
        "valueQuantity": {
          "system": "http://unitsofmeasure.org",
          "value": 7.7,
          "unit": "mg/dL",
          "code": "mg/dL"
        },
        "referenceRange": [
          {
            "low": {
              "value": 0.6,
              "code": "mg/dL",
              "system": "http://unitsofmeasure.org"
            }
          },
          {
            "high": {
              "value": 1.3,
              "code": "mg/dL",
              "system": "http://unitsofmeasure.org"
            }
          }
        ],
        "interpretation": [
          {
            "coding": [
              {
                "code": "H",
                "system": "http://terminology.hl7.org/CodeSystem/v3-ObservationInterpretation",
                "display": "High"
              }
            ]
          }
        ],
        "text": {
          "status": "generated",
          "div": "<div xmlns=\"http://www.w3.org/1999/xhtml\"><table class=\"hl7__eu__lab__report\"><tr><th>Test</th><th>05-Oct-2022</th><th>Reference&#xA0;Range</th><th>Unit</th></tr><tr><td>Creatinine [Mass/volume] in Blood</td><td>7.7</td><td>0.6 - 1.3</td><td>H</td><td>mg/dL</td></tr></table></div>"
        },
        "status": "final",
        "subject": {
          "reference": "urn:uuid:650439f2-ecee-4723-a027-8f16ecebe04c",
          "display": "Θεμιστοκλής Λιναρδάκη"
        },
        "effectiveDateTime": "2022-10-05T06:16:00Z",
        "specimen": {
          "reference": "urn:uuid:de8d3d97-00ba-42c4-83eb-f15a618ac87b"
        }
      }
    },
    {
      "fullUrl": "urn:uuid:c1f7d23b-5fce-42bf-bccb-62eea1701490",
      "resource": {
        "resourceType": "Observation",
        "id": "c1f7d23b-5fce-42bf-bccb-62eea1701490",
        "meta": {
          "profile": [
            "http://hl7.eu/fhir/laboratory/StructureDefinition/Observation-resultslab-eu-lab"
          ]
        },
        "performer": [
          {
            "display": "The Central European Lab"
          }
        ],
        "category": [
          {
            "coding": [
              {
                "system": "http://terminology.hl7.org/CodeSystem/observation-category",
                "code": "laboratory"
              }
            ]
          }
        ],
        "code": {
          "coding": [
            {
              "code": "49765-1",
              "system": "http://loinc.org",
              "display": "Calcium [Mass/volume] in Blood"
            }
          ],
          "text": "Calcium [Mass/volume] in Blood"
        },
        "valueQuantity": {
          "system": "http://unitsofmeasure.org",
          "value": 8.9,
          "unit": "mg/dL",
          "code": "mg/dL"
        },
        "referenceRange": [
          {
            "low": {
              "value": 8.5,
              "code": "mg/dL",
              "system": "http://unitsofmeasure.org"
            }
          },
          {
            "high": {
              "value": 10.5,
              "code": "mg/dL",
              "system": "http://unitsofmeasure.org"
            }
          }
        ],
        "text": {
          "status": "generated",
          "div": "<div xmlns=\"http://www.w3.org/1999/xhtml\"><table class=\"hl7__eu__lab__report\"><tr><th>Test</th><th>05-Oct-2022</th><th>Reference&#xA0;Range</th><th>Unit</th></tr><tr><td>Calcium [Mass/volume] in Blood</td><td>8.9</td><td>8.5 - 10.5</td><td></td><td>mg/dL</td></tr></table></div>"
        },
        "status": "final",
        "subject": {
          "reference": "urn:uuid:650439f2-ecee-4723-a027-8f16ecebe04c",
          "display": "Θεμιστοκλής Λιναρδάκη"
        },
        "effectiveDateTime": "2022-10-05T06:16:00Z",
        "specimen": {
          "reference": "urn:uuid:de8d3d97-00ba-42c4-83eb-f15a618ac87b"
        }
      }
    },
    {
      "fullUrl": "urn:uuid:c9f344d4-dcab-4a65-8e98-acc2add9b49e",
      "resource": {
        "resourceType": "Observation",
        "id": "c9f344d4-dcab-4a65-8e98-acc2add9b49e",
        "meta": {
          "profile": [
            "http://hl7.eu/fhir/laboratory/StructureDefinition/Observation-resultslab-eu-lab"
          ]
        },
        "performer": [
          {
            "display": "The Central European Lab"
          }
        ],
        "category": [
          {
            "coding": [
              {
                "system": "http://terminology.hl7.org/CodeSystem/observation-category",
                "code": "laboratory"
              }
            ]
          }
        ],
        "code": {
          "coding": [
            {
              "code": "2947-0",
              "system": "http://loinc.org",
              "display": "Sodium [Moles/volume] in Blood"
            }
          ],
          "text": "Sodium [Moles/volume] in Blood"
        },
        "valueQuantity": {
          "system": "http://unitsofmeasure.org",
          "value": 138.7,
          "unit": "mmol/L",
          "code": "mmol/L"
        },
        "referenceRange": [
          {
            "low": {
              "value": 135,
              "code": "mmol/L",
              "system": "http://unitsofmeasure.org"
            }
          },
          {
            "high": {
              "value": 145,
              "code": "mmol/L",
              "system": "http://unitsofmeasure.org"
            }
          }
        ],
        "text": {
          "status": "generated",
          "div": "<div xmlns=\"http://www.w3.org/1999/xhtml\"><table class=\"hl7__eu__lab__report\"><tr><th>Test</th><th>05-Oct-2022</th><th>Reference&#xA0;Range</th><th>Unit</th></tr><tr><td>Sodium [Moles/volume] in Blood</td><td>138.7</td><td>135 - 145</td><td></td><td>mmol/L</td></tr></table></div>"
        },
        "status": "final",
        "subject": {
          "reference": "urn:uuid:650439f2-ecee-4723-a027-8f16ecebe04c",
          "display": "Θεμιστοκλής Λιναρδάκη"
        },
        "effectiveDateTime": "2022-10-05T06:16:00Z",
        "specimen": {
          "reference": "urn:uuid:de8d3d97-00ba-42c4-83eb-f15a618ac87b"
        }
      }
    },
    {
      "fullUrl": "urn:uuid:d03c47bc-1cb9-40a4-b552-50981f3ecd5d",
      "resource": {
        "resourceType": "Observation",
        "id": "d03c47bc-1cb9-40a4-b552-50981f3ecd5d",
        "meta": {
          "profile": [
            "http://hl7.eu/fhir/laboratory/StructureDefinition/Observation-resultslab-eu-lab"
          ]
        },
        "performer": [
          {
            "display": "The Central European Lab"
          }
        ],
        "category": [
          {
            "coding": [
              {
                "system": "http://terminology.hl7.org/CodeSystem/observation-category",
                "code": "laboratory"
              }
            ]
          }
        ],
        "code": {
          "coding": [
            {
              "code": "6298-4",
              "system": "http://loinc.org",
              "display": "Potassium [Moles/volume] in Blood"
            }
          ],
          "text": "Potassium [Moles/volume] in Blood"
        },
        "valueQuantity": {
          "system": "http://unitsofmeasure.org",
          "value": 4.9,
          "unit": "mmol/L",
          "code": "mmol/L"
        },
        "referenceRange": [
          {
            "low": {
              "value": 3.5,
              "code": "mmol/L",
              "system": "http://unitsofmeasure.org"
            }
          },
          {
            "high": {
              "value": 5.3,
              "code": "mmol/L",
              "system": "http://unitsofmeasure.org"
            }
          }
        ],
        "text": {
          "status": "generated",
          "div": "<div xmlns=\"http://www.w3.org/1999/xhtml\"><table class=\"hl7__eu__lab__report\"><tr><th>Test</th><th>05-Oct-2022</th><th>Reference&#xA0;Range</th><th>Unit</th></tr><tr><td>Potassium [Moles/volume] in Blood</td><td>4.9</td><td>3.5 - 5.3</td><td></td><td>mmol/L</td></tr></table></div>"
        },
        "status": "final",
        "subject": {
          "reference": "urn:uuid:650439f2-ecee-4723-a027-8f16ecebe04c",
          "display": "Θεμιστοκλής Λιναρδάκη"
        },
        "effectiveDateTime": "2022-10-05T06:16:00Z",
        "specimen": {
          "reference": "urn:uuid:de8d3d97-00ba-42c4-83eb-f15a618ac87b"
        }
      }
    },
    {
      "fullUrl": "urn:uuid:b658e4e2-3a71-48d3-ac51-fc17ece3d84b",
      "resource": {
        "resourceType": "Observation",
        "id": "b658e4e2-3a71-48d3-ac51-fc17ece3d84b",
        "meta": {
          "profile": [
            "http://hl7.eu/fhir/laboratory/StructureDefinition/Observation-resultslab-eu-lab"
          ]
        },
        "performer": [
          {
            "display": "The Central European Lab"
          }
        ],
        "category": [
          {
            "coding": [
              {
                "system": "http://terminology.hl7.org/CodeSystem/observation-category",
                "code": "laboratory"
              }
            ]
          }
        ],
        "code": {
          "coding": [
            {
              "code": "2069-3",
              "system": "http://loinc.org",
              "display": "Chloride [Moles/volume] in Blood"
            }
          ],
          "text": "Chloride [Moles/volume] in Blood"
        },
        "valueQuantity": {
          "system": "http://unitsofmeasure.org",
          "value": 104.5,
          "unit": "mmol/L",
          "code": "mmol/L"
        },
        "referenceRange": [
          {
            "low": {
              "value": 98,
              "code": "mmol/L",
              "system": "http://unitsofmeasure.org"
            }
          },
          {
            "high": {
              "value": 110,
              "code": "mmol/L",
              "system": "http://unitsofmeasure.org"
            }
          }
        ],
        "text": {
          "status": "generated",
          "div": "<div xmlns=\"http://www.w3.org/1999/xhtml\"><table class=\"hl7__eu__lab__report\"><tr><th>Test</th><th>05-Oct-2022</th><th>Reference&#xA0;Range</th><th>Unit</th></tr><tr><td>Chloride [Moles/volume] in Blood</td><td>104.5</td><td>98 - 110</td><td></td><td>mmol/L</td></tr></table></div>"
        },
        "status": "final",
        "subject": {
          "reference": "urn:uuid:650439f2-ecee-4723-a027-8f16ecebe04c",
          "display": "Θεμιστοκλής Λιναρδάκη"
        },
        "effectiveDateTime": "2022-10-05T06:16:00Z",
        "specimen": {
          "reference": "urn:uuid:de8d3d97-00ba-42c4-83eb-f15a618ac87b"
        }
      }
    },
    {
      "fullUrl": "urn:uuid:6b659a22-9717-4f44-8e0a-563e8e4ce49e",
      "resource": {
        "resourceType": "Observation",
        "id": "6b659a22-9717-4f44-8e0a-563e8e4ce49e",
        "meta": {
          "profile": [
            "http://hl7.eu/fhir/laboratory/StructureDefinition/Observation-resultslab-eu-lab"
          ]
        },
        "performer": [
          {
            "display": "The Central European Lab"
          }
        ],
        "category": [
          {
            "coding": [
              {
                "system": "http://terminology.hl7.org/CodeSystem/observation-category",
                "code": "laboratory"
              }
            ]
          }
        ],
        "code": {
          "coding": [
            {
              "code": "20565-8",
              "system": "http://loinc.org",
              "display": "Carbon dioxide, total [Moles/volume] in Blood"
            }
          ],
          "text": "Carbon dioxide, total [Moles/volume] in Blood"
        },
        "valueQuantity": {
          "system": "http://unitsofmeasure.org",
          "value": 23.2,
          "unit": "mmol/L",
          "code": "mmol/L"
        },
        "referenceRange": [
          {
            "low": {
              "value": 22,
              "code": "mmol/L",
              "system": "http://unitsofmeasure.org"
            }
          },
          {
            "high": {
              "value": 29,
              "code": "mmol/L",
              "system": "http://unitsofmeasure.org"
            }
          }
        ],
        "text": {
          "status": "generated",
          "div": "<div xmlns=\"http://www.w3.org/1999/xhtml\"><table class=\"hl7__eu__lab__report\"><tr><th>Test</th><th>05-Oct-2022</th><th>Reference&#xA0;Range</th><th>Unit</th></tr><tr><td>Carbon dioxide, total [Moles/volume] in Blood</td><td>23.2</td><td>22 - 29</td><td></td><td>mmol/L</td></tr></table></div>"
        },
        "status": "final",
        "subject": {
          "reference": "urn:uuid:650439f2-ecee-4723-a027-8f16ecebe04c",
          "display": "Θεμιστοκλής Λιναρδάκη"
        },
        "effectiveDateTime": "2022-10-05T06:16:00Z",
        "specimen": {
          "reference": "urn:uuid:de8d3d97-00ba-42c4-83eb-f15a618ac87b"
        }
      }
    },
    {
      "fullUrl": "urn:uuid:d88e92d6-d287-4c55-b205-f39d9fc7d15f",
      "resource": {
        "resourceType": "Device",
        "id": "d88e92d6-d287-4c55-b205-f39d9fc7d15f",
        "deviceName": [
          {
            "name": "SYNDERAI Synthetic Generator",
            "type": "manufacturer-name"
          }
        ],
        "version": [
          {
            "value": "5.0"
          }
        ],
        "text": {
          "status": "generated",
          "div": "<div xmlns=\"http://www.w3.org/1999/xhtml\">SYNDERAI Synthetic Generator v5.0</div>"
        },
        "status": "active\"",
        "distinctIdentifier": "synderai-generator-50",
        "manufacturer": "SYNDERAI Project"
      }
    },
    {
      "fullUrl": "urn:uuid:2d488ba6-59fc-4ea5-858c-443d58bfb87e",
      "resource": {
        "resourceType": "Provenance",
        "id": "2d488ba6-59fc-4ea5-858c-443d58bfb87e",
        "target": [
          {
            "reference": "Patient/650439f2-ecee-4723-a027-8f16ecebe04c"
          },
          {
            "reference": "Bundle/cb4fa467-ce25-474b-a0d2-32f0a81041fc"
          },
          {
            "reference": "Composition/38bfd304-d2ea-4815-ac59-34375281daed"
          },
          {
            "reference": "PractitionerRole/ad4505fb-0265-4ae9-bf57-2ed5bff62cea"
          },
          {
            "reference": "Practitioner/ded1bfe7-64bf-454c-bf14-3b898c31e5dc"
          },
          {
            "reference": "PractitionerRole/a68ce27c-3b18-482c-a2f3-3ad95053c7a0"
          },
          {
            "reference": "Organization/83bc2d8c-b9da-495e-88d7-3dd42eca22d8"
          }
        ],
        "activity": {
          "text": "Synthetic Example Data Generation"
        },
        "policy": [
          "https://synderai.net/synderai-synthetic-data-policy"
        ],
        "agent": [
          {
            "type": {
              "text": "author"
            },
            "who": {
              "reference": "Device/d88e92d6-d287-4c55-b205-f39d9fc7d15f"
            }
          }
        ],
        "reason": [
          {
            "text": "Interoperability Testing and Training (non-clinical use)"
          }
        ],
        "text": {
          "status": "generated",
          "div": "<div xmlns=\"http://www.w3.org/1999/xhtml\">Provenance for SYNDERAI Synthetic Example Data Resource</div>"
        },
        "recorded": "2022-10-05T08:16:00Z"
      }
    },
    {
      "fullUrl": "urn:uuid:ad4505fb-0265-4ae9-bf57-2ed5bff62cea",
      "resource": {
        "resourceType": "PractitionerRole",
        "id": "ad4505fb-0265-4ae9-bf57-2ed5bff62cea",
        "meta": {
          "profile": [
            "http://hl7.eu/fhir/base/StructureDefinition/practitionerRole-eu"
          ]
        },
        "text": {
          "status": "generated",
          "div": "<div xmlns=\"http://www.w3.org/1999/xhtml\">Laboratory Role Id: ad4505fb-0265-4ae9-bf57-2ed5bff62cea</div>"
        },
        "practitioner": {
          "reference": "urn:uuid:ded1bfe7-64bf-454c-bf14-3b898c31e5dc"
        }
      }
    },
    {
      "fullUrl": "urn:uuid:ded1bfe7-64bf-454c-bf14-3b898c31e5dc",
      "resource": {
        "resourceType": "Practitioner",
        "id": "ded1bfe7-64bf-454c-bf14-3b898c31e5dc",
        "meta": {
          "profile": [
            "http://hl7.eu/fhir/base/StructureDefinition/practitioner-eu"
          ]
        },
        "identifier": [
          {
            "assigner": {
              "display": "HL7 Europe"
            },
            "system": "urn:oid:2.16.840.1.113883.2.51.999",
            "value": "f8858fa8-ac73-4829-bb47-6e51016bf484"
          }
        ],
        "name": [
          {
            "prefix": [
              "dr"
            ],
            "given": [
              "Ex"
            ],
            "family": "Ample"
          }
        ],
        "address": [
          {
            "line": [
              "Laboratoire Central Européenne",
              "Boulevard du Jardin Botanique 32"
            ],
            "postalCode": "1000",
            "city": "Brussels",
            "country": "Belgium"
          }
        ],
        "text": {
          "status": "generated",
          "div": "<div xmlns=\"http://www.w3.org/1999/xhtml\">Laboratory: Laboratoire Central Européenne, 1000 Brussels, Belgium</div>"
        }
      }
    }
  ],
  "type": "document",
  "timestamp": "2022-10-05T08:16:00Z"
}
