{
  "resourceType": "Bundle",
  "id": "13347910-afc2-43a0-8398-e86f8d865ac6",
  "meta": {
    "profile": [
      "http://hl7.eu/fhir/laboratory/StructureDefinition/Bundle-eu-lab"
    ]
  },
  "identifier": {
    "assigner": {
      "display": "HL7 Europe"
    },
    "system": "urn:oid:2.16.840.1.113883.2.51.999",
    "value": "b06d2da1-aa80-48f8-a753-df174f47c19b"
  },
  "entry": [
    {
      "fullUrl": "urn:uuid:1706a92f-b349-4f92-93a1-14b84a70cc64",
      "resource": {
        "resourceType": "Composition",
        "id": "1706a92f-b349-4f92-93a1-14b84a70cc64",
        "meta": {
          "profile": [
            "http://hl7.eu/fhir/laboratory/StructureDefinition/Composition-eu-lab"
          ]
        },
        "identifier": {
          "assigner": {
            "display": "HL7 Europe"
          },
          "system": "urn:oid:2.16.840.1.113883.2.51.999",
          "value": "58b7c5a7-b7af-4b24-b554-cd162592ab51"
        },
        "author": [
          {
            "reference": "urn:uuid:b2176f63-1132-4c16-b2bb-3fb77583a611"
          }
        ],
        "category": [
          {
            "coding": [
              {
                "code": "26436-6",
                "system": "http://loinc.org",
                "display": "Laboratory studies (set)"
              }
            ]
          }
        ],
        "type": {
          "coding": [
            {
              "code": "11502-2",
              "system": "http://loinc.org",
              "display": "Laboratory report"
            }
          ],
          "text": "Laboratory Report"
        },
        "section": [
          {
            "code": {
              "coding": [
                {
                  "code": "26436-6",
                  "system": "http://loinc.org",
                  "display": "Laboratory studies (set)"
                }
              ],
              "text": "Laboratory studies"
            },
            "section": [
              {
                "code": {
                  "coding": [
                    {
                      "code": "$18719-5",
                      "system": "http://loinc.org",
                      "display": "Chemistry studies (set)"
                    }
                  ],
                  "text": "Chemistry"
                },
                "entry": [
                  {
                    "reference": "urn:uuid:9775f63e-cb59-4c87-bf05-ee54986bed7f"
                  },
                  {
                    "reference": "urn:uuid:fa0c3dcd-d3e0-4c98-85e6-83c5e28cf7e3"
                  },
                  {
                    "reference": "urn:uuid:28b1a8d9-4f49-41cc-86c4-a365f6d47c55"
                  },
                  {
                    "reference": "urn:uuid:68effec2-6823-44ac-b2ff-e8363f3978cf"
                  },
                  {
                    "reference": "urn:uuid:bd7dd318-bef0-4edd-9eff-0aa25d3f70a0"
                  },
                  {
                    "reference": "urn:uuid:465767db-e270-45c1-ba77-4128049072c5"
                  },
                  {
                    "reference": "urn:uuid:27cc86cc-4434-4ef7-8a40-548926286c4f"
                  },
                  {
                    "reference": "urn:uuid:db8ddfac-fee8-4c33-b6b5-d3320f1d5cd2"
                  },
                  {
                    "reference": "urn:uuid:5806034f-d1bd-4fa0-911b-fac9e1160755"
                  },
                  {
                    "reference": "urn:uuid:090364bf-76b6-458c-a079-fea23dcfa7a5"
                  },
                  {
                    "reference": "urn:uuid:012632ab-b439-44a6-afa1-cda6fa1424e6"
                  },
                  {
                    "reference": "urn:uuid:35b95222-7137-495c-9b92-900a78e94014"
                  },
                  {
                    "reference": "urn:uuid:de888db7-dae4-4118-83a8-5b52dc6788bd"
                  },
                  {
                    "reference": "urn:uuid:a1086e4d-e2ed-4d87-a251-8b18173a6075"
                  },
                  {
                    "reference": "urn:uuid:dd59033b-1e25-4465-88bb-e25fb1f2d1a8"
                  },
                  {
                    "reference": "urn:uuid:489103df-a243-4ca8-ab00-49e89bcf3d46"
                  },
                  {
                    "reference": "urn:uuid:0153bc91-58ff-4fbb-9996-3690207c1323"
                  },
                  {
                    "reference": "urn:uuid:7478392b-6c25-4139-8ccf-ef1fb452e0da"
                  }
                ],
                "text": {
                  "status": "generated",
                  "div": "<div xmlns=\"http://www.w3.org/1999/xhtml\"><h3>Chemistry</h3><table class=\"hl7__eu__lab__report\"><thead><tr><th>Test</th><th>02-JUN-2022</th><th>Reference&#xA0;Range</th><th>Unit</th></tr></thead><tbody><tr><td>Glucose [Mass/volume] in Serum or Plasma</td><td>74.2</td><td>70 - 139</td><td>mg/dL</td></tr><tr><td>Urea nitrogen [Mass/volume] in Serum or Plasma</td><td>14.5</td><td>7 - 20</td><td>mg/dL</td></tr><tr><td>Creatinine [Mass/volume] in Serum or Plasma</td><td><strong>2.0 H</strong></td><td>0.6 - 1.1</td><td>mg/dL</td></tr><tr><td>Calcium [Mass/volume] in Serum or Plasma</td><td>10.1</td><td>8.5 - 10.4</td><td>mg/dL</td></tr><tr><td>Sodium [Moles/volume] in Serum or Plasma</td><td>142.4</td><td>135 - 145</td><td>mmol/L</td></tr><tr><td>Potassium [Moles/volume] in Serum or Plasma</td><td>4.3</td><td>3.5 - 5.1</td><td>mmol/L</td></tr><tr><td>Chloride [Moles/volume] in Serum or Plasma</td><td>107.1</td><td>98 - 110</td><td>mmol/L</td></tr><tr><td>Carbon dioxide, total [Moles/volume] in Serum or Plasma</td><td><strong>20.5 L</strong></td><td>22 - 32</td><td>mmol/L</td></tr><tr><td>Ketones [Presence] in Urine by Test strip</td><td>Urine ketone test = +</td><td></td><td></td></tr><tr><td>Hemoglobin A1c/Hemoglobin.total in Blood</td><td><strong>3.0 L</strong></td><td>4 - 6</td><td>%</td></tr><tr><td>Glucose [Mass/volume] in Blood</td><td>74.2</td><td>70 - 100</td><td>mg/dL</td></tr><tr><td>Urea nitrogen [Mass/volume] in Blood</td><td>14.5</td><td>7 - 20</td><td>mg/dL</td></tr><tr><td>Creatinine [Mass/volume] in Blood</td><td>1.3</td><td>0.6 - 1.3</td><td>mg/dL</td></tr><tr><td>Calcium [Mass/volume] in Blood</td><td>10.1</td><td>8.6 - 10.4</td><td>mg/dL</td></tr><tr><td>Sodium [Moles/volume] in Blood</td><td>142.4</td><td>135 - 145</td><td>mmol/L</td></tr><tr><td>Potassium [Moles/volume] in Blood</td><td>4.3</td><td>3.5 - 5.1</td><td>mmol/L</td></tr><tr><td>Chloride [Moles/volume] in Blood</td><td>107.1</td><td>98 - 110</td><td>mmol/L</td></tr><tr><td>Carbon dioxide, total [Moles/volume] in Blood</td><td><strong>20.5 L</strong></td><td>22 - 29</td><td>mmol/L</td></tr></tbody></table></div>"
                },
                "title": "Chemistry"
              },
              {
                "code": {
                  "coding": [
                    {
                      "code": "$18729-4",
                      "system": "http://loinc.org",
                      "display": "Urinalysis studies (set)"
                    }
                  ],
                  "text": "Urinalysis"
                },
                "entry": [
                  {
                    "reference": "urn:uuid:55d94199-d525-48c3-a2fd-54da4095c775"
                  },
                  {
                    "reference": "urn:uuid:a6f5ea62-ae18-4d58-8425-cfb052a5d9ac"
                  },
                  {
                    "reference": "urn:uuid:043056b9-9b5a-4b76-b968-9654a9c19570"
                  },
                  {
                    "reference": "urn:uuid:8f0fda05-e63c-4df7-a111-a4df9b8ecf25"
                  },
                  {
                    "reference": "urn:uuid:3f93235f-baf1-40b5-ad6e-041cc21c2f7d"
                  },
                  {
                    "reference": "urn:uuid:750fcba3-5f41-419d-93bb-849b4f56a382"
                  },
                  {
                    "reference": "urn:uuid:5aa202e4-1ca0-4f40-9b79-597da2a591c9"
                  },
                  {
                    "reference": "urn:uuid:3abf8a25-09c3-4d54-b87c-0113a810f96a"
                  },
                  {
                    "reference": "urn:uuid:e65c4c87-1068-44dc-b329-ea7c7817f3bf"
                  },
                  {
                    "reference": "urn:uuid:79746de3-ed39-4232-8f60-33d6208b3b0a"
                  },
                  {
                    "reference": "urn:uuid:f9113d90-d832-4d71-b346-22e57cb8645c"
                  },
                  {
                    "reference": "urn:uuid:4caef74a-9a1d-4748-9574-44bb1e5f63ce"
                  }
                ],
                "text": {
                  "status": "generated",
                  "div": "<div xmlns=\"http://www.w3.org/1999/xhtml\"><h3>Urinalysis</h3><table class=\"hl7__eu__lab__report\"><thead><tr><th>Test</th><th>02-JUN-2022</th><th>Reference&#xA0;Range</th><th>Unit</th></tr></thead><tbody><tr><td>Glucose [Mass/volume] in Urine by Test strip</td><td><strong>1.9 H</strong></td><td>0 - 0</td><td>mg/dL</td></tr><tr><td>Glucose [Presence] in Urine by Test strip</td><td>++</td><td></td><td></td></tr><tr><td>Bilirubin.total [Mass/volume] in Urine by Test strip</td><td>1.3</td><td>0 - 1.6</td><td>mg/dL</td></tr><tr><td>Bilirubin.total [Presence] in Urine by Test strip</td><td>Finding of bilirubin in urine</td><td></td><td></td></tr><tr><td>Ketones [Mass/volume] in Urine by Test strip</td><td><strong>2.4 H</strong></td><td>0 - 0.5</td><td>mg/dL</td></tr><tr><td>Specific gravity of Urine by Test strip</td><td><strong>1.0 L</strong></td><td>1.005 - 1.03</td><td>{nominal}</td></tr><tr><td>pH of Urine by Test strip</td><td>5.3</td><td>4.5 - 7.5</td><td>pH</td></tr><tr><td>Protein [Mass/volume] in Urine by Test strip</td><td><strong>152.6 H</strong></td><td>0 - 15</td><td>mg/dL</td></tr><tr><td>Protein [Presence] in Urine by Test strip</td><td>Urine protein test = ++</td><td></td><td></td></tr><tr><td>Nitrite [Presence] in Urine by Test strip</td><td>Urine nitrite negative</td><td></td><td></td></tr><tr><td>Hemoglobin [Presence] in Urine by Test strip</td><td>Urine blood test = negative</td><td></td><td></td></tr><tr><td>Leukocyte esterase [Presence] in Urine by Test strip</td><td>Urine leukocyte test negative</td><td></td><td></td></tr></tbody></table></div>"
                },
                "title": "Urinalysis"
              },
              {
                "code": {
                  "coding": [
                    {
                      "code": "$LP7846-1",
                      "system": "http://loinc.org",
                      "display": "Specimen information"
                    }
                  ],
                  "text": "Specimen information"
                },
                "entry": [
                  {
                    "reference": "urn:uuid:b1e3c9a2-11c8-44db-912e-f016ce3a15fb"
                  },
                  {
                    "reference": "urn:uuid:81ba013b-f050-4a1c-b4e6-9770d546846b"
                  },
                  {
                    "reference": "urn:uuid:7fd93fa0-e5f9-489c-9c12-1c94676ea933"
                  },
                  {
                    "reference": "urn:uuid:2016acde-0481-4d49-9beb-f26567bfd66c"
                  }
                ],
                "text": {
                  "status": "generated",
                  "div": "<div xmlns=\"http://www.w3.org/1999/xhtml\"><h3>Specimen information</h3><table class=\"hl7__eu__lab__report\"><thead><tr><th>Test</th><th>02-JUN-2022</th><th>Specimen</th><th></th></tr></thead><tbody><tr><td>Appearance of Urine</td><td>Cloudy urine</td><td>Urine</td><td></td></tr><tr><td>Odor of Urine</td><td>Urine smell ammoniacal</td><td>Urine</td><td></td></tr><tr><td>Clarity of Urine</td><td>Translucent</td><td>Urine</td><td></td></tr><tr><td>Color of Urine</td><td>Brown color</td><td>Urine</td><td></td></tr></tbody></table></div>"
                },
                "title": "Specimen information"
              }
            ],
            "title": "Laboratory Report"
          },
          {
            "text": {
              "status": "generated",
              "div": "<div xmlns=\"http://www.w3.org/1999/xhtml\"><h3>Annotation</h3><table class=\"hl7__eu__lab__report\"><tr><th>Conclusion and Recommendations based on this report and previous findings known to us</th></tr><tr><td>The patient shows elevated serum creatinine, low total CO₂, and significant proteinuria, glycosuria, and ketonuria, with abnormal urine appearance (cloudy, brown, ammoniacal). These findings suggest impaired renal function, possible metabolic acidosis, and abnormal urinary losses. Low HbA1c and normal blood glucose argue against chronic hyperglycemia. Recommend further nephrological evaluation and assessment for acute or chronic kidney disease and possible tubular dysfunction.</td></tr></table></div>"
            },
            "code": {
              "coding": [
                {
                  "system": "http://loinc.org",
                  "code": "48767-8",
                  "display": "Annotation comment"
                }
              ]
            },
            "title": "Annotation comment"
          }
        ],
        "status": "final",
        "subject": {
          "reference": "urn:uuid:e13f5ff9-feab-4442-be34-1c42ddbe691e",
          "display": "Molly Jenkins"
        },
        "date": "2022-06-02T16:42:11Z",
        "title": "Laboratory Report",
        "confidentiality": "N"
      }
    },
    {
      "fullUrl": "urn:uuid:62a5bad7-fdb6-46dc-839e-bfad89f4c606",
      "resource": {
        "resourceType": "DiagnosticReport",
        "id": "62a5bad7-fdb6-46dc-839e-bfad89f4c606",
        "meta": {
          "profile": [
            "http://hl7.eu/fhir/laboratory/StructureDefinition/DiagnosticReport-eu-lab"
          ]
        },
        "identifier": [
          {
            "assigner": {
              "display": "HL7 Europe"
            },
            "system": "urn:oid:2.16.840.1.113883.2.51.999",
            "value": "0a0116b2-4e51-4945-b2eb-0f18462a8e1a"
          }
        ],
        "extension": [
          {
            "url": "http://hl7.org/fhir/5.0/StructureDefinition/extension-DiagnosticReport.composition",
            "valueReference": {
              "reference": "urn:uuid:58b7c5a7-b7af-4b24-b554-cd162592ab51"
            }
          }
        ],
        "category": [
          {
            "coding": [
              {
                "code": "26436-6",
                "system": "http://loinc.org",
                "display": "Laboratory studies (set)"
              }
            ]
          }
        ],
        "specimen": [
          {
            "reference": "urn:uuid:c6ab01b5-fc00-4f28-8a90-8428176f690f"
          },
          {
            "reference": "urn:uuid:df59d451-6d1c-4771-8e11-5c546294430c"
          },
          {
            "reference": "urn:uuid:27f221a2-cfff-4cf3-8968-468cd59a5784"
          }
        ],
        "result": [
          {
            "reference": "urn:uuid:9775f63e-cb59-4c87-bf05-ee54986bed7f"
          },
          {
            "reference": "urn:uuid:fa0c3dcd-d3e0-4c98-85e6-83c5e28cf7e3"
          },
          {
            "reference": "urn:uuid:28b1a8d9-4f49-41cc-86c4-a365f6d47c55"
          },
          {
            "reference": "urn:uuid:68effec2-6823-44ac-b2ff-e8363f3978cf"
          },
          {
            "reference": "urn:uuid:bd7dd318-bef0-4edd-9eff-0aa25d3f70a0"
          },
          {
            "reference": "urn:uuid:465767db-e270-45c1-ba77-4128049072c5"
          },
          {
            "reference": "urn:uuid:27cc86cc-4434-4ef7-8a40-548926286c4f"
          },
          {
            "reference": "urn:uuid:db8ddfac-fee8-4c33-b6b5-d3320f1d5cd2"
          },
          {
            "reference": "urn:uuid:b1e3c9a2-11c8-44db-912e-f016ce3a15fb"
          },
          {
            "reference": "urn:uuid:81ba013b-f050-4a1c-b4e6-9770d546846b"
          },
          {
            "reference": "urn:uuid:7fd93fa0-e5f9-489c-9c12-1c94676ea933"
          },
          {
            "reference": "urn:uuid:2016acde-0481-4d49-9beb-f26567bfd66c"
          },
          {
            "reference": "urn:uuid:55d94199-d525-48c3-a2fd-54da4095c775"
          },
          {
            "reference": "urn:uuid:a6f5ea62-ae18-4d58-8425-cfb052a5d9ac"
          },
          {
            "reference": "urn:uuid:043056b9-9b5a-4b76-b968-9654a9c19570"
          },
          {
            "reference": "urn:uuid:8f0fda05-e63c-4df7-a111-a4df9b8ecf25"
          },
          {
            "reference": "urn:uuid:3f93235f-baf1-40b5-ad6e-041cc21c2f7d"
          },
          {
            "reference": "urn:uuid:5806034f-d1bd-4fa0-911b-fac9e1160755"
          },
          {
            "reference": "urn:uuid:750fcba3-5f41-419d-93bb-849b4f56a382"
          },
          {
            "reference": "urn:uuid:5aa202e4-1ca0-4f40-9b79-597da2a591c9"
          },
          {
            "reference": "urn:uuid:3abf8a25-09c3-4d54-b87c-0113a810f96a"
          },
          {
            "reference": "urn:uuid:e65c4c87-1068-44dc-b329-ea7c7817f3bf"
          },
          {
            "reference": "urn:uuid:79746de3-ed39-4232-8f60-33d6208b3b0a"
          },
          {
            "reference": "urn:uuid:f9113d90-d832-4d71-b346-22e57cb8645c"
          },
          {
            "reference": "urn:uuid:4caef74a-9a1d-4748-9574-44bb1e5f63ce"
          },
          {
            "reference": "urn:uuid:090364bf-76b6-458c-a079-fea23dcfa7a5"
          },
          {
            "reference": "urn:uuid:012632ab-b439-44a6-afa1-cda6fa1424e6"
          },
          {
            "reference": "urn:uuid:35b95222-7137-495c-9b92-900a78e94014"
          },
          {
            "reference": "urn:uuid:de888db7-dae4-4118-83a8-5b52dc6788bd"
          },
          {
            "reference": "urn:uuid:a1086e4d-e2ed-4d87-a251-8b18173a6075"
          },
          {
            "reference": "urn:uuid:dd59033b-1e25-4465-88bb-e25fb1f2d1a8"
          },
          {
            "reference": "urn:uuid:489103df-a243-4ca8-ab00-49e89bcf3d46"
          },
          {
            "reference": "urn:uuid:0153bc91-58ff-4fbb-9996-3690207c1323"
          },
          {
            "reference": "urn:uuid:7478392b-6c25-4139-8ccf-ef1fb452e0da"
          }
        ],
        "status": "registered",
        "code": {
          "coding": [
            {
              "code": "11502-2",
              "system": "http://loinc.org",
              "display": "Laboratory report"
            }
          ]
        },
        "subject": {
          "reference": "urn:uuid:e13f5ff9-feab-4442-be34-1c42ddbe691e",
          "display": "Molly Jenkins"
        }
      }
    },
    {
      "fullUrl": "urn:uuid:e13f5ff9-feab-4442-be34-1c42ddbe691e",
      "resource": {
        "resourceType": "Patient",
        "id": "e13f5ff9-feab-4442-be34-1c42ddbe691e",
        "meta": {
          "security": [
            {
              "system": "http://terminology.hl7.org/CodeSystem/v3-ActReason",
              "code": "HTEST"
            },
            {
              "system": "http://terminology.hl7.org/CodeSystem/v3-ActReason",
              "code": "TRAIN"
            }
          ],
          "tag": [
            {
              "system": "https://synderai.net/fhir/CodeSystem/tags",
              "code": "synthetic",
              "display": "SYNDERAI Synthetic data"
            }
          ],
          "profile": [
            "http://hl7.eu/fhir/base/StructureDefinition/patient-eu-core"
          ]
        },
        "identifier": [
          {
            "type": {
              "coding": [
                {
                  "code": "PT",
                  "system": "http://terminology.hl7.org/CodeSystem/v2-0203"
                }
              ]
            },
            "system": "http://ec.europa.eu/identifier/eci",
            "value": "7634-012682-0"
          },
          {
            "type": {
              "coding": [
                {
                  "code": "MR",
                  "system": "http://terminology.hl7.org/CodeSystem/v2-0203"
                }
              ]
            },
            "system": "http://local.setting.eu/identifier",
            "value": "9934a8eb-b6e1-34e1-edf5-57a0262d1bea"
          }
        ],
        "name": [
          {
            "family": "Jenkins"
          },
          {
            "given": [
              "Molly"
            ]
          },
          {
            "text": "Molly Jenkins"
          }
        ],
        "address": [
          {
            "line": [
              "98 Ali field"
            ],
            "use": "home",
            "type": "physical",
            "postalCode": "AB42",
            "city": "Port Jennamouth",
            "country": "United Kingdom"
          }
        ],
        "telecom": [
          {
            "system": "phone",
            "value": "(0118) 496 0334"
          }
        ],
        "extension": [
          {
            "url": "http://hl7.org/fhir/StructureDefinition/patient-nationality",
            "valueCodeableConcept": {
              "coding": [
                {
                  "code": "GB",
                  "system": "http://hl7.org/fhir/ValueSet/country"
                }
              ]
            }
          }
        ],
        "text": {
          "status": "generated",
          "div": "<div xmlns=\"http://www.w3.org/1999/xhtml\"><table class=\"hl7__ips\"><tr><td>Molly Jenkins</td><td>female</td><td>14-Aug-1967</td></tr></table></div>"
        },
        "gender": "female",
        "birthDate": "1967-08-14"
      }
    },
    {
      "fullUrl": "urn:uuid:0b72b515-ed80-46ca-b226-ab4b636e83bd",
      "resource": {
        "resourceType": "ServiceRequest",
        "id": "0b72b515-ed80-46ca-b226-ab4b636e83bd",
        "meta": {
          "profile": [
            "http://hl7.eu/fhir/laboratory/StructureDefinition/ServiceRequest-eu-lab"
          ]
        },
        "identifier": [
          {
            "system": "http://example.org",
            "value": "6f269e9d-9b8d-4cac-8648-4f8c469070f9"
          }
        ],
        "specimen": [
          {
            "reference": "urn:uuid:c6ab01b5-fc00-4f28-8a90-8428176f690f"
          },
          {
            "reference": "urn:uuid:df59d451-6d1c-4771-8e11-5c546294430c"
          },
          {
            "reference": "urn:uuid:27f221a2-cfff-4cf3-8968-468cd59a5784"
          }
        ],
        "reasonCode": [
          {
            "coding": [
              {
                "code": "431856006",
                "system": "http://snomed.info/sct",
                "display": "Chronic kidney disease stage 2"
              }
            ]
          },
          {
            "coding": [
              {
                "code": "90781000119102",
                "system": "http://snomed.info/sct",
                "display": "Microalbuminuria due to type 2 diabetes mellitus"
              }
            ]
          },
          {
            "coding": [
              {
                "code": "127013003",
                "system": "http://snomed.info/sct",
                "display": "Disorder of kidney due to diabetes mellitus"
              }
            ]
          },
          {
            "coding": [
              {
                "code": "431855005",
                "system": "http://snomed.info/sct",
                "display": "Chronic kidney disease stage 1"
              }
            ]
          },
          {
            "coding": [
              {
                "code": "15777000",
                "system": "http://snomed.info/sct",
                "display": "Prediabetes"
              }
            ]
          },
          {
            "coding": [
              {
                "code": "59621000",
                "system": "http://snomed.info/sct",
                "display": "Essential hypertension"
              }
            ]
          },
          {
            "coding": [
              {
                "code": "53827007",
                "system": "http://snomed.info/sct",
                "display": "Excessive salivation"
              }
            ]
          },
          {
            "coding": [
              {
                "code": "64859006",
                "system": "http://snomed.info/sct",
                "display": "Osteoporosis"
              }
            ]
          },
          {
            "coding": [
              {
                "code": "128188000",
                "system": "http://snomed.info/sct",
                "display": "Cerebral palsy"
              }
            ]
          },
          {
            "coding": [
              {
                "code": "235595009",
                "system": "http://snomed.info/sct",
                "display": "Gastroesophageal reflux disease"
              }
            ]
          }
        ],
        "status": "active",
        "intent": "order",
        "code": {
          "coding": [
            {
              "code": "108252007",
              "system": "http://snomed.info/sct",
              "display": "Laboratory procedure"
            }
          ]
        },
        "subject": {
          "reference": "urn:uuid:e13f5ff9-feab-4442-be34-1c42ddbe691e",
          "display": "Molly Jenkins"
        },
        "requester": {
          "reference": "urn:uuid:a60f9cd9-5eb8-4deb-9855-b826661ab3ab"
        }
      }
    },
    {
      "fullUrl": "urn:uuid:a60f9cd9-5eb8-4deb-9855-b826661ab3ab",
      "resource": {
        "resourceType": "PractitionerRole",
        "id": "a60f9cd9-5eb8-4deb-9855-b826661ab3ab",
        "meta": {
          "profile": [
            "http://hl7.eu/fhir/base/StructureDefinition/practitionerRole-eu"
          ]
        },
        "text": {
          "status": "generated",
          "div": "<div xmlns=\"http://www.w3.org/1999/xhtml\">Provider Role Id: a60f9cd9-5eb8-4deb-9855-b826661ab3ab</div>"
        },
        "organization": {
          "reference": "urn:uuid:d6744cfe-e0d1-434c-ad90-57d857cb9fd1"
        }
      }
    },
    {
      "fullUrl": "urn:uuid:d6744cfe-e0d1-434c-ad90-57d857cb9fd1",
      "resource": {
        "resourceType": "Organization",
        "id": "d6744cfe-e0d1-434c-ad90-57d857cb9fd1",
        "meta": {
          "profile": [
            "http://hl7.eu/fhir/base/StructureDefinition/organization-eu"
          ]
        },
        "identifier": [
          {
            "assigner": {
              "display": "HL7 Europe"
            },
            "system": "urn:oid:2.16.840.1.113883.2.51.999",
            "value": "964b51d5-a494-49c4-ace9-d2a94348a0f6"
          }
        ],
        "address": [
          {
            "city": "Aberdeen",
            "postalCode": "AB11 6",
            "country": "United Kingdom"
          }
        ],
        "text": {
          "status": "generated",
          "div": "<div xmlns=\"http://www.w3.org/1999/xhtml\">Provider Organization: Aberdeen Community Health and Care Village</div>"
        },
        "name": "Aberdeen Community Health and Care Village"
      }
    },
    {
      "fullUrl": "urn:uuid:c6ab01b5-fc00-4f28-8a90-8428176f690f",
      "resource": {
        "resourceType": "Specimen",
        "id": "c6ab01b5-fc00-4f28-8a90-8428176f690f",
        "meta": {
          "profile": [
            "http://hl7.eu/fhir/laboratory/StructureDefinition/Specimen-eu-lab"
          ]
        },
        "collection": {
          "collectedDateTime": "2022-06-02"
        },
        "text": {
          "status": "generated",
          "div": "<div xmlns=\"http://www.w3.org/1999/xhtml\"><table class=\"hl7__eu__lab__report\"><tr><th>Specimen</th><th>Collection Date</th></tr><tr><td>Acellular blood (serum or plasma) specimen</td><td><span class=\"nb\">02-Jun-2022</span></td></tr></table></div>"
        },
        "type": {
          "coding": [
            {
              "code": "122592007",
              "system": "http://snomed.info/sct",
              "display": "Acellular blood (serum or plasma) specimen"
            }
          ]
        }
      }
    },
    {
      "fullUrl": "urn:uuid:df59d451-6d1c-4771-8e11-5c546294430c",
      "resource": {
        "resourceType": "Specimen",
        "id": "df59d451-6d1c-4771-8e11-5c546294430c",
        "meta": {
          "profile": [
            "http://hl7.eu/fhir/laboratory/StructureDefinition/Specimen-eu-lab"
          ]
        },
        "collection": {
          "collectedDateTime": "2022-06-02"
        },
        "text": {
          "status": "generated",
          "div": "<div xmlns=\"http://www.w3.org/1999/xhtml\"><table class=\"hl7__eu__lab__report\"><tr><th>Specimen</th><th>Collection Date</th></tr><tr><td>Urine specimen</td><td><span class=\"nb\">02-Jun-2022</span></td></tr></table></div>"
        },
        "type": {
          "coding": [
            {
              "code": "122575003",
              "system": "http://snomed.info/sct",
              "display": "Urine specimen"
            }
          ]
        }
      }
    },
    {
      "fullUrl": "urn:uuid:27f221a2-cfff-4cf3-8968-468cd59a5784",
      "resource": {
        "resourceType": "Specimen",
        "id": "27f221a2-cfff-4cf3-8968-468cd59a5784",
        "meta": {
          "profile": [
            "http://hl7.eu/fhir/laboratory/StructureDefinition/Specimen-eu-lab"
          ]
        },
        "collection": {
          "collectedDateTime": "2022-06-02"
        },
        "text": {
          "status": "generated",
          "div": "<div xmlns=\"http://www.w3.org/1999/xhtml\"><table class=\"hl7__eu__lab__report\"><tr><th>Specimen</th><th>Collection Date</th></tr><tr><td>Whole blood specimen (specimen)</td><td><span class=\"nb\">02-Jun-2022</span></td></tr></table></div>"
        },
        "type": {
          "coding": [
            {
              "code": "258580003",
              "system": "http://snomed.info/sct",
              "display": "Whole blood specimen (specimen)"
            }
          ]
        }
      }
    },
    {
      "fullUrl": "urn:uuid:9775f63e-cb59-4c87-bf05-ee54986bed7f",
      "resource": {
        "resourceType": "Observation",
        "id": "9775f63e-cb59-4c87-bf05-ee54986bed7f",
        "meta": {
          "profile": [
            "http://hl7.eu/fhir/laboratory/StructureDefinition/Observation-resultslab-eu-lab"
          ]
        },
        "performer": [
          {
            "display": "The Central European Lab"
          }
        ],
        "category": [
          {
            "coding": [
              {
                "system": "http://terminology.hl7.org/CodeSystem/observation-category",
                "code": "laboratory"
              }
            ]
          }
        ],
        "code": {
          "coding": [
            {
              "code": "2345-7",
              "system": "http://loinc.org",
              "display": "Glucose [Mass/volume] in Serum or Plasma"
            }
          ],
          "text": "Glucose [Mass/volume] in Serum or Plasma"
        },
        "valueQuantity": {
          "system": "http://unitsofmeasure.org",
          "value": 74.2,
          "unit": "mg/dL",
          "code": "mg/dL"
        },
        "referenceRange": [
          {
            "low": {
              "value": 70,
              "code": "mg/dL",
              "system": "http://unitsofmeasure.org"
            }
          },
          {
            "high": {
              "value": 139,
              "code": "mg/dL",
              "system": "http://unitsofmeasure.org"
            }
          }
        ],
        "text": {
          "status": "generated",
          "div": "<div xmlns=\"http://www.w3.org/1999/xhtml\"><table class=\"hl7__eu__lab__report\"><tr><th>Test</th><th>02-Jun-2022</th><th>Reference&#xA0;Range</th><th>Unit</th></tr><tr><td>Glucose [Mass/volume] in Serum or Plasma</td><td>74.2</td><td>70 - 139</td><td></td><td>mg/dL</td></tr></table></div>"
        },
        "status": "final",
        "subject": {
          "reference": "urn:uuid:e13f5ff9-feab-4442-be34-1c42ddbe691e",
          "display": "Molly Jenkins"
        },
        "effectiveDateTime": "2022-06-02T14:42:11Z",
        "specimen": {
          "reference": "urn:uuid:c6ab01b5-fc00-4f28-8a90-8428176f690f"
        }
      }
    },
    {
      "fullUrl": "urn:uuid:fa0c3dcd-d3e0-4c98-85e6-83c5e28cf7e3",
      "resource": {
        "resourceType": "Observation",
        "id": "fa0c3dcd-d3e0-4c98-85e6-83c5e28cf7e3",
        "meta": {
          "profile": [
            "http://hl7.eu/fhir/laboratory/StructureDefinition/Observation-resultslab-eu-lab"
          ]
        },
        "performer": [
          {
            "display": "The Central European Lab"
          }
        ],
        "category": [
          {
            "coding": [
              {
                "system": "http://terminology.hl7.org/CodeSystem/observation-category",
                "code": "laboratory"
              }
            ]
          }
        ],
        "code": {
          "coding": [
            {
              "code": "3094-0",
              "system": "http://loinc.org",
              "display": "Urea nitrogen [Mass/volume] in Serum or Plasma"
            }
          ],
          "text": "Urea nitrogen [Mass/volume] in Serum or Plasma"
        },
        "valueQuantity": {
          "system": "http://unitsofmeasure.org",
          "value": 14.5,
          "unit": "mg/dL",
          "code": "mg/dL"
        },
        "referenceRange": [
          {
            "low": {
              "value": 7,
              "code": "mg/dL",
              "system": "http://unitsofmeasure.org"
            }
          },
          {
            "high": {
              "value": 20,
              "code": "mg/dL",
              "system": "http://unitsofmeasure.org"
            }
          }
        ],
        "text": {
          "status": "generated",
          "div": "<div xmlns=\"http://www.w3.org/1999/xhtml\"><table class=\"hl7__eu__lab__report\"><tr><th>Test</th><th>02-Jun-2022</th><th>Reference&#xA0;Range</th><th>Unit</th></tr><tr><td>Urea nitrogen [Mass/volume] in Serum or Plasma</td><td>14.5</td><td>7 - 20</td><td></td><td>mg/dL</td></tr></table></div>"
        },
        "status": "final",
        "subject": {
          "reference": "urn:uuid:e13f5ff9-feab-4442-be34-1c42ddbe691e",
          "display": "Molly Jenkins"
        },
        "effectiveDateTime": "2022-06-02T14:42:11Z",
        "specimen": {
          "reference": "urn:uuid:c6ab01b5-fc00-4f28-8a90-8428176f690f"
        }
      }
    },
    {
      "fullUrl": "urn:uuid:28b1a8d9-4f49-41cc-86c4-a365f6d47c55",
      "resource": {
        "resourceType": "Observation",
        "id": "28b1a8d9-4f49-41cc-86c4-a365f6d47c55",
        "meta": {
          "profile": [
            "http://hl7.eu/fhir/laboratory/StructureDefinition/Observation-resultslab-eu-lab"
          ]
        },
        "performer": [
          {
            "display": "The Central European Lab"
          }
        ],
        "category": [
          {
            "coding": [
              {
                "system": "http://terminology.hl7.org/CodeSystem/observation-category",
                "code": "laboratory"
              }
            ]
          }
        ],
        "code": {
          "coding": [
            {
              "code": "2160-0",
              "system": "http://loinc.org",
              "display": "Creatinine [Mass/volume] in Serum or Plasma"
            }
          ],
          "text": "Creatinine [Mass/volume] in Serum or Plasma"
        },
        "valueQuantity": {
          "system": "http://unitsofmeasure.org",
          "value": 2,
          "unit": "mg/dL",
          "code": "mg/dL"
        },
        "referenceRange": [
          {
            "low": {
              "value": 0.6,
              "code": "mg/dL",
              "system": "http://unitsofmeasure.org"
            }
          },
          {
            "high": {
              "value": 1.1,
              "code": "mg/dL",
              "system": "http://unitsofmeasure.org"
            }
          }
        ],
        "interpretation": [
          {
            "coding": [
              {
                "code": "H",
                "system": "http://terminology.hl7.org/CodeSystem/v3-ObservationInterpretation",
                "display": "High"
              }
            ]
          }
        ],
        "text": {
          "status": "generated",
          "div": "<div xmlns=\"http://www.w3.org/1999/xhtml\"><table class=\"hl7__eu__lab__report\"><tr><th>Test</th><th>02-Jun-2022</th><th>Reference&#xA0;Range</th><th>Unit</th></tr><tr><td>Creatinine [Mass/volume] in Serum or Plasma</td><td>2.0</td><td>0.6 - 1.1</td><td>H</td><td>mg/dL</td></tr></table></div>"
        },
        "status": "final",
        "subject": {
          "reference": "urn:uuid:e13f5ff9-feab-4442-be34-1c42ddbe691e",
          "display": "Molly Jenkins"
        },
        "effectiveDateTime": "2022-06-02T14:42:11Z",
        "specimen": {
          "reference": "urn:uuid:c6ab01b5-fc00-4f28-8a90-8428176f690f"
        }
      }
    },
    {
      "fullUrl": "urn:uuid:68effec2-6823-44ac-b2ff-e8363f3978cf",
      "resource": {
        "resourceType": "Observation",
        "id": "68effec2-6823-44ac-b2ff-e8363f3978cf",
        "meta": {
          "profile": [
            "http://hl7.eu/fhir/laboratory/StructureDefinition/Observation-resultslab-eu-lab"
          ]
        },
        "performer": [
          {
            "display": "The Central European Lab"
          }
        ],
        "category": [
          {
            "coding": [
              {
                "system": "http://terminology.hl7.org/CodeSystem/observation-category",
                "code": "laboratory"
              }
            ]
          }
        ],
        "code": {
          "coding": [
            {
              "code": "17861-6",
              "system": "http://loinc.org",
              "display": "Calcium [Mass/volume] in Serum or Plasma"
            }
          ],
          "text": "Calcium [Mass/volume] in Serum or Plasma"
        },
        "valueQuantity": {
          "system": "http://unitsofmeasure.org",
          "value": 10.1,
          "unit": "mg/dL",
          "code": "mg/dL"
        },
        "referenceRange": [
          {
            "low": {
              "value": 8.5,
              "code": "mg/dL",
              "system": "http://unitsofmeasure.org"
            }
          },
          {
            "high": {
              "value": 10.4,
              "code": "mg/dL",
              "system": "http://unitsofmeasure.org"
            }
          }
        ],
        "text": {
          "status": "generated",
          "div": "<div xmlns=\"http://www.w3.org/1999/xhtml\"><table class=\"hl7__eu__lab__report\"><tr><th>Test</th><th>02-Jun-2022</th><th>Reference&#xA0;Range</th><th>Unit</th></tr><tr><td>Calcium [Mass/volume] in Serum or Plasma</td><td>10.1</td><td>8.5 - 10.4</td><td></td><td>mg/dL</td></tr></table></div>"
        },
        "status": "final",
        "subject": {
          "reference": "urn:uuid:e13f5ff9-feab-4442-be34-1c42ddbe691e",
          "display": "Molly Jenkins"
        },
        "effectiveDateTime": "2022-06-02T14:42:11Z",
        "specimen": {
          "reference": "urn:uuid:c6ab01b5-fc00-4f28-8a90-8428176f690f"
        }
      }
    },
    {
      "fullUrl": "urn:uuid:bd7dd318-bef0-4edd-9eff-0aa25d3f70a0",
      "resource": {
        "resourceType": "Observation",
        "id": "bd7dd318-bef0-4edd-9eff-0aa25d3f70a0",
        "meta": {
          "profile": [
            "http://hl7.eu/fhir/laboratory/StructureDefinition/Observation-resultslab-eu-lab"
          ]
        },
        "performer": [
          {
            "display": "The Central European Lab"
          }
        ],
        "category": [
          {
            "coding": [
              {
                "system": "http://terminology.hl7.org/CodeSystem/observation-category",
                "code": "laboratory"
              }
            ]
          }
        ],
        "code": {
          "coding": [
            {
              "code": "2951-2",
              "system": "http://loinc.org",
              "display": "Sodium [Moles/volume] in Serum or Plasma"
            }
          ],
          "text": "Sodium [Moles/volume] in Serum or Plasma"
        },
        "valueQuantity": {
          "system": "http://unitsofmeasure.org",
          "value": 142.4,
          "unit": "mmol/L",
          "code": "mmol/L"
        },
        "referenceRange": [
          {
            "low": {
              "value": 135,
              "code": "mmol/L",
              "system": "http://unitsofmeasure.org"
            }
          },
          {
            "high": {
              "value": 145,
              "code": "mmol/L",
              "system": "http://unitsofmeasure.org"
            }
          }
        ],
        "text": {
          "status": "generated",
          "div": "<div xmlns=\"http://www.w3.org/1999/xhtml\"><table class=\"hl7__eu__lab__report\"><tr><th>Test</th><th>02-Jun-2022</th><th>Reference&#xA0;Range</th><th>Unit</th></tr><tr><td>Sodium [Moles/volume] in Serum or Plasma</td><td>142.4</td><td>135 - 145</td><td></td><td>mmol/L</td></tr></table></div>"
        },
        "status": "final",
        "subject": {
          "reference": "urn:uuid:e13f5ff9-feab-4442-be34-1c42ddbe691e",
          "display": "Molly Jenkins"
        },
        "effectiveDateTime": "2022-06-02T14:42:11Z",
        "specimen": {
          "reference": "urn:uuid:c6ab01b5-fc00-4f28-8a90-8428176f690f"
        }
      }
    },
    {
      "fullUrl": "urn:uuid:465767db-e270-45c1-ba77-4128049072c5",
      "resource": {
        "resourceType": "Observation",
        "id": "465767db-e270-45c1-ba77-4128049072c5",
        "meta": {
          "profile": [
            "http://hl7.eu/fhir/laboratory/StructureDefinition/Observation-resultslab-eu-lab"
          ]
        },
        "performer": [
          {
            "display": "The Central European Lab"
          }
        ],
        "category": [
          {
            "coding": [
              {
                "system": "http://terminology.hl7.org/CodeSystem/observation-category",
                "code": "laboratory"
              }
            ]
          }
        ],
        "code": {
          "coding": [
            {
              "code": "2823-3",
              "system": "http://loinc.org",
              "display": "Potassium [Moles/volume] in Serum or Plasma"
            }
          ],
          "text": "Potassium [Moles/volume] in Serum or Plasma"
        },
        "valueQuantity": {
          "system": "http://unitsofmeasure.org",
          "value": 4.3,
          "unit": "mmol/L",
          "code": "mmol/L"
        },
        "referenceRange": [
          {
            "low": {
              "value": 3.5,
              "code": "mmol/L",
              "system": "http://unitsofmeasure.org"
            }
          },
          {
            "high": {
              "value": 5.1,
              "code": "mmol/L",
              "system": "http://unitsofmeasure.org"
            }
          }
        ],
        "text": {
          "status": "generated",
          "div": "<div xmlns=\"http://www.w3.org/1999/xhtml\"><table class=\"hl7__eu__lab__report\"><tr><th>Test</th><th>02-Jun-2022</th><th>Reference&#xA0;Range</th><th>Unit</th></tr><tr><td>Potassium [Moles/volume] in Serum or Plasma</td><td>4.3</td><td>3.5 - 5.1</td><td></td><td>mmol/L</td></tr></table></div>"
        },
        "status": "final",
        "subject": {
          "reference": "urn:uuid:e13f5ff9-feab-4442-be34-1c42ddbe691e",
          "display": "Molly Jenkins"
        },
        "effectiveDateTime": "2022-06-02T14:42:11Z",
        "specimen": {
          "reference": "urn:uuid:c6ab01b5-fc00-4f28-8a90-8428176f690f"
        }
      }
    },
    {
      "fullUrl": "urn:uuid:27cc86cc-4434-4ef7-8a40-548926286c4f",
      "resource": {
        "resourceType": "Observation",
        "id": "27cc86cc-4434-4ef7-8a40-548926286c4f",
        "meta": {
          "profile": [
            "http://hl7.eu/fhir/laboratory/StructureDefinition/Observation-resultslab-eu-lab"
          ]
        },
        "performer": [
          {
            "display": "The Central European Lab"
          }
        ],
        "category": [
          {
            "coding": [
              {
                "system": "http://terminology.hl7.org/CodeSystem/observation-category",
                "code": "laboratory"
              }
            ]
          }
        ],
        "code": {
          "coding": [
            {
              "code": "2075-0",
              "system": "http://loinc.org",
              "display": "Chloride [Moles/volume] in Serum or Plasma"
            }
          ],
          "text": "Chloride [Moles/volume] in Serum or Plasma"
        },
        "valueQuantity": {
          "system": "http://unitsofmeasure.org",
          "value": 107.1,
          "unit": "mmol/L",
          "code": "mmol/L"
        },
        "referenceRange": [
          {
            "low": {
              "value": 98,
              "code": "mmol/L",
              "system": "http://unitsofmeasure.org"
            }
          },
          {
            "high": {
              "value": 110,
              "code": "mmol/L",
              "system": "http://unitsofmeasure.org"
            }
          }
        ],
        "text": {
          "status": "generated",
          "div": "<div xmlns=\"http://www.w3.org/1999/xhtml\"><table class=\"hl7__eu__lab__report\"><tr><th>Test</th><th>02-Jun-2022</th><th>Reference&#xA0;Range</th><th>Unit</th></tr><tr><td>Chloride [Moles/volume] in Serum or Plasma</td><td>107.1</td><td>98 - 110</td><td></td><td>mmol/L</td></tr></table></div>"
        },
        "status": "final",
        "subject": {
          "reference": "urn:uuid:e13f5ff9-feab-4442-be34-1c42ddbe691e",
          "display": "Molly Jenkins"
        },
        "effectiveDateTime": "2022-06-02T14:42:11Z",
        "specimen": {
          "reference": "urn:uuid:c6ab01b5-fc00-4f28-8a90-8428176f690f"
        }
      }
    },
    {
      "fullUrl": "urn:uuid:db8ddfac-fee8-4c33-b6b5-d3320f1d5cd2",
      "resource": {
        "resourceType": "Observation",
        "id": "db8ddfac-fee8-4c33-b6b5-d3320f1d5cd2",
        "meta": {
          "profile": [
            "http://hl7.eu/fhir/laboratory/StructureDefinition/Observation-resultslab-eu-lab"
          ]
        },
        "performer": [
          {
            "display": "The Central European Lab"
          }
        ],
        "category": [
          {
            "coding": [
              {
                "system": "http://terminology.hl7.org/CodeSystem/observation-category",
                "code": "laboratory"
              }
            ]
          }
        ],
        "code": {
          "coding": [
            {
              "code": "2028-9",
              "system": "http://loinc.org",
              "display": "Carbon dioxide, total [Moles/volume] in Serum or Plasma"
            }
          ],
          "text": "Carbon dioxide, total [Moles/volume] in Serum or Plasma"
        },
        "valueQuantity": {
          "system": "http://unitsofmeasure.org",
          "value": 20.5,
          "unit": "mmol/L",
          "code": "mmol/L"
        },
        "referenceRange": [
          {
            "low": {
              "value": 22,
              "code": "mmol/L",
              "system": "http://unitsofmeasure.org"
            }
          },
          {
            "high": {
              "value": 32,
              "code": "mmol/L",
              "system": "http://unitsofmeasure.org"
            }
          }
        ],
        "interpretation": [
          {
            "coding": [
              {
                "code": "L",
                "system": "http://terminology.hl7.org/CodeSystem/v3-ObservationInterpretation",
                "display": "Low"
              }
            ]
          }
        ],
        "text": {
          "status": "generated",
          "div": "<div xmlns=\"http://www.w3.org/1999/xhtml\"><table class=\"hl7__eu__lab__report\"><tr><th>Test</th><th>02-Jun-2022</th><th>Reference&#xA0;Range</th><th>Unit</th></tr><tr><td>Carbon dioxide, total [Moles/volume] in Serum or Plasma</td><td>20.5</td><td>22 - 32</td><td>L</td><td>mmol/L</td></tr></table></div>"
        },
        "status": "final",
        "subject": {
          "reference": "urn:uuid:e13f5ff9-feab-4442-be34-1c42ddbe691e",
          "display": "Molly Jenkins"
        },
        "effectiveDateTime": "2022-06-02T14:42:11Z",
        "specimen": {
          "reference": "urn:uuid:c6ab01b5-fc00-4f28-8a90-8428176f690f"
        }
      }
    },
    {
      "fullUrl": "urn:uuid:b1e3c9a2-11c8-44db-912e-f016ce3a15fb",
      "resource": {
        "resourceType": "Observation",
        "id": "b1e3c9a2-11c8-44db-912e-f016ce3a15fb",
        "meta": {
          "profile": [
            "http://hl7.eu/fhir/laboratory/StructureDefinition/Observation-resultslab-eu-lab"
          ]
        },
        "performer": [
          {
            "display": "The Central European Lab"
          }
        ],
        "category": [
          {
            "coding": [
              {
                "system": "http://terminology.hl7.org/CodeSystem/observation-category",
                "code": "laboratory"
              }
            ]
          }
        ],
        "code": {
          "coding": [
            {
              "code": "5767-9",
              "system": "http://loinc.org",
              "display": "Appearance of Urine"
            }
          ],
          "text": "Appearance of Urine"
        },
        "text": {
          "status": "generated",
          "div": "<div xmlns=\"http://www.w3.org/1999/xhtml\"><table class=\"hl7__eu__lab__report\"><tr><th>Test</th><th>02-Jun-2022</th><th>Reference&#xA0;Range</th><th>Unit</th></tr><tr><td>Appearance of Urine</td></tr></table></div>"
        },
        "status": "final",
        "subject": {
          "reference": "urn:uuid:e13f5ff9-feab-4442-be34-1c42ddbe691e",
          "display": "Molly Jenkins"
        },
        "effectiveDateTime": "2022-06-02T14:42:11Z",
        "specimen": {
          "reference": "urn:uuid:df59d451-6d1c-4771-8e11-5c546294430c"
        }
      }
    },
    {
      "fullUrl": "urn:uuid:81ba013b-f050-4a1c-b4e6-9770d546846b",
      "resource": {
        "resourceType": "Observation",
        "id": "81ba013b-f050-4a1c-b4e6-9770d546846b",
        "meta": {
          "profile": [
            "http://hl7.eu/fhir/laboratory/StructureDefinition/Observation-resultslab-eu-lab"
          ]
        },
        "performer": [
          {
            "display": "The Central European Lab"
          }
        ],
        "category": [
          {
            "coding": [
              {
                "system": "http://terminology.hl7.org/CodeSystem/observation-category",
                "code": "laboratory"
              }
            ]
          }
        ],
        "code": {
          "coding": [
            {
              "code": "34533-0",
              "system": "http://loinc.org",
              "display": "Odor of Urine"
            }
          ],
          "text": "Odor of Urine"
        },
        "text": {
          "status": "generated",
          "div": "<div xmlns=\"http://www.w3.org/1999/xhtml\"><table class=\"hl7__eu__lab__report\"><tr><th>Test</th><th>02-Jun-2022</th><th>Reference&#xA0;Range</th><th>Unit</th></tr><tr><td>Odor of Urine</td></tr></table></div>"
        },
        "status": "final",
        "subject": {
          "reference": "urn:uuid:e13f5ff9-feab-4442-be34-1c42ddbe691e",
          "display": "Molly Jenkins"
        },
        "effectiveDateTime": "2022-06-02T14:42:11Z",
        "specimen": {
          "reference": "urn:uuid:df59d451-6d1c-4771-8e11-5c546294430c"
        }
      }
    },
    {
      "fullUrl": "urn:uuid:7fd93fa0-e5f9-489c-9c12-1c94676ea933",
      "resource": {
        "resourceType": "Observation",
        "id": "7fd93fa0-e5f9-489c-9c12-1c94676ea933",
        "meta": {
          "profile": [
            "http://hl7.eu/fhir/laboratory/StructureDefinition/Observation-resultslab-eu-lab"
          ]
        },
        "performer": [
          {
            "display": "The Central European Lab"
          }
        ],
        "category": [
          {
            "coding": [
              {
                "system": "http://terminology.hl7.org/CodeSystem/observation-category",
                "code": "laboratory"
              }
            ]
          }
        ],
        "code": {
          "coding": [
            {
              "code": "32167-9",
              "system": "http://loinc.org",
              "display": "Clarity of Urine"
            }
          ],
          "text": "Clarity of Urine"
        },
        "text": {
          "status": "generated",
          "div": "<div xmlns=\"http://www.w3.org/1999/xhtml\"><table class=\"hl7__eu__lab__report\"><tr><th>Test</th><th>02-Jun-2022</th><th>Reference&#xA0;Range</th><th>Unit</th></tr><tr><td>Clarity of Urine</td></tr></table></div>"
        },
        "status": "final",
        "subject": {
          "reference": "urn:uuid:e13f5ff9-feab-4442-be34-1c42ddbe691e",
          "display": "Molly Jenkins"
        },
        "effectiveDateTime": "2022-06-02T14:42:11Z",
        "specimen": {
          "reference": "urn:uuid:df59d451-6d1c-4771-8e11-5c546294430c"
        }
      }
    },
    {
      "fullUrl": "urn:uuid:2016acde-0481-4d49-9beb-f26567bfd66c",
      "resource": {
        "resourceType": "Observation",
        "id": "2016acde-0481-4d49-9beb-f26567bfd66c",
        "meta": {
          "profile": [
            "http://hl7.eu/fhir/laboratory/StructureDefinition/Observation-resultslab-eu-lab"
          ]
        },
        "performer": [
          {
            "display": "The Central European Lab"
          }
        ],
        "category": [
          {
            "coding": [
              {
                "system": "http://terminology.hl7.org/CodeSystem/observation-category",
                "code": "laboratory"
              }
            ]
          }
        ],
        "code": {
          "coding": [
            {
              "code": "5778-6",
              "system": "http://loinc.org",
              "display": "Color of Urine"
            }
          ],
          "text": "Color of Urine"
        },
        "text": {
          "status": "generated",
          "div": "<div xmlns=\"http://www.w3.org/1999/xhtml\"><table class=\"hl7__eu__lab__report\"><tr><th>Test</th><th>02-Jun-2022</th><th>Reference&#xA0;Range</th><th>Unit</th></tr><tr><td>Color of Urine</td></tr></table></div>"
        },
        "status": "final",
        "subject": {
          "reference": "urn:uuid:e13f5ff9-feab-4442-be34-1c42ddbe691e",
          "display": "Molly Jenkins"
        },
        "effectiveDateTime": "2022-06-02T14:42:11Z",
        "specimen": {
          "reference": "urn:uuid:df59d451-6d1c-4771-8e11-5c546294430c"
        }
      }
    },
    {
      "fullUrl": "urn:uuid:55d94199-d525-48c3-a2fd-54da4095c775",
      "resource": {
        "resourceType": "Observation",
        "id": "55d94199-d525-48c3-a2fd-54da4095c775",
        "meta": {
          "profile": [
            "http://hl7.eu/fhir/laboratory/StructureDefinition/Observation-resultslab-eu-lab"
          ]
        },
        "performer": [
          {
            "display": "The Central European Lab"
          }
        ],
        "category": [
          {
            "coding": [
              {
                "system": "http://terminology.hl7.org/CodeSystem/observation-category",
                "code": "laboratory"
              }
            ]
          }
        ],
        "code": {
          "coding": [
            {
              "code": "5792-7",
              "system": "http://loinc.org",
              "display": "Glucose [Mass/volume] in Urine by Test strip"
            }
          ],
          "text": "Glucose [Mass/volume] in Urine by Test strip"
        },
        "valueQuantity": {
          "system": "http://unitsofmeasure.org",
          "value": 1.9,
          "unit": "mg/dL",
          "code": "mg/dL"
        },
        "referenceRange": [
          {
            "low": {
              "value": 0,
              "code": "mg/dL",
              "system": "http://unitsofmeasure.org"
            }
          },
          {
            "high": {
              "value": 0,
              "code": "mg/dL",
              "system": "http://unitsofmeasure.org"
            }
          }
        ],
        "interpretation": [
          {
            "coding": [
              {
                "code": "H",
                "system": "http://terminology.hl7.org/CodeSystem/v3-ObservationInterpretation",
                "display": "High"
              }
            ]
          }
        ],
        "text": {
          "status": "generated",
          "div": "<div xmlns=\"http://www.w3.org/1999/xhtml\"><table class=\"hl7__eu__lab__report\"><tr><th>Test</th><th>02-Jun-2022</th><th>Reference&#xA0;Range</th><th>Unit</th></tr><tr><td>Glucose [Mass/volume] in Urine by Test strip</td><td>1.9</td><td>0 - 0</td><td>H</td><td>mg/dL</td></tr></table></div>"
        },
        "status": "final",
        "subject": {
          "reference": "urn:uuid:e13f5ff9-feab-4442-be34-1c42ddbe691e",
          "display": "Molly Jenkins"
        },
        "effectiveDateTime": "2022-06-02T14:42:11Z",
        "specimen": {
          "reference": "urn:uuid:df59d451-6d1c-4771-8e11-5c546294430c"
        }
      }
    },
    {
      "fullUrl": "urn:uuid:a6f5ea62-ae18-4d58-8425-cfb052a5d9ac",
      "resource": {
        "resourceType": "Observation",
        "id": "a6f5ea62-ae18-4d58-8425-cfb052a5d9ac",
        "meta": {
          "profile": [
            "http://hl7.eu/fhir/laboratory/StructureDefinition/Observation-resultslab-eu-lab"
          ]
        },
        "performer": [
          {
            "display": "The Central European Lab"
          }
        ],
        "category": [
          {
            "coding": [
              {
                "system": "http://terminology.hl7.org/CodeSystem/observation-category",
                "code": "laboratory"
              }
            ]
          }
        ],
        "code": {
          "coding": [
            {
              "code": "25428-4",
              "system": "http://loinc.org",
              "display": "Glucose [Presence] in Urine by Test strip"
            }
          ],
          "text": "Glucose [Presence] in Urine by Test strip"
        },
        "text": {
          "status": "generated",
          "div": "<div xmlns=\"http://www.w3.org/1999/xhtml\"><table class=\"hl7__eu__lab__report\"><tr><th>Test</th><th>02-Jun-2022</th><th>Reference&#xA0;Range</th><th>Unit</th></tr><tr><td>Glucose [Presence] in Urine by Test strip</td></tr></table></div>"
        },
        "status": "final",
        "subject": {
          "reference": "urn:uuid:e13f5ff9-feab-4442-be34-1c42ddbe691e",
          "display": "Molly Jenkins"
        },
        "effectiveDateTime": "2022-06-02T14:42:11Z",
        "specimen": {
          "reference": "urn:uuid:df59d451-6d1c-4771-8e11-5c546294430c"
        }
      }
    },
    {
      "fullUrl": "urn:uuid:043056b9-9b5a-4b76-b968-9654a9c19570",
      "resource": {
        "resourceType": "Observation",
        "id": "043056b9-9b5a-4b76-b968-9654a9c19570",
        "meta": {
          "profile": [
            "http://hl7.eu/fhir/laboratory/StructureDefinition/Observation-resultslab-eu-lab"
          ]
        },
        "performer": [
          {
            "display": "The Central European Lab"
          }
        ],
        "category": [
          {
            "coding": [
              {
                "system": "http://terminology.hl7.org/CodeSystem/observation-category",
                "code": "laboratory"
              }
            ]
          }
        ],
        "code": {
          "coding": [
            {
              "code": "20505-4",
              "system": "http://loinc.org",
              "display": "Bilirubin.total [Mass/volume] in Urine by Test strip"
            }
          ],
          "text": "Bilirubin.total [Mass/volume] in Urine by Test strip"
        },
        "valueQuantity": {
          "system": "http://unitsofmeasure.org",
          "value": 1.3,
          "unit": "mg/dL",
          "code": "mg/dL"
        },
        "referenceRange": [
          {
            "low": {
              "value": 0,
              "code": "mg/dL",
              "system": "http://unitsofmeasure.org"
            }
          },
          {
            "high": {
              "value": 1.6,
              "code": "mg/dL",
              "system": "http://unitsofmeasure.org"
            }
          }
        ],
        "text": {
          "status": "generated",
          "div": "<div xmlns=\"http://www.w3.org/1999/xhtml\"><table class=\"hl7__eu__lab__report\"><tr><th>Test</th><th>02-Jun-2022</th><th>Reference&#xA0;Range</th><th>Unit</th></tr><tr><td>Bilirubin.total [Mass/volume] in Urine by Test strip</td><td>1.3</td><td>0 - 1.6</td><td></td><td>mg/dL</td></tr></table></div>"
        },
        "status": "final",
        "subject": {
          "reference": "urn:uuid:e13f5ff9-feab-4442-be34-1c42ddbe691e",
          "display": "Molly Jenkins"
        },
        "effectiveDateTime": "2022-06-02T14:42:11Z",
        "specimen": {
          "reference": "urn:uuid:df59d451-6d1c-4771-8e11-5c546294430c"
        }
      }
    },
    {
      "fullUrl": "urn:uuid:8f0fda05-e63c-4df7-a111-a4df9b8ecf25",
      "resource": {
        "resourceType": "Observation",
        "id": "8f0fda05-e63c-4df7-a111-a4df9b8ecf25",
        "meta": {
          "profile": [
            "http://hl7.eu/fhir/laboratory/StructureDefinition/Observation-resultslab-eu-lab"
          ]
        },
        "performer": [
          {
            "display": "The Central European Lab"
          }
        ],
        "category": [
          {
            "coding": [
              {
                "system": "http://terminology.hl7.org/CodeSystem/observation-category",
                "code": "laboratory"
              }
            ]
          }
        ],
        "code": {
          "coding": [
            {
              "code": "5770-3",
              "system": "http://loinc.org",
              "display": "Bilirubin.total [Presence] in Urine by Test strip"
            }
          ],
          "text": "Bilirubin.total [Presence] in Urine by Test strip"
        },
        "text": {
          "status": "generated",
          "div": "<div xmlns=\"http://www.w3.org/1999/xhtml\"><table class=\"hl7__eu__lab__report\"><tr><th>Test</th><th>02-Jun-2022</th><th>Reference&#xA0;Range</th><th>Unit</th></tr><tr><td>Bilirubin.total [Presence] in Urine by Test strip</td></tr></table></div>"
        },
        "status": "final",
        "subject": {
          "reference": "urn:uuid:e13f5ff9-feab-4442-be34-1c42ddbe691e",
          "display": "Molly Jenkins"
        },
        "effectiveDateTime": "2022-06-02T14:42:11Z",
        "specimen": {
          "reference": "urn:uuid:df59d451-6d1c-4771-8e11-5c546294430c"
        }
      }
    },
    {
      "fullUrl": "urn:uuid:3f93235f-baf1-40b5-ad6e-041cc21c2f7d",
      "resource": {
        "resourceType": "Observation",
        "id": "3f93235f-baf1-40b5-ad6e-041cc21c2f7d",
        "meta": {
          "profile": [
            "http://hl7.eu/fhir/laboratory/StructureDefinition/Observation-resultslab-eu-lab"
          ]
        },
        "performer": [
          {
            "display": "The Central European Lab"
          }
        ],
        "category": [
          {
            "coding": [
              {
                "system": "http://terminology.hl7.org/CodeSystem/observation-category",
                "code": "laboratory"
              }
            ]
          }
        ],
        "code": {
          "coding": [
            {
              "code": "5797-6",
              "system": "http://loinc.org",
              "display": "Ketones [Mass/volume] in Urine by Test strip"
            }
          ],
          "text": "Ketones [Mass/volume] in Urine by Test strip"
        },
        "valueQuantity": {
          "system": "http://unitsofmeasure.org",
          "value": 2.4,
          "unit": "mg/dL",
          "code": "mg/dL"
        },
        "referenceRange": [
          {
            "low": {
              "value": 0,
              "code": "mg/dL",
              "system": "http://unitsofmeasure.org"
            }
          },
          {
            "high": {
              "value": 0.5,
              "code": "mg/dL",
              "system": "http://unitsofmeasure.org"
            }
          }
        ],
        "interpretation": [
          {
            "coding": [
              {
                "code": "H",
                "system": "http://terminology.hl7.org/CodeSystem/v3-ObservationInterpretation",
                "display": "High"
              }
            ]
          }
        ],
        "text": {
          "status": "generated",
          "div": "<div xmlns=\"http://www.w3.org/1999/xhtml\"><table class=\"hl7__eu__lab__report\"><tr><th>Test</th><th>02-Jun-2022</th><th>Reference&#xA0;Range</th><th>Unit</th></tr><tr><td>Ketones [Mass/volume] in Urine by Test strip</td><td>2.4</td><td>0 - 0.5</td><td>H</td><td>mg/dL</td></tr></table></div>"
        },
        "status": "final",
        "subject": {
          "reference": "urn:uuid:e13f5ff9-feab-4442-be34-1c42ddbe691e",
          "display": "Molly Jenkins"
        },
        "effectiveDateTime": "2022-06-02T14:42:11Z",
        "specimen": {
          "reference": "urn:uuid:df59d451-6d1c-4771-8e11-5c546294430c"
        }
      }
    },
    {
      "fullUrl": "urn:uuid:5806034f-d1bd-4fa0-911b-fac9e1160755",
      "resource": {
        "resourceType": "Observation",
        "id": "5806034f-d1bd-4fa0-911b-fac9e1160755",
        "meta": {
          "profile": [
            "http://hl7.eu/fhir/laboratory/StructureDefinition/Observation-resultslab-eu-lab"
          ]
        },
        "performer": [
          {
            "display": "The Central European Lab"
          }
        ],
        "category": [
          {
            "coding": [
              {
                "system": "http://terminology.hl7.org/CodeSystem/observation-category",
                "code": "laboratory"
              }
            ]
          }
        ],
        "code": {
          "coding": [
            {
              "code": "2514-8",
              "system": "http://loinc.org",
              "display": "Ketones [Presence] in Urine by Test strip"
            }
          ],
          "text": "Ketones [Presence] in Urine by Test strip"
        },
        "text": {
          "status": "generated",
          "div": "<div xmlns=\"http://www.w3.org/1999/xhtml\"><table class=\"hl7__eu__lab__report\"><tr><th>Test</th><th>02-Jun-2022</th><th>Reference&#xA0;Range</th><th>Unit</th></tr><tr><td>Ketones [Presence] in Urine by Test strip</td></tr></table></div>"
        },
        "status": "final",
        "subject": {
          "reference": "urn:uuid:e13f5ff9-feab-4442-be34-1c42ddbe691e",
          "display": "Molly Jenkins"
        },
        "effectiveDateTime": "2022-06-02T14:42:11Z",
        "specimen": {
          "reference": "urn:uuid:df59d451-6d1c-4771-8e11-5c546294430c"
        }
      }
    },
    {
      "fullUrl": "urn:uuid:750fcba3-5f41-419d-93bb-849b4f56a382",
      "resource": {
        "resourceType": "Observation",
        "id": "750fcba3-5f41-419d-93bb-849b4f56a382",
        "meta": {
          "profile": [
            "http://hl7.eu/fhir/laboratory/StructureDefinition/Observation-resultslab-eu-lab"
          ]
        },
        "performer": [
          {
            "display": "The Central European Lab"
          }
        ],
        "category": [
          {
            "coding": [
              {
                "system": "http://terminology.hl7.org/CodeSystem/observation-category",
                "code": "laboratory"
              }
            ]
          }
        ],
        "code": {
          "coding": [
            {
              "code": "5811-5",
              "system": "http://loinc.org",
              "display": "Specific gravity of Urine by Test strip"
            }
          ],
          "text": "Specific gravity of Urine by Test strip"
        },
        "valueQuantity": {
          "system": "http://unitsofmeasure.org",
          "value": 1,
          "unit": "{nominal}",
          "code": "{nominal}"
        },
        "referenceRange": [
          {
            "low": {
              "value": 1.005,
              "code": "g/mL",
              "system": "http://unitsofmeasure.org"
            }
          },
          {
            "high": {
              "value": 1.03,
              "code": "g/mL",
              "system": "http://unitsofmeasure.org"
            }
          }
        ],
        "interpretation": [
          {
            "coding": [
              {
                "code": "L",
                "system": "http://terminology.hl7.org/CodeSystem/v3-ObservationInterpretation",
                "display": "Low"
              }
            ]
          }
        ],
        "text": {
          "status": "generated",
          "div": "<div xmlns=\"http://www.w3.org/1999/xhtml\"><table class=\"hl7__eu__lab__report\"><tr><th>Test</th><th>02-Jun-2022</th><th>Reference&#xA0;Range</th><th>Unit</th></tr><tr><td>Specific gravity of Urine by Test strip</td><td>1.0</td><td>1.005 - 1.03</td><td>L</td><td>{nominal}</td></tr></table></div>"
        },
        "status": "final",
        "subject": {
          "reference": "urn:uuid:e13f5ff9-feab-4442-be34-1c42ddbe691e",
          "display": "Molly Jenkins"
        },
        "effectiveDateTime": "2022-06-02T14:42:11Z",
        "specimen": {
          "reference": "urn:uuid:df59d451-6d1c-4771-8e11-5c546294430c"
        }
      }
    },
    {
      "fullUrl": "urn:uuid:5aa202e4-1ca0-4f40-9b79-597da2a591c9",
      "resource": {
        "resourceType": "Observation",
        "id": "5aa202e4-1ca0-4f40-9b79-597da2a591c9",
        "meta": {
          "profile": [
            "http://hl7.eu/fhir/laboratory/StructureDefinition/Observation-resultslab-eu-lab"
          ]
        },
        "performer": [
          {
            "display": "The Central European Lab"
          }
        ],
        "category": [
          {
            "coding": [
              {
                "system": "http://terminology.hl7.org/CodeSystem/observation-category",
                "code": "laboratory"
              }
            ]
          }
        ],
        "code": {
          "coding": [
            {
              "code": "5803-2",
              "system": "http://loinc.org",
              "display": "pH of Urine by Test strip"
            }
          ],
          "text": "pH of Urine by Test strip"
        },
        "valueQuantity": {
          "system": "http://unitsofmeasure.org",
          "value": 5.3,
          "unit": "pH",
          "code": "pH"
        },
        "referenceRange": [
          {
            "low": {
              "value": 4.5,
              "code": "pH",
              "system": "http://unitsofmeasure.org"
            }
          },
          {
            "high": {
              "value": 7.5,
              "code": "pH",
              "system": "http://unitsofmeasure.org"
            }
          }
        ],
        "text": {
          "status": "generated",
          "div": "<div xmlns=\"http://www.w3.org/1999/xhtml\"><table class=\"hl7__eu__lab__report\"><tr><th>Test</th><th>02-Jun-2022</th><th>Reference&#xA0;Range</th><th>Unit</th></tr><tr><td>pH of Urine by Test strip</td><td>5.3</td><td>4.5 - 7.5</td><td></td><td>pH</td></tr></table></div>"
        },
        "status": "final",
        "subject": {
          "reference": "urn:uuid:e13f5ff9-feab-4442-be34-1c42ddbe691e",
          "display": "Molly Jenkins"
        },
        "effectiveDateTime": "2022-06-02T14:42:11Z",
        "specimen": {
          "reference": "urn:uuid:df59d451-6d1c-4771-8e11-5c546294430c"
        }
      }
    },
    {
      "fullUrl": "urn:uuid:3abf8a25-09c3-4d54-b87c-0113a810f96a",
      "resource": {
        "resourceType": "Observation",
        "id": "3abf8a25-09c3-4d54-b87c-0113a810f96a",
        "meta": {
          "profile": [
            "http://hl7.eu/fhir/laboratory/StructureDefinition/Observation-resultslab-eu-lab"
          ]
        },
        "performer": [
          {
            "display": "The Central European Lab"
          }
        ],
        "category": [
          {
            "coding": [
              {
                "system": "http://terminology.hl7.org/CodeSystem/observation-category",
                "code": "laboratory"
              }
            ]
          }
        ],
        "code": {
          "coding": [
            {
              "code": "5804-0",
              "system": "http://loinc.org",
              "display": "Protein [Mass/volume] in Urine by Test strip"
            }
          ],
          "text": "Protein [Mass/volume] in Urine by Test strip"
        },
        "valueQuantity": {
          "system": "http://unitsofmeasure.org",
          "value": 152.6,
          "unit": "mg/dL",
          "code": "mg/dL"
        },
        "referenceRange": [
          {
            "low": {
              "value": 0,
              "code": "mg/dL",
              "system": "http://unitsofmeasure.org"
            }
          },
          {
            "high": {
              "value": 15,
              "code": "mg/dL",
              "system": "http://unitsofmeasure.org"
            }
          }
        ],
        "interpretation": [
          {
            "coding": [
              {
                "code": "H",
                "system": "http://terminology.hl7.org/CodeSystem/v3-ObservationInterpretation",
                "display": "High"
              }
            ]
          }
        ],
        "text": {
          "status": "generated",
          "div": "<div xmlns=\"http://www.w3.org/1999/xhtml\"><table class=\"hl7__eu__lab__report\"><tr><th>Test</th><th>02-Jun-2022</th><th>Reference&#xA0;Range</th><th>Unit</th></tr><tr><td>Protein [Mass/volume] in Urine by Test strip</td><td>152.6</td><td>0 - 15</td><td>H</td><td>mg/dL</td></tr></table></div>"
        },
        "status": "final",
        "subject": {
          "reference": "urn:uuid:e13f5ff9-feab-4442-be34-1c42ddbe691e",
          "display": "Molly Jenkins"
        },
        "effectiveDateTime": "2022-06-02T14:42:11Z",
        "specimen": {
          "reference": "urn:uuid:df59d451-6d1c-4771-8e11-5c546294430c"
        }
      }
    },
    {
      "fullUrl": "urn:uuid:e65c4c87-1068-44dc-b329-ea7c7817f3bf",
      "resource": {
        "resourceType": "Observation",
        "id": "e65c4c87-1068-44dc-b329-ea7c7817f3bf",
        "meta": {
          "profile": [
            "http://hl7.eu/fhir/laboratory/StructureDefinition/Observation-resultslab-eu-lab"
          ]
        },
        "performer": [
          {
            "display": "The Central European Lab"
          }
        ],
        "category": [
          {
            "coding": [
              {
                "system": "http://terminology.hl7.org/CodeSystem/observation-category",
                "code": "laboratory"
              }
            ]
          }
        ],
        "code": {
          "coding": [
            {
              "code": "20454-5",
              "system": "http://loinc.org",
              "display": "Protein [Presence] in Urine by Test strip"
            }
          ],
          "text": "Protein [Presence] in Urine by Test strip"
        },
        "text": {
          "status": "generated",
          "div": "<div xmlns=\"http://www.w3.org/1999/xhtml\"><table class=\"hl7__eu__lab__report\"><tr><th>Test</th><th>02-Jun-2022</th><th>Reference&#xA0;Range</th><th>Unit</th></tr><tr><td>Protein [Presence] in Urine by Test strip</td></tr></table></div>"
        },
        "status": "final",
        "subject": {
          "reference": "urn:uuid:e13f5ff9-feab-4442-be34-1c42ddbe691e",
          "display": "Molly Jenkins"
        },
        "effectiveDateTime": "2022-06-02T14:42:11Z",
        "specimen": {
          "reference": "urn:uuid:df59d451-6d1c-4771-8e11-5c546294430c"
        }
      }
    },
    {
      "fullUrl": "urn:uuid:79746de3-ed39-4232-8f60-33d6208b3b0a",
      "resource": {
        "resourceType": "Observation",
        "id": "79746de3-ed39-4232-8f60-33d6208b3b0a",
        "meta": {
          "profile": [
            "http://hl7.eu/fhir/laboratory/StructureDefinition/Observation-resultslab-eu-lab"
          ]
        },
        "performer": [
          {
            "display": "The Central European Lab"
          }
        ],
        "category": [
          {
            "coding": [
              {
                "system": "http://terminology.hl7.org/CodeSystem/observation-category",
                "code": "laboratory"
              }
            ]
          }
        ],
        "code": {
          "coding": [
            {
              "code": "5802-4",
              "system": "http://loinc.org",
              "display": "Nitrite [Presence] in Urine by Test strip"
            }
          ],
          "text": "Nitrite [Presence] in Urine by Test strip"
        },
        "text": {
          "status": "generated",
          "div": "<div xmlns=\"http://www.w3.org/1999/xhtml\"><table class=\"hl7__eu__lab__report\"><tr><th>Test</th><th>02-Jun-2022</th><th>Reference&#xA0;Range</th><th>Unit</th></tr><tr><td>Nitrite [Presence] in Urine by Test strip</td></tr></table></div>"
        },
        "status": "final",
        "subject": {
          "reference": "urn:uuid:e13f5ff9-feab-4442-be34-1c42ddbe691e",
          "display": "Molly Jenkins"
        },
        "effectiveDateTime": "2022-06-02T14:42:11Z",
        "specimen": {
          "reference": "urn:uuid:df59d451-6d1c-4771-8e11-5c546294430c"
        }
      }
    },
    {
      "fullUrl": "urn:uuid:f9113d90-d832-4d71-b346-22e57cb8645c",
      "resource": {
        "resourceType": "Observation",
        "id": "f9113d90-d832-4d71-b346-22e57cb8645c",
        "meta": {
          "profile": [
            "http://hl7.eu/fhir/laboratory/StructureDefinition/Observation-resultslab-eu-lab"
          ]
        },
        "performer": [
          {
            "display": "The Central European Lab"
          }
        ],
        "category": [
          {
            "coding": [
              {
                "system": "http://terminology.hl7.org/CodeSystem/observation-category",
                "code": "laboratory"
              }
            ]
          }
        ],
        "code": {
          "coding": [
            {
              "code": "5794-3",
              "system": "http://loinc.org",
              "display": "Hemoglobin [Presence] in Urine by Test strip"
            }
          ],
          "text": "Hemoglobin [Presence] in Urine by Test strip"
        },
        "text": {
          "status": "generated",
          "div": "<div xmlns=\"http://www.w3.org/1999/xhtml\"><table class=\"hl7__eu__lab__report\"><tr><th>Test</th><th>02-Jun-2022</th><th>Reference&#xA0;Range</th><th>Unit</th></tr><tr><td>Hemoglobin [Presence] in Urine by Test strip</td></tr></table></div>"
        },
        "status": "final",
        "subject": {
          "reference": "urn:uuid:e13f5ff9-feab-4442-be34-1c42ddbe691e",
          "display": "Molly Jenkins"
        },
        "effectiveDateTime": "2022-06-02T14:42:11Z",
        "specimen": {
          "reference": "urn:uuid:df59d451-6d1c-4771-8e11-5c546294430c"
        }
      }
    },
    {
      "fullUrl": "urn:uuid:4caef74a-9a1d-4748-9574-44bb1e5f63ce",
      "resource": {
        "resourceType": "Observation",
        "id": "4caef74a-9a1d-4748-9574-44bb1e5f63ce",
        "meta": {
          "profile": [
            "http://hl7.eu/fhir/laboratory/StructureDefinition/Observation-resultslab-eu-lab"
          ]
        },
        "performer": [
          {
            "display": "The Central European Lab"
          }
        ],
        "category": [
          {
            "coding": [
              {
                "system": "http://terminology.hl7.org/CodeSystem/observation-category",
                "code": "laboratory"
              }
            ]
          }
        ],
        "code": {
          "coding": [
            {
              "code": "5799-2",
              "system": "http://loinc.org",
              "display": "Leukocyte esterase [Presence] in Urine by Test strip"
            }
          ],
          "text": "Leukocyte esterase [Presence] in Urine by Test strip"
        },
        "text": {
          "status": "generated",
          "div": "<div xmlns=\"http://www.w3.org/1999/xhtml\"><table class=\"hl7__eu__lab__report\"><tr><th>Test</th><th>02-Jun-2022</th><th>Reference&#xA0;Range</th><th>Unit</th></tr><tr><td>Leukocyte esterase [Presence] in Urine by Test strip</td></tr></table></div>"
        },
        "status": "final",
        "subject": {
          "reference": "urn:uuid:e13f5ff9-feab-4442-be34-1c42ddbe691e",
          "display": "Molly Jenkins"
        },
        "effectiveDateTime": "2022-06-02T14:42:11Z",
        "specimen": {
          "reference": "urn:uuid:df59d451-6d1c-4771-8e11-5c546294430c"
        }
      }
    },
    {
      "fullUrl": "urn:uuid:090364bf-76b6-458c-a079-fea23dcfa7a5",
      "resource": {
        "resourceType": "Observation",
        "id": "090364bf-76b6-458c-a079-fea23dcfa7a5",
        "meta": {
          "profile": [
            "http://hl7.eu/fhir/laboratory/StructureDefinition/Observation-resultslab-eu-lab"
          ]
        },
        "performer": [
          {
            "display": "The Central European Lab"
          }
        ],
        "category": [
          {
            "coding": [
              {
                "system": "http://terminology.hl7.org/CodeSystem/observation-category",
                "code": "laboratory"
              }
            ]
          }
        ],
        "code": {
          "coding": [
            {
              "code": "4548-4",
              "system": "http://loinc.org",
              "display": "Hemoglobin A1c/Hemoglobin.total in Blood"
            }
          ],
          "text": "Hemoglobin A1c/Hemoglobin.total in Blood"
        },
        "valueQuantity": {
          "system": "http://unitsofmeasure.org",
          "value": 3,
          "unit": "%",
          "code": "%"
        },
        "referenceRange": [
          {
            "low": {
              "value": 4,
              "code": "%",
              "system": "http://unitsofmeasure.org"
            }
          },
          {
            "high": {
              "value": 6,
              "code": "%",
              "system": "http://unitsofmeasure.org"
            }
          }
        ],
        "interpretation": [
          {
            "coding": [
              {
                "code": "L",
                "system": "http://terminology.hl7.org/CodeSystem/v3-ObservationInterpretation",
                "display": "Low"
              }
            ]
          }
        ],
        "text": {
          "status": "generated",
          "div": "<div xmlns=\"http://www.w3.org/1999/xhtml\"><table class=\"hl7__eu__lab__report\"><tr><th>Test</th><th>02-Jun-2022</th><th>Reference&#xA0;Range</th><th>Unit</th></tr><tr><td>Hemoglobin A1c/Hemoglobin.total in Blood</td><td>3.0</td><td>4 - 6</td><td>L</td><td>%</td></tr></table></div>"
        },
        "status": "final",
        "subject": {
          "reference": "urn:uuid:e13f5ff9-feab-4442-be34-1c42ddbe691e",
          "display": "Molly Jenkins"
        },
        "effectiveDateTime": "2022-06-02T14:42:11Z",
        "specimen": {
          "reference": "urn:uuid:27f221a2-cfff-4cf3-8968-468cd59a5784"
        }
      }
    },
    {
      "fullUrl": "urn:uuid:012632ab-b439-44a6-afa1-cda6fa1424e6",
      "resource": {
        "resourceType": "Observation",
        "id": "012632ab-b439-44a6-afa1-cda6fa1424e6",
        "meta": {
          "profile": [
            "http://hl7.eu/fhir/laboratory/StructureDefinition/Observation-resultslab-eu-lab"
          ]
        },
        "performer": [
          {
            "display": "The Central European Lab"
          }
        ],
        "category": [
          {
            "coding": [
              {
                "system": "http://terminology.hl7.org/CodeSystem/observation-category",
                "code": "laboratory"
              }
            ]
          }
        ],
        "code": {
          "coding": [
            {
              "code": "2339-0",
              "system": "http://loinc.org",
              "display": "Glucose [Mass/volume] in Blood"
            }
          ],
          "text": "Glucose [Mass/volume] in Blood"
        },
        "valueQuantity": {
          "system": "http://unitsofmeasure.org",
          "value": 74.2,
          "unit": "mg/dL",
          "code": "mg/dL"
        },
        "referenceRange": [
          {
            "low": {
              "value": 70,
              "code": "mg/dL",
              "system": "http://unitsofmeasure.org"
            }
          },
          {
            "high": {
              "value": 100,
              "code": "mg/dL",
              "system": "http://unitsofmeasure.org"
            }
          }
        ],
        "text": {
          "status": "generated",
          "div": "<div xmlns=\"http://www.w3.org/1999/xhtml\"><table class=\"hl7__eu__lab__report\"><tr><th>Test</th><th>02-Jun-2022</th><th>Reference&#xA0;Range</th><th>Unit</th></tr><tr><td>Glucose [Mass/volume] in Blood</td><td>74.2</td><td>70 - 100</td><td></td><td>mg/dL</td></tr></table></div>"
        },
        "status": "final",
        "subject": {
          "reference": "urn:uuid:e13f5ff9-feab-4442-be34-1c42ddbe691e",
          "display": "Molly Jenkins"
        },
        "effectiveDateTime": "2022-06-02T14:42:11Z",
        "specimen": {
          "reference": "urn:uuid:27f221a2-cfff-4cf3-8968-468cd59a5784"
        }
      }
    },
    {
      "fullUrl": "urn:uuid:35b95222-7137-495c-9b92-900a78e94014",
      "resource": {
        "resourceType": "Observation",
        "id": "35b95222-7137-495c-9b92-900a78e94014",
        "meta": {
          "profile": [
            "http://hl7.eu/fhir/laboratory/StructureDefinition/Observation-resultslab-eu-lab"
          ]
        },
        "performer": [
          {
            "display": "The Central European Lab"
          }
        ],
        "category": [
          {
            "coding": [
              {
                "system": "http://terminology.hl7.org/CodeSystem/observation-category",
                "code": "laboratory"
              }
            ]
          }
        ],
        "code": {
          "coding": [
            {
              "code": "6299-2",
              "system": "http://loinc.org",
              "display": "Urea nitrogen [Mass/volume] in Blood"
            }
          ],
          "text": "Urea nitrogen [Mass/volume] in Blood"
        },
        "valueQuantity": {
          "system": "http://unitsofmeasure.org",
          "value": 14.5,
          "unit": "mg/dL",
          "code": "mg/dL"
        },
        "referenceRange": [
          {
            "low": {
              "value": 7,
              "code": "mg/dL",
              "system": "http://unitsofmeasure.org"
            }
          },
          {
            "high": {
              "value": 20,
              "code": "mg/dL",
              "system": "http://unitsofmeasure.org"
            }
          }
        ],
        "text": {
          "status": "generated",
          "div": "<div xmlns=\"http://www.w3.org/1999/xhtml\"><table class=\"hl7__eu__lab__report\"><tr><th>Test</th><th>02-Jun-2022</th><th>Reference&#xA0;Range</th><th>Unit</th></tr><tr><td>Urea nitrogen [Mass/volume] in Blood</td><td>14.5</td><td>7 - 20</td><td></td><td>mg/dL</td></tr></table></div>"
        },
        "status": "final",
        "subject": {
          "reference": "urn:uuid:e13f5ff9-feab-4442-be34-1c42ddbe691e",
          "display": "Molly Jenkins"
        },
        "effectiveDateTime": "2022-06-02T14:42:11Z",
        "specimen": {
          "reference": "urn:uuid:27f221a2-cfff-4cf3-8968-468cd59a5784"
        }
      }
    },
    {
      "fullUrl": "urn:uuid:de888db7-dae4-4118-83a8-5b52dc6788bd",
      "resource": {
        "resourceType": "Observation",
        "id": "de888db7-dae4-4118-83a8-5b52dc6788bd",
        "meta": {
          "profile": [
            "http://hl7.eu/fhir/laboratory/StructureDefinition/Observation-resultslab-eu-lab"
          ]
        },
        "performer": [
          {
            "display": "The Central European Lab"
          }
        ],
        "category": [
          {
            "coding": [
              {
                "system": "http://terminology.hl7.org/CodeSystem/observation-category",
                "code": "laboratory"
              }
            ]
          }
        ],
        "code": {
          "coding": [
            {
              "code": "38483-4",
              "system": "http://loinc.org",
              "display": "Creatinine [Mass/volume] in Blood"
            }
          ],
          "text": "Creatinine [Mass/volume] in Blood"
        },
        "valueQuantity": {
          "system": "http://unitsofmeasure.org",
          "value": 1.3,
          "unit": "mg/dL",
          "code": "mg/dL"
        },
        "referenceRange": [
          {
            "low": {
              "value": 0.6,
              "code": "mg/dL",
              "system": "http://unitsofmeasure.org"
            }
          },
          {
            "high": {
              "value": 1.3,
              "code": "mg/dL",
              "system": "http://unitsofmeasure.org"
            }
          }
        ],
        "text": {
          "status": "generated",
          "div": "<div xmlns=\"http://www.w3.org/1999/xhtml\"><table class=\"hl7__eu__lab__report\"><tr><th>Test</th><th>02-Jun-2022</th><th>Reference&#xA0;Range</th><th>Unit</th></tr><tr><td>Creatinine [Mass/volume] in Blood</td><td>1.3</td><td>0.6 - 1.3</td><td></td><td>mg/dL</td></tr></table></div>"
        },
        "status": "final",
        "subject": {
          "reference": "urn:uuid:e13f5ff9-feab-4442-be34-1c42ddbe691e",
          "display": "Molly Jenkins"
        },
        "effectiveDateTime": "2022-06-02T14:42:11Z",
        "specimen": {
          "reference": "urn:uuid:27f221a2-cfff-4cf3-8968-468cd59a5784"
        }
      }
    },
    {
      "fullUrl": "urn:uuid:a1086e4d-e2ed-4d87-a251-8b18173a6075",
      "resource": {
        "resourceType": "Observation",
        "id": "a1086e4d-e2ed-4d87-a251-8b18173a6075",
        "meta": {
          "profile": [
            "http://hl7.eu/fhir/laboratory/StructureDefinition/Observation-resultslab-eu-lab"
          ]
        },
        "performer": [
          {
            "display": "The Central European Lab"
          }
        ],
        "category": [
          {
            "coding": [
              {
                "system": "http://terminology.hl7.org/CodeSystem/observation-category",
                "code": "laboratory"
              }
            ]
          }
        ],
        "code": {
          "coding": [
            {
              "code": "49765-1",
              "system": "http://loinc.org",
              "display": "Calcium [Mass/volume] in Blood"
            }
          ],
          "text": "Calcium [Mass/volume] in Blood"
        },
        "valueQuantity": {
          "system": "http://unitsofmeasure.org",
          "value": 10.1,
          "unit": "mg/dL",
          "code": "mg/dL"
        },
        "referenceRange": [
          {
            "low": {
              "value": 8.6,
              "code": "mg/dL",
              "system": "http://unitsofmeasure.org"
            }
          },
          {
            "high": {
              "value": 10.4,
              "code": "mg/dL",
              "system": "http://unitsofmeasure.org"
            }
          }
        ],
        "text": {
          "status": "generated",
          "div": "<div xmlns=\"http://www.w3.org/1999/xhtml\"><table class=\"hl7__eu__lab__report\"><tr><th>Test</th><th>02-Jun-2022</th><th>Reference&#xA0;Range</th><th>Unit</th></tr><tr><td>Calcium [Mass/volume] in Blood</td><td>10.1</td><td>8.6 - 10.4</td><td></td><td>mg/dL</td></tr></table></div>"
        },
        "status": "final",
        "subject": {
          "reference": "urn:uuid:e13f5ff9-feab-4442-be34-1c42ddbe691e",
          "display": "Molly Jenkins"
        },
        "effectiveDateTime": "2022-06-02T14:42:11Z",
        "specimen": {
          "reference": "urn:uuid:27f221a2-cfff-4cf3-8968-468cd59a5784"
        }
      }
    },
    {
      "fullUrl": "urn:uuid:dd59033b-1e25-4465-88bb-e25fb1f2d1a8",
      "resource": {
        "resourceType": "Observation",
        "id": "dd59033b-1e25-4465-88bb-e25fb1f2d1a8",
        "meta": {
          "profile": [
            "http://hl7.eu/fhir/laboratory/StructureDefinition/Observation-resultslab-eu-lab"
          ]
        },
        "performer": [
          {
            "display": "The Central European Lab"
          }
        ],
        "category": [
          {
            "coding": [
              {
                "system": "http://terminology.hl7.org/CodeSystem/observation-category",
                "code": "laboratory"
              }
            ]
          }
        ],
        "code": {
          "coding": [
            {
              "code": "2947-0",
              "system": "http://loinc.org",
              "display": "Sodium [Moles/volume] in Blood"
            }
          ],
          "text": "Sodium [Moles/volume] in Blood"
        },
        "valueQuantity": {
          "system": "http://unitsofmeasure.org",
          "value": 142.4,
          "unit": "mmol/L",
          "code": "mmol/L"
        },
        "referenceRange": [
          {
            "low": {
              "value": 135,
              "code": "mmol/L",
              "system": "http://unitsofmeasure.org"
            }
          },
          {
            "high": {
              "value": 145,
              "code": "mmol/L",
              "system": "http://unitsofmeasure.org"
            }
          }
        ],
        "text": {
          "status": "generated",
          "div": "<div xmlns=\"http://www.w3.org/1999/xhtml\"><table class=\"hl7__eu__lab__report\"><tr><th>Test</th><th>02-Jun-2022</th><th>Reference&#xA0;Range</th><th>Unit</th></tr><tr><td>Sodium [Moles/volume] in Blood</td><td>142.4</td><td>135 - 145</td><td></td><td>mmol/L</td></tr></table></div>"
        },
        "status": "final",
        "subject": {
          "reference": "urn:uuid:e13f5ff9-feab-4442-be34-1c42ddbe691e",
          "display": "Molly Jenkins"
        },
        "effectiveDateTime": "2022-06-02T14:42:11Z",
        "specimen": {
          "reference": "urn:uuid:27f221a2-cfff-4cf3-8968-468cd59a5784"
        }
      }
    },
    {
      "fullUrl": "urn:uuid:489103df-a243-4ca8-ab00-49e89bcf3d46",
      "resource": {
        "resourceType": "Observation",
        "id": "489103df-a243-4ca8-ab00-49e89bcf3d46",
        "meta": {
          "profile": [
            "http://hl7.eu/fhir/laboratory/StructureDefinition/Observation-resultslab-eu-lab"
          ]
        },
        "performer": [
          {
            "display": "The Central European Lab"
          }
        ],
        "category": [
          {
            "coding": [
              {
                "system": "http://terminology.hl7.org/CodeSystem/observation-category",
                "code": "laboratory"
              }
            ]
          }
        ],
        "code": {
          "coding": [
            {
              "code": "6298-4",
              "system": "http://loinc.org",
              "display": "Potassium [Moles/volume] in Blood"
            }
          ],
          "text": "Potassium [Moles/volume] in Blood"
        },
        "valueQuantity": {
          "system": "http://unitsofmeasure.org",
          "value": 4.3,
          "unit": "mmol/L",
          "code": "mmol/L"
        },
        "referenceRange": [
          {
            "low": {
              "value": 3.5,
              "code": "mmol/L",
              "system": "http://unitsofmeasure.org"
            }
          },
          {
            "high": {
              "value": 5.1,
              "code": "mmol/L",
              "system": "http://unitsofmeasure.org"
            }
          }
        ],
        "text": {
          "status": "generated",
          "div": "<div xmlns=\"http://www.w3.org/1999/xhtml\"><table class=\"hl7__eu__lab__report\"><tr><th>Test</th><th>02-Jun-2022</th><th>Reference&#xA0;Range</th><th>Unit</th></tr><tr><td>Potassium [Moles/volume] in Blood</td><td>4.3</td><td>3.5 - 5.1</td><td></td><td>mmol/L</td></tr></table></div>"
        },
        "status": "final",
        "subject": {
          "reference": "urn:uuid:e13f5ff9-feab-4442-be34-1c42ddbe691e",
          "display": "Molly Jenkins"
        },
        "effectiveDateTime": "2022-06-02T14:42:11Z",
        "specimen": {
          "reference": "urn:uuid:27f221a2-cfff-4cf3-8968-468cd59a5784"
        }
      }
    },
    {
      "fullUrl": "urn:uuid:0153bc91-58ff-4fbb-9996-3690207c1323",
      "resource": {
        "resourceType": "Observation",
        "id": "0153bc91-58ff-4fbb-9996-3690207c1323",
        "meta": {
          "profile": [
            "http://hl7.eu/fhir/laboratory/StructureDefinition/Observation-resultslab-eu-lab"
          ]
        },
        "performer": [
          {
            "display": "The Central European Lab"
          }
        ],
        "category": [
          {
            "coding": [
              {
                "system": "http://terminology.hl7.org/CodeSystem/observation-category",
                "code": "laboratory"
              }
            ]
          }
        ],
        "code": {
          "coding": [
            {
              "code": "2069-3",
              "system": "http://loinc.org",
              "display": "Chloride [Moles/volume] in Blood"
            }
          ],
          "text": "Chloride [Moles/volume] in Blood"
        },
        "valueQuantity": {
          "system": "http://unitsofmeasure.org",
          "value": 107.1,
          "unit": "mmol/L",
          "code": "mmol/L"
        },
        "referenceRange": [
          {
            "low": {
              "value": 98,
              "code": "mmol/L",
              "system": "http://unitsofmeasure.org"
            }
          },
          {
            "high": {
              "value": 110,
              "code": "mmol/L",
              "system": "http://unitsofmeasure.org"
            }
          }
        ],
        "text": {
          "status": "generated",
          "div": "<div xmlns=\"http://www.w3.org/1999/xhtml\"><table class=\"hl7__eu__lab__report\"><tr><th>Test</th><th>02-Jun-2022</th><th>Reference&#xA0;Range</th><th>Unit</th></tr><tr><td>Chloride [Moles/volume] in Blood</td><td>107.1</td><td>98 - 110</td><td></td><td>mmol/L</td></tr></table></div>"
        },
        "status": "final",
        "subject": {
          "reference": "urn:uuid:e13f5ff9-feab-4442-be34-1c42ddbe691e",
          "display": "Molly Jenkins"
        },
        "effectiveDateTime": "2022-06-02T14:42:11Z",
        "specimen": {
          "reference": "urn:uuid:27f221a2-cfff-4cf3-8968-468cd59a5784"
        }
      }
    },
    {
      "fullUrl": "urn:uuid:7478392b-6c25-4139-8ccf-ef1fb452e0da",
      "resource": {
        "resourceType": "Observation",
        "id": "7478392b-6c25-4139-8ccf-ef1fb452e0da",
        "meta": {
          "profile": [
            "http://hl7.eu/fhir/laboratory/StructureDefinition/Observation-resultslab-eu-lab"
          ]
        },
        "performer": [
          {
            "display": "The Central European Lab"
          }
        ],
        "category": [
          {
            "coding": [
              {
                "system": "http://terminology.hl7.org/CodeSystem/observation-category",
                "code": "laboratory"
              }
            ]
          }
        ],
        "code": {
          "coding": [
            {
              "code": "20565-8",
              "system": "http://loinc.org",
              "display": "Carbon dioxide, total [Moles/volume] in Blood"
            }
          ],
          "text": "Carbon dioxide, total [Moles/volume] in Blood"
        },
        "valueQuantity": {
          "system": "http://unitsofmeasure.org",
          "value": 20.5,
          "unit": "mmol/L",
          "code": "mmol/L"
        },
        "referenceRange": [
          {
            "low": {
              "value": 22,
              "code": "mmol/L",
              "system": "http://unitsofmeasure.org"
            }
          },
          {
            "high": {
              "value": 29,
              "code": "mmol/L",
              "system": "http://unitsofmeasure.org"
            }
          }
        ],
        "interpretation": [
          {
            "coding": [
              {
                "code": "L",
                "system": "http://terminology.hl7.org/CodeSystem/v3-ObservationInterpretation",
                "display": "Low"
              }
            ]
          }
        ],
        "text": {
          "status": "generated",
          "div": "<div xmlns=\"http://www.w3.org/1999/xhtml\"><table class=\"hl7__eu__lab__report\"><tr><th>Test</th><th>02-Jun-2022</th><th>Reference&#xA0;Range</th><th>Unit</th></tr><tr><td>Carbon dioxide, total [Moles/volume] in Blood</td><td>20.5</td><td>22 - 29</td><td>L</td><td>mmol/L</td></tr></table></div>"
        },
        "status": "final",
        "subject": {
          "reference": "urn:uuid:e13f5ff9-feab-4442-be34-1c42ddbe691e",
          "display": "Molly Jenkins"
        },
        "effectiveDateTime": "2022-06-02T14:42:11Z",
        "specimen": {
          "reference": "urn:uuid:27f221a2-cfff-4cf3-8968-468cd59a5784"
        }
      }
    },
    {
      "fullUrl": "urn:uuid:d9ee6b27-54f5-4ba6-88c8-f82d1ce2ebed",
      "resource": {
        "resourceType": "Device",
        "id": "d9ee6b27-54f5-4ba6-88c8-f82d1ce2ebed",
        "deviceName": [
          {
            "name": "SYNDERAI Synthetic Generator",
            "type": "manufacturer-name"
          }
        ],
        "version": [
          {
            "value": "5.0"
          }
        ],
        "text": {
          "status": "generated",
          "div": "<div xmlns=\"http://www.w3.org/1999/xhtml\">SYNDERAI Synthetic Generator v5.0</div>"
        },
        "status": "active\"",
        "distinctIdentifier": "synderai-generator-50",
        "manufacturer": "SYNDERAI Project"
      }
    },
    {
      "fullUrl": "urn:uuid:6b24f03d-95cf-4130-ac3f-18cc471a153b",
      "resource": {
        "resourceType": "Provenance",
        "id": "6b24f03d-95cf-4130-ac3f-18cc471a153b",
        "target": [
          {
            "reference": "Patient/e13f5ff9-feab-4442-be34-1c42ddbe691e"
          },
          {
            "reference": "Bundle/13347910-afc2-43a0-8398-e86f8d865ac6"
          },
          {
            "reference": "Composition/1706a92f-b349-4f92-93a1-14b84a70cc64"
          },
          {
            "reference": "PractitionerRole/b2176f63-1132-4c16-b2bb-3fb77583a611"
          },
          {
            "reference": "Practitioner/6421aa76-2d4a-4817-9017-19db41ec034b"
          },
          {
            "reference": "PractitionerRole/a60f9cd9-5eb8-4deb-9855-b826661ab3ab"
          },
          {
            "reference": "Organization/d6744cfe-e0d1-434c-ad90-57d857cb9fd1"
          }
        ],
        "activity": {
          "text": "Synthetic Example Data Generation"
        },
        "policy": [
          "https://synderai.net/synderai-synthetic-data-policy"
        ],
        "agent": [
          {
            "type": {
              "text": "author"
            },
            "who": {
              "reference": "Device/d9ee6b27-54f5-4ba6-88c8-f82d1ce2ebed"
            }
          }
        ],
        "reason": [
          {
            "text": "Interoperability Testing and Training (non-clinical use)"
          }
        ],
        "text": {
          "status": "generated",
          "div": "<div xmlns=\"http://www.w3.org/1999/xhtml\">Provenance for SYNDERAI Synthetic Example Data Resource</div>"
        },
        "recorded": "2022-06-02T16:42:11Z"
      }
    },
    {
      "fullUrl": "urn:uuid:b2176f63-1132-4c16-b2bb-3fb77583a611",
      "resource": {
        "resourceType": "PractitionerRole",
        "id": "b2176f63-1132-4c16-b2bb-3fb77583a611",
        "meta": {
          "profile": [
            "http://hl7.eu/fhir/base/StructureDefinition/practitionerRole-eu"
          ]
        },
        "text": {
          "status": "generated",
          "div": "<div xmlns=\"http://www.w3.org/1999/xhtml\">Laboratory Role Id: b2176f63-1132-4c16-b2bb-3fb77583a611</div>"
        },
        "practitioner": {
          "reference": "urn:uuid:6421aa76-2d4a-4817-9017-19db41ec034b"
        }
      }
    },
    {
      "fullUrl": "urn:uuid:6421aa76-2d4a-4817-9017-19db41ec034b",
      "resource": {
        "resourceType": "Practitioner",
        "id": "6421aa76-2d4a-4817-9017-19db41ec034b",
        "meta": {
          "profile": [
            "http://hl7.eu/fhir/base/StructureDefinition/practitioner-eu"
          ]
        },
        "identifier": [
          {
            "assigner": {
              "display": "HL7 Europe"
            },
            "system": "urn:oid:2.16.840.1.113883.2.51.999",
            "value": "627e31b7-de9e-40ed-8163-b0d7cae3ff1e"
          }
        ],
        "name": [
          {
            "prefix": [
              "dr"
            ],
            "given": [
              "Ex"
            ],
            "family": "Ample"
          }
        ],
        "address": [
          {
            "line": [
              "Laboratoire Central Européenne",
              "Boulevard du Jardin Botanique 32"
            ],
            "postalCode": "1000",
            "city": "Brussels",
            "country": "Belgium"
          }
        ],
        "text": {
          "status": "generated",
          "div": "<div xmlns=\"http://www.w3.org/1999/xhtml\">Laboratory: Laboratoire Central Européenne, 1000 Brussels, Belgium</div>"
        }
      }
    }
  ],
  "type": "document",
  "timestamp": "2022-06-02T16:42:11Z"
}
