{
  "resourceType": "Bundle",
  "id": "7f986e8c-8373-44ee-95c2-0cb5ae14b291",
  "meta": {
    "profile": [
      "http://hl7.eu/fhir/laboratory/StructureDefinition/Bundle-eu-lab"
    ]
  },
  "identifier": {
    "assigner": {
      "display": "HL7 Europe"
    },
    "system": "urn:oid:2.16.840.1.113883.2.51.999",
    "value": "33cb4b31-c63e-4e8f-99a4-94d7b7d3ee76"
  },
  "entry": [
    {
      "fullUrl": "urn:uuid:6683abfb-52f0-4dc7-b239-3d5c932e74ea",
      "resource": {
        "resourceType": "Composition",
        "id": "6683abfb-52f0-4dc7-b239-3d5c932e74ea",
        "meta": {
          "profile": [
            "http://hl7.eu/fhir/laboratory/StructureDefinition/Composition-eu-lab"
          ]
        },
        "identifier": {
          "assigner": {
            "display": "HL7 Europe"
          },
          "system": "urn:oid:2.16.840.1.113883.2.51.999",
          "value": "427c25c0-7e1e-42ff-91fb-9c61c9bdbf33"
        },
        "author": [
          {
            "reference": "urn:uuid:b7ae2a4b-9bff-4106-88d4-ecdcfa8ecedd"
          }
        ],
        "category": [
          {
            "coding": [
              {
                "code": "26436-6",
                "system": "http://loinc.org",
                "display": "Laboratory studies (set)"
              }
            ]
          }
        ],
        "type": {
          "coding": [
            {
              "code": "11502-2",
              "system": "http://loinc.org",
              "display": "Laboratory report"
            }
          ],
          "text": "Laboratory Report"
        },
        "section": [
          {
            "code": {
              "coding": [
                {
                  "code": "26436-6",
                  "system": "http://loinc.org",
                  "display": "Laboratory studies (set)"
                }
              ],
              "text": "Laboratory studies"
            },
            "section": [
              {
                "code": {
                  "coding": [
                    {
                      "code": "$18719-5",
                      "system": "http://loinc.org",
                      "display": "Chemistry studies (set)"
                    }
                  ],
                  "text": "Chemistry"
                },
                "entry": [
                  {
                    "reference": "urn:uuid:f39fab72-b586-4852-8c0b-703a6e7a590e"
                  },
                  {
                    "reference": "urn:uuid:828670cb-27e1-4284-abd6-4a82e6fda929"
                  },
                  {
                    "reference": "urn:uuid:b24bc811-7d26-4b65-9933-95028bbb02e1"
                  },
                  {
                    "reference": "urn:uuid:bd2fcffd-4fc9-4f70-a7d4-4f1484397108"
                  }
                ],
                "text": {
                  "status": "generated",
                  "div": "<div xmlns=\"http://www.w3.org/1999/xhtml\"><h3>Chemistry</h3><table class=\"hl7__eu__lab__report\"><thead><tr><th>Test</th><th>27-NOV-2016</th><th>Reference&#xA0;Range</th><th>Unit</th></tr></thead><tbody><tr><td>Cholesterol [Mass/volume] in Serum or Plasma</td><td><strong>241.1 H</strong></td><td>0 - 200</td><td>mg/dL</td></tr><tr><td>Triglyceride [Mass/volume] in Serum or Plasma</td><td>109.8</td><td>0 - 199</td><td>mg/dL</td></tr><tr><td>Cholesterol in LDL [Mass/volume] in Serum or Plasma by Direct assay</td><td><strong>156.0 H</strong></td><td>0 - 130</td><td>mg/dL</td></tr><tr><td>Cholesterol in HDL [Mass/volume] in Serum or Plasma</td><td>63.1</td><td>40 - 100</td><td>mg/dL</td></tr></tbody></table></div>"
                },
                "title": "Chemistry"
              }
            ],
            "title": "Laboratory Report"
          },
          {
            "text": {
              "status": "generated",
              "div": "<div xmlns=\"http://www.w3.org/1999/xhtml\"><h3>Annotation</h3><table class=\"hl7__eu__lab__report\"><tr><th>Conclusion and Recommendations based on this report and previous findings known to us</th></tr><tr><td>The patient shows elevated total cholesterol and LDL cholesterol, both above recommended levels, which increases cardiovascular risk, especially at advanced age. Triglycerides and HDL cholesterol are within normal limits. Lipid-lowering therapy and lifestyle modifications should be considered in the clinical context.</td></tr></table></div>"
            },
            "code": {
              "coding": [
                {
                  "system": "http://loinc.org",
                  "code": "48767-8",
                  "display": "Annotation comment"
                }
              ]
            },
            "title": "Annotation comment"
          }
        ],
        "status": "final",
        "subject": {
          "reference": "urn:uuid:ee1d9924-b45a-41ec-9123-8c9e3bb024cb",
          "display": "Gastone Farnese"
        },
        "date": "2016-11-27T00:10:08Z",
        "title": "Laboratory Report",
        "confidentiality": "N"
      }
    },
    {
      "fullUrl": "urn:uuid:d586532d-fcfa-4aaf-8d34-b3e0b04a7451",
      "resource": {
        "resourceType": "DiagnosticReport",
        "id": "d586532d-fcfa-4aaf-8d34-b3e0b04a7451",
        "meta": {
          "profile": [
            "http://hl7.eu/fhir/laboratory/StructureDefinition/DiagnosticReport-eu-lab"
          ]
        },
        "identifier": [
          {
            "assigner": {
              "display": "HL7 Europe"
            },
            "system": "urn:oid:2.16.840.1.113883.2.51.999",
            "value": "63c48ac9-a7cc-4ed3-80a4-7d0657c1e118"
          }
        ],
        "extension": [
          {
            "url": "http://hl7.org/fhir/5.0/StructureDefinition/extension-DiagnosticReport.composition",
            "valueReference": {
              "reference": "urn:uuid:427c25c0-7e1e-42ff-91fb-9c61c9bdbf33"
            }
          }
        ],
        "category": [
          {
            "coding": [
              {
                "code": "26436-6",
                "system": "http://loinc.org",
                "display": "Laboratory studies (set)"
              }
            ]
          }
        ],
        "specimen": [
          {
            "reference": "urn:uuid:7f7cf4e3-867e-442f-b019-6a264e5281a4"
          }
        ],
        "result": [
          {
            "reference": "urn:uuid:f39fab72-b586-4852-8c0b-703a6e7a590e"
          },
          {
            "reference": "urn:uuid:828670cb-27e1-4284-abd6-4a82e6fda929"
          },
          {
            "reference": "urn:uuid:b24bc811-7d26-4b65-9933-95028bbb02e1"
          },
          {
            "reference": "urn:uuid:bd2fcffd-4fc9-4f70-a7d4-4f1484397108"
          }
        ],
        "status": "registered",
        "code": {
          "coding": [
            {
              "code": "11502-2",
              "system": "http://loinc.org",
              "display": "Laboratory report"
            }
          ]
        },
        "subject": {
          "reference": "urn:uuid:ee1d9924-b45a-41ec-9123-8c9e3bb024cb",
          "display": "Gastone Farnese"
        }
      }
    },
    {
      "fullUrl": "urn:uuid:ee1d9924-b45a-41ec-9123-8c9e3bb024cb",
      "resource": {
        "resourceType": "Patient",
        "id": "ee1d9924-b45a-41ec-9123-8c9e3bb024cb",
        "meta": {
          "security": [
            {
              "system": "http://terminology.hl7.org/CodeSystem/v3-ActReason",
              "code": "HTEST"
            },
            {
              "system": "http://terminology.hl7.org/CodeSystem/v3-ActReason",
              "code": "TRAIN"
            }
          ],
          "tag": [
            {
              "system": "https://synderai.net/fhir/CodeSystem/tags",
              "code": "synthetic",
              "display": "SYNDERAI Synthetic data"
            }
          ],
          "profile": [
            "http://hl7.eu/fhir/base/StructureDefinition/patient-eu-core"
          ]
        },
        "identifier": [
          {
            "type": {
              "coding": [
                {
                  "code": "PT",
                  "system": "http://terminology.hl7.org/CodeSystem/v2-0203"
                }
              ]
            },
            "system": "http://ec.europa.eu/identifier/eci",
            "value": "9783-008691-0"
          },
          {
            "type": {
              "coding": [
                {
                  "code": "MR",
                  "system": "http://terminology.hl7.org/CodeSystem/v2-0203"
                }
              ]
            },
            "system": "http://local.setting.eu/identifier",
            "value": "3a83b0c2-9162-b4ed-57ec-07c0d12b05d8"
          }
        ],
        "name": [
          {
            "family": "Farnese"
          },
          {
            "given": [
              "Gastone"
            ]
          },
          {
            "text": "Gastone Farnese"
          }
        ],
        "address": [
          {
            "line": [
              "Rotonda Verdone, 9 Appartamento 6"
            ],
            "use": "home",
            "type": "physical",
            "postalCode": "35030",
            "city": "Galzignano Terme",
            "country": "Italy"
          }
        ],
        "telecom": [
          {
            "system": "phone",
            "value": "+39 350079040"
          }
        ],
        "extension": [
          {
            "url": "http://hl7.org/fhir/StructureDefinition/patient-nationality",
            "valueCodeableConcept": {
              "coding": [
                {
                  "code": "IT",
                  "system": "http://hl7.org/fhir/ValueSet/country"
                }
              ]
            }
          }
        ],
        "text": {
          "status": "generated",
          "div": "<div xmlns=\"http://www.w3.org/1999/xhtml\"><table class=\"hl7__ips\"><tr><td>Gastone Farnese</td><td>male</td><td>16-Apr-1939</td></tr></table></div>"
        },
        "gender": "male",
        "birthDate": "1939-04-16"
      }
    },
    {
      "fullUrl": "urn:uuid:e3e43cba-c1c8-48cc-a947-c16f06a64b70",
      "resource": {
        "resourceType": "ServiceRequest",
        "id": "e3e43cba-c1c8-48cc-a947-c16f06a64b70",
        "meta": {
          "profile": [
            "http://hl7.eu/fhir/laboratory/StructureDefinition/ServiceRequest-eu-lab"
          ]
        },
        "identifier": [
          {
            "system": "http://example.org",
            "value": "8688d2bc-2b63-43ec-b00f-4a60b6fdfab6"
          }
        ],
        "specimen": [
          {
            "reference": "urn:uuid:7f7cf4e3-867e-442f-b019-6a264e5281a4"
          }
        ],
        "reasonCode": [
          {
            "coding": [
              {
                "code": "414545008",
                "system": "http://snomed.info/sct",
                "display": "Ischemic heart disease"
              }
            ]
          }
        ],
        "status": "active",
        "intent": "order",
        "code": {
          "coding": [
            {
              "code": "108252007",
              "system": "http://snomed.info/sct",
              "display": "Laboratory procedure"
            }
          ]
        },
        "subject": {
          "reference": "urn:uuid:ee1d9924-b45a-41ec-9123-8c9e3bb024cb",
          "display": "Gastone Farnese"
        },
        "requester": {
          "reference": "urn:uuid:a5a8fb4f-6ba2-4773-9f76-46579641b0d2"
        }
      }
    },
    {
      "fullUrl": "urn:uuid:a5a8fb4f-6ba2-4773-9f76-46579641b0d2",
      "resource": {
        "resourceType": "PractitionerRole",
        "id": "a5a8fb4f-6ba2-4773-9f76-46579641b0d2",
        "meta": {
          "profile": [
            "http://hl7.eu/fhir/base/StructureDefinition/practitionerRole-eu"
          ]
        },
        "text": {
          "status": "generated",
          "div": "<div xmlns=\"http://www.w3.org/1999/xhtml\">Provider Role Id: a5a8fb4f-6ba2-4773-9f76-46579641b0d2</div>"
        },
        "organization": {
          "reference": "urn:uuid:aba325b2-2fc1-46ab-a7d0-8d55bc0497a1"
        }
      }
    },
    {
      "fullUrl": "urn:uuid:aba325b2-2fc1-46ab-a7d0-8d55bc0497a1",
      "resource": {
        "resourceType": "Organization",
        "id": "aba325b2-2fc1-46ab-a7d0-8d55bc0497a1",
        "meta": {
          "profile": [
            "http://hl7.eu/fhir/base/StructureDefinition/organization-eu"
          ]
        },
        "identifier": [
          {
            "assigner": {
              "display": "HL7 Europe"
            },
            "system": "urn:oid:2.16.840.1.113883.2.51.999",
            "value": "1ab6ec61-8e85-4c7d-b756-70504ac994ea"
          }
        ],
        "address": [
          {
            "line": [
              "Via Albere nan"
            ],
            "city": "Este",
            "postalCode": "35042",
            "country": "Italy"
          }
        ],
        "text": {
          "status": "generated",
          "div": "<div xmlns=\"http://www.w3.org/1999/xhtml\">Provider Organization: Ospedali Riuniti Padova Sud &quot;Madre Teresa di Calcutta&quot;</div>"
        },
        "name": "Ospedali Riuniti Padova Sud &quot;Madre Teresa di Calcutta&quot;"
      }
    },
    {
      "fullUrl": "urn:uuid:7f7cf4e3-867e-442f-b019-6a264e5281a4",
      "resource": {
        "resourceType": "Specimen",
        "id": "7f7cf4e3-867e-442f-b019-6a264e5281a4",
        "meta": {
          "profile": [
            "http://hl7.eu/fhir/laboratory/StructureDefinition/Specimen-eu-lab"
          ]
        },
        "collection": {
          "collectedDateTime": "2016-11-26"
        },
        "text": {
          "status": "generated",
          "div": "<div xmlns=\"http://www.w3.org/1999/xhtml\"><table class=\"hl7__eu__lab__report\"><tr><th>Specimen</th><th>Collection Date</th></tr><tr><td>Acellular blood (serum or plasma) specimen</td><td><span class=\"nb\">26-Nov-2016</span></td></tr></table></div>"
        },
        "type": {
          "coding": [
            {
              "code": "122592007",
              "system": "http://snomed.info/sct",
              "display": "Acellular blood (serum or plasma) specimen"
            }
          ]
        }
      }
    },
    {
      "fullUrl": "urn:uuid:f39fab72-b586-4852-8c0b-703a6e7a590e",
      "resource": {
        "resourceType": "Observation",
        "id": "f39fab72-b586-4852-8c0b-703a6e7a590e",
        "meta": {
          "profile": [
            "http://hl7.eu/fhir/laboratory/StructureDefinition/Observation-resultslab-eu-lab"
          ]
        },
        "performer": [
          {
            "display": "The Central European Lab"
          }
        ],
        "category": [
          {
            "coding": [
              {
                "system": "http://terminology.hl7.org/CodeSystem/observation-category",
                "code": "laboratory"
              }
            ]
          }
        ],
        "code": {
          "coding": [
            {
              "code": "2093-3",
              "system": "http://loinc.org",
              "display": "Cholesterol [Mass/volume] in Serum or Plasma"
            }
          ],
          "text": "Cholesterol [Mass/volume] in Serum or Plasma"
        },
        "valueQuantity": {
          "system": "http://unitsofmeasure.org",
          "value": 241.1,
          "unit": "mg/dL",
          "code": "mg/dL"
        },
        "referenceRange": [
          {
            "low": {
              "value": 0,
              "code": "mg/dL",
              "system": "http://unitsofmeasure.org"
            }
          },
          {
            "high": {
              "value": 200,
              "code": "mg/dL",
              "system": "http://unitsofmeasure.org"
            }
          }
        ],
        "interpretation": [
          {
            "coding": [
              {
                "code": "H",
                "system": "http://terminology.hl7.org/CodeSystem/v3-ObservationInterpretation",
                "display": "High"
              }
            ]
          }
        ],
        "text": {
          "status": "generated",
          "div": "<div xmlns=\"http://www.w3.org/1999/xhtml\"><table class=\"hl7__eu__lab__report\"><tr><th>Test</th><th>27-Nov-2016</th><th>Reference&#xA0;Range</th><th>Unit</th></tr><tr><td>Cholesterol [Mass/volume] in Serum or Plasma</td><td>241.1</td><td>0 - 200</td><td>H</td><td>mg/dL</td></tr></table></div>"
        },
        "status": "final",
        "subject": {
          "reference": "urn:uuid:ee1d9924-b45a-41ec-9123-8c9e3bb024cb",
          "display": "Gastone Farnese"
        },
        "effectiveDateTime": "2016-11-26T23:10:08Z",
        "specimen": {
          "reference": "urn:uuid:7f7cf4e3-867e-442f-b019-6a264e5281a4"
        }
      }
    },
    {
      "fullUrl": "urn:uuid:828670cb-27e1-4284-abd6-4a82e6fda929",
      "resource": {
        "resourceType": "Observation",
        "id": "828670cb-27e1-4284-abd6-4a82e6fda929",
        "meta": {
          "profile": [
            "http://hl7.eu/fhir/laboratory/StructureDefinition/Observation-resultslab-eu-lab"
          ]
        },
        "performer": [
          {
            "display": "The Central European Lab"
          }
        ],
        "category": [
          {
            "coding": [
              {
                "system": "http://terminology.hl7.org/CodeSystem/observation-category",
                "code": "laboratory"
              }
            ]
          }
        ],
        "code": {
          "coding": [
            {
              "code": "2571-8",
              "system": "http://loinc.org",
              "display": "Triglyceride [Mass/volume] in Serum or Plasma"
            }
          ],
          "text": "Triglyceride [Mass/volume] in Serum or Plasma"
        },
        "valueQuantity": {
          "system": "http://unitsofmeasure.org",
          "value": 109.8,
          "unit": "mg/dL",
          "code": "mg/dL"
        },
        "referenceRange": [
          {
            "low": {
              "value": 0,
              "code": "mg/dL",
              "system": "http://unitsofmeasure.org"
            }
          },
          {
            "high": {
              "value": 199,
              "code": "mg/dL",
              "system": "http://unitsofmeasure.org"
            }
          }
        ],
        "text": {
          "status": "generated",
          "div": "<div xmlns=\"http://www.w3.org/1999/xhtml\"><table class=\"hl7__eu__lab__report\"><tr><th>Test</th><th>27-Nov-2016</th><th>Reference&#xA0;Range</th><th>Unit</th></tr><tr><td>Triglyceride [Mass/volume] in Serum or Plasma</td><td>109.8</td><td>0 - 199</td><td></td><td>mg/dL</td></tr></table></div>"
        },
        "status": "final",
        "subject": {
          "reference": "urn:uuid:ee1d9924-b45a-41ec-9123-8c9e3bb024cb",
          "display": "Gastone Farnese"
        },
        "effectiveDateTime": "2016-11-26T23:10:08Z",
        "specimen": {
          "reference": "urn:uuid:7f7cf4e3-867e-442f-b019-6a264e5281a4"
        }
      }
    },
    {
      "fullUrl": "urn:uuid:b24bc811-7d26-4b65-9933-95028bbb02e1",
      "resource": {
        "resourceType": "Observation",
        "id": "b24bc811-7d26-4b65-9933-95028bbb02e1",
        "meta": {
          "profile": [
            "http://hl7.eu/fhir/laboratory/StructureDefinition/Observation-resultslab-eu-lab"
          ]
        },
        "performer": [
          {
            "display": "The Central European Lab"
          }
        ],
        "category": [
          {
            "coding": [
              {
                "system": "http://terminology.hl7.org/CodeSystem/observation-category",
                "code": "laboratory"
              }
            ]
          }
        ],
        "code": {
          "coding": [
            {
              "code": "18262-6",
              "system": "http://loinc.org",
              "display": "Cholesterol in LDL [Mass/volume] in Serum or Plasma by Direct assay"
            }
          ],
          "text": "Cholesterol in LDL [Mass/volume] in Serum or Plasma by Direct assay"
        },
        "valueQuantity": {
          "system": "http://unitsofmeasure.org",
          "value": 156,
          "unit": "mg/dL",
          "code": "mg/dL"
        },
        "referenceRange": [
          {
            "low": {
              "value": 0,
              "code": "mg/dL",
              "system": "http://unitsofmeasure.org"
            }
          },
          {
            "high": {
              "value": 130,
              "code": "mg/dL",
              "system": "http://unitsofmeasure.org"
            }
          }
        ],
        "interpretation": [
          {
            "coding": [
              {
                "code": "H",
                "system": "http://terminology.hl7.org/CodeSystem/v3-ObservationInterpretation",
                "display": "High"
              }
            ]
          }
        ],
        "text": {
          "status": "generated",
          "div": "<div xmlns=\"http://www.w3.org/1999/xhtml\"><table class=\"hl7__eu__lab__report\"><tr><th>Test</th><th>27-Nov-2016</th><th>Reference&#xA0;Range</th><th>Unit</th></tr><tr><td>Cholesterol in LDL [Mass/volume] in Serum or Plasma by Direct assay</td><td>156.0</td><td>0 - 130</td><td>H</td><td>mg/dL</td></tr></table></div>"
        },
        "status": "final",
        "subject": {
          "reference": "urn:uuid:ee1d9924-b45a-41ec-9123-8c9e3bb024cb",
          "display": "Gastone Farnese"
        },
        "effectiveDateTime": "2016-11-26T23:10:08Z",
        "specimen": {
          "reference": "urn:uuid:7f7cf4e3-867e-442f-b019-6a264e5281a4"
        }
      }
    },
    {
      "fullUrl": "urn:uuid:bd2fcffd-4fc9-4f70-a7d4-4f1484397108",
      "resource": {
        "resourceType": "Observation",
        "id": "bd2fcffd-4fc9-4f70-a7d4-4f1484397108",
        "meta": {
          "profile": [
            "http://hl7.eu/fhir/laboratory/StructureDefinition/Observation-resultslab-eu-lab"
          ]
        },
        "performer": [
          {
            "display": "The Central European Lab"
          }
        ],
        "category": [
          {
            "coding": [
              {
                "system": "http://terminology.hl7.org/CodeSystem/observation-category",
                "code": "laboratory"
              }
            ]
          }
        ],
        "code": {
          "coding": [
            {
              "code": "2085-9",
              "system": "http://loinc.org",
              "display": "Cholesterol in HDL [Mass/volume] in Serum or Plasma"
            }
          ],
          "text": "Cholesterol in HDL [Mass/volume] in Serum or Plasma"
        },
        "valueQuantity": {
          "system": "http://unitsofmeasure.org",
          "value": 63.1,
          "unit": "mg/dL",
          "code": "mg/dL"
        },
        "referenceRange": [
          {
            "low": {
              "value": 40,
              "code": "mg/dL",
              "system": "http://unitsofmeasure.org"
            }
          },
          {
            "high": {
              "value": 100,
              "code": "mg/dL",
              "system": "http://unitsofmeasure.org"
            }
          }
        ],
        "text": {
          "status": "generated",
          "div": "<div xmlns=\"http://www.w3.org/1999/xhtml\"><table class=\"hl7__eu__lab__report\"><tr><th>Test</th><th>27-Nov-2016</th><th>Reference&#xA0;Range</th><th>Unit</th></tr><tr><td>Cholesterol in HDL [Mass/volume] in Serum or Plasma</td><td>63.1</td><td>40 - 100</td><td></td><td>mg/dL</td></tr></table></div>"
        },
        "status": "final",
        "subject": {
          "reference": "urn:uuid:ee1d9924-b45a-41ec-9123-8c9e3bb024cb",
          "display": "Gastone Farnese"
        },
        "effectiveDateTime": "2016-11-26T23:10:08Z",
        "specimen": {
          "reference": "urn:uuid:7f7cf4e3-867e-442f-b019-6a264e5281a4"
        }
      }
    },
    {
      "fullUrl": "urn:uuid:05392c44-be69-4790-8b46-ea945c23c2fa",
      "resource": {
        "resourceType": "Device",
        "id": "05392c44-be69-4790-8b46-ea945c23c2fa",
        "deviceName": [
          {
            "name": "SYNDERAI Synthetic Generator",
            "type": "manufacturer-name"
          }
        ],
        "version": [
          {
            "value": "5.0"
          }
        ],
        "text": {
          "status": "generated",
          "div": "<div xmlns=\"http://www.w3.org/1999/xhtml\">SYNDERAI Synthetic Generator v5.0</div>"
        },
        "status": "active\"",
        "distinctIdentifier": "synderai-generator-50",
        "manufacturer": "SYNDERAI Project"
      }
    },
    {
      "fullUrl": "urn:uuid:af4f36ad-fe5c-4bde-84b3-38c7df8fb3b2",
      "resource": {
        "resourceType": "Provenance",
        "id": "af4f36ad-fe5c-4bde-84b3-38c7df8fb3b2",
        "target": [
          {
            "reference": "Patient/ee1d9924-b45a-41ec-9123-8c9e3bb024cb"
          },
          {
            "reference": "Bundle/7f986e8c-8373-44ee-95c2-0cb5ae14b291"
          },
          {
            "reference": "Composition/6683abfb-52f0-4dc7-b239-3d5c932e74ea"
          },
          {
            "reference": "PractitionerRole/b7ae2a4b-9bff-4106-88d4-ecdcfa8ecedd"
          },
          {
            "reference": "Practitioner/9438bd02-f9ff-4a29-8e94-41f7d89b7a3c"
          },
          {
            "reference": "PractitionerRole/a5a8fb4f-6ba2-4773-9f76-46579641b0d2"
          },
          {
            "reference": "Organization/aba325b2-2fc1-46ab-a7d0-8d55bc0497a1"
          }
        ],
        "activity": {
          "text": "Synthetic Example Data Generation"
        },
        "policy": [
          "https://synderai.net/synderai-synthetic-data-policy"
        ],
        "agent": [
          {
            "type": {
              "text": "author"
            },
            "who": {
              "reference": "Device/05392c44-be69-4790-8b46-ea945c23c2fa"
            }
          }
        ],
        "reason": [
          {
            "text": "Interoperability Testing and Training (non-clinical use)"
          }
        ],
        "text": {
          "status": "generated",
          "div": "<div xmlns=\"http://www.w3.org/1999/xhtml\">Provenance for SYNDERAI Synthetic Example Data Resource</div>"
        },
        "recorded": "2016-11-27T00:10:08Z"
      }
    },
    {
      "fullUrl": "urn:uuid:b7ae2a4b-9bff-4106-88d4-ecdcfa8ecedd",
      "resource": {
        "resourceType": "PractitionerRole",
        "id": "b7ae2a4b-9bff-4106-88d4-ecdcfa8ecedd",
        "meta": {
          "profile": [
            "http://hl7.eu/fhir/base/StructureDefinition/practitionerRole-eu"
          ]
        },
        "text": {
          "status": "generated",
          "div": "<div xmlns=\"http://www.w3.org/1999/xhtml\">Laboratory Role Id: b7ae2a4b-9bff-4106-88d4-ecdcfa8ecedd</div>"
        },
        "practitioner": {
          "reference": "urn:uuid:9438bd02-f9ff-4a29-8e94-41f7d89b7a3c"
        }
      }
    },
    {
      "fullUrl": "urn:uuid:9438bd02-f9ff-4a29-8e94-41f7d89b7a3c",
      "resource": {
        "resourceType": "Practitioner",
        "id": "9438bd02-f9ff-4a29-8e94-41f7d89b7a3c",
        "meta": {
          "profile": [
            "http://hl7.eu/fhir/base/StructureDefinition/practitioner-eu"
          ]
        },
        "identifier": [
          {
            "assigner": {
              "display": "HL7 Europe"
            },
            "system": "urn:oid:2.16.840.1.113883.2.51.999",
            "value": "fa235f57-7a5d-49b4-a91c-06b6642bad0b"
          }
        ],
        "name": [
          {
            "prefix": [
              "dr"
            ],
            "given": [
              "Ex"
            ],
            "family": "Ample"
          }
        ],
        "address": [
          {
            "line": [
              "Laboratoire Central Européenne",
              "Boulevard du Jardin Botanique 32"
            ],
            "postalCode": "1000",
            "city": "Brussels",
            "country": "Belgium"
          }
        ],
        "text": {
          "status": "generated",
          "div": "<div xmlns=\"http://www.w3.org/1999/xhtml\">Laboratory: Laboratoire Central Européenne, 1000 Brussels, Belgium</div>"
        }
      }
    }
  ],
  "type": "document",
  "timestamp": "2016-11-27T00:10:08Z"
}
