{
  "resourceType": "Bundle",
  "id": "1e634745-a77b-48a8-9a0b-cb600ee97b09",
  "meta": {
    "profile": [
      "http://hl7.eu/fhir/laboratory/StructureDefinition/Bundle-eu-lab"
    ]
  },
  "identifier": {
    "assigner": {
      "display": "HL7 Europe"
    },
    "system": "urn:oid:2.16.840.1.113883.2.51.999",
    "value": "d4031894-f8df-4541-b68b-7aac4de7c453"
  },
  "entry": [
    {
      "fullUrl": "urn:uuid:ee9fbd08-8d18-40d4-a0c2-16fb31669c56",
      "resource": {
        "resourceType": "Composition",
        "id": "ee9fbd08-8d18-40d4-a0c2-16fb31669c56",
        "meta": {
          "profile": [
            "http://hl7.eu/fhir/laboratory/StructureDefinition/Composition-eu-lab"
          ]
        },
        "identifier": {
          "assigner": {
            "display": "HL7 Europe"
          },
          "system": "urn:oid:2.16.840.1.113883.2.51.999",
          "value": "8b0def07-7391-4d33-8d9b-760247d8a453"
        },
        "author": [
          {
            "reference": "urn:uuid:825f6ace-d21d-44d5-873d-97159d4d2f98"
          }
        ],
        "category": [
          {
            "coding": [
              {
                "code": "26436-6",
                "system": "http://loinc.org",
                "display": "Laboratory studies (set)"
              }
            ]
          }
        ],
        "type": {
          "coding": [
            {
              "code": "11502-2",
              "system": "http://loinc.org",
              "display": "Laboratory report"
            }
          ],
          "text": "Laboratory Report"
        },
        "section": [
          {
            "code": {
              "coding": [
                {
                  "code": "26436-6",
                  "system": "http://loinc.org",
                  "display": "Laboratory studies (set)"
                }
              ],
              "text": "Laboratory studies"
            },
            "section": [
              {
                "code": {
                  "coding": [
                    {
                      "code": "$18723-7",
                      "system": "http://loinc.org",
                      "display": "Hematology studies (set)"
                    }
                  ],
                  "text": "Hematology"
                },
                "entry": [
                  {
                    "reference": "urn:uuid:8b0172a1-3ad8-49ec-8281-dc0be5d810e3"
                  },
                  {
                    "reference": "urn:uuid:9c00dbfa-1713-4b77-afcc-9c0842984372"
                  },
                  {
                    "reference": "urn:uuid:44fc32a1-4daf-43c7-ac3c-3b40d5bca0f4"
                  },
                  {
                    "reference": "urn:uuid:c17b5752-dbfa-4e6a-8dff-492c08df49f1"
                  },
                  {
                    "reference": "urn:uuid:6a55e500-fcbc-4fa1-bdfd-d8b25d47d610"
                  },
                  {
                    "reference": "urn:uuid:5f269d82-8751-4669-b575-dc52f9f47ec7"
                  },
                  {
                    "reference": "urn:uuid:da12b82a-5b67-4127-ac71-bc34d5f77884"
                  },
                  {
                    "reference": "urn:uuid:c2e7c9c4-5e31-4028-8df6-b6dbb78cf3da"
                  },
                  {
                    "reference": "urn:uuid:9641a5e1-69ac-4ed8-8c66-910db8d9d3a4"
                  },
                  {
                    "reference": "urn:uuid:60f41058-d6a2-42e1-b343-2b9e91b7cfb3"
                  },
                  {
                    "reference": "urn:uuid:aa236e70-b416-4273-9fea-64bfa2ca7037"
                  }
                ],
                "text": {
                  "status": "generated",
                  "div": "<div xmlns=\"http://www.w3.org/1999/xhtml\"><h3>Hematology</h3><table class=\"hl7__eu__lab__report\"><thead><tr><th>Test</th><th>03-JUN-2025</th><th>Reference&#xA0;Range</th><th>Unit</th></tr></thead><tbody><tr><td>Leukocytes [#/volume] in Blood by Automated count</td><td>3.7</td><td>3.6 - 10.5</td><td>10*3/uL</td></tr><tr><td>Erythrocytes [#/volume] in Blood by Automated count</td><td>5.1</td><td>4.5 - 5.5</td><td>10*6/uL</td></tr><tr><td>Hemoglobin [Mass/volume] in Blood</td><td><strong>16.1 H</strong></td><td>12 - 16</td><td>g/dL</td></tr><tr><td>Hematocrit [Volume Fraction] of Blood by Automated count</td><td>39.3</td><td>36 - 48</td><td>%</td></tr><tr><td>MCV [Entitic volume] by Automated count</td><td>89.0</td><td>78 - 98</td><td>fL</td></tr><tr><td>MCH [Entitic mass] by Automated count</td><td>28.0</td><td>27 - 33</td><td>pg</td></tr><tr><td>MCHC [Mass/volume] by Automated count</td><td>33.0</td><td>31.5 - 35</td><td>g/dL</td></tr><tr><td>Erythrocyte distribution width [Entitic volume] by Automated count</td><td>40.8</td><td>36 - 55</td><td>fL</td></tr><tr><td>Platelets [#/volume] in Blood by Automated count</td><td>380.5</td><td>150 - 450</td><td>10*3/uL</td></tr><tr><td>Platelet distribution width [Entitic volume] in Blood by Automated count</td><td><strong>475.4 H</strong></td><td>13.4 - 17.4</td><td>fL</td></tr><tr><td>Platelet mean volume [Entitic volume] in Blood by Automated count</td><td>10.8</td><td>9.7 - 12</td><td>fL</td></tr></tbody></table></div>"
                },
                "title": "Hematology"
              }
            ],
            "title": "Laboratory Report"
          },
          {
            "text": {
              "status": "generated",
              "div": "<div xmlns=\"http://www.w3.org/1999/xhtml\"><h3>Annotation</h3><table class=\"hl7__eu__lab__report\"><tr><th>Conclusion and Recommendations based on this report and previous findings known to us</th></tr><tr><td>The results show a mildly elevated hemoglobin and a markedly high platelet distribution width, with all other parameters within normal limits. These findings may reflect mild hemoconcentration or individual variation; the high platelet distribution width could indicate increased platelet size variability, possibly due to platelet activation or turnover. Correlation with clinical context is recommended.</td></tr></table></div>"
            },
            "code": {
              "coding": [
                {
                  "system": "http://loinc.org",
                  "code": "48767-8",
                  "display": "Annotation comment"
                }
              ]
            },
            "title": "Annotation comment"
          }
        ],
        "status": "final",
        "subject": {
          "reference": "urn:uuid:5ed3c4e7-3d13-4e45-9c96-65b0d58c6aa5",
          "display": "Carole Cooke"
        },
        "date": "2025-06-03T06:55:51Z",
        "title": "Laboratory Report",
        "confidentiality": "N"
      }
    },
    {
      "fullUrl": "urn:uuid:ad481625-6143-496f-b6b2-ef7d775d2dc2",
      "resource": {
        "resourceType": "DiagnosticReport",
        "id": "ad481625-6143-496f-b6b2-ef7d775d2dc2",
        "meta": {
          "profile": [
            "http://hl7.eu/fhir/laboratory/StructureDefinition/DiagnosticReport-eu-lab"
          ]
        },
        "identifier": [
          {
            "assigner": {
              "display": "HL7 Europe"
            },
            "system": "urn:oid:2.16.840.1.113883.2.51.999",
            "value": "a7502681-a67b-4a30-aa79-344bcec6e32f"
          }
        ],
        "extension": [
          {
            "url": "http://hl7.org/fhir/5.0/StructureDefinition/extension-DiagnosticReport.composition",
            "valueReference": {
              "reference": "urn:uuid:8b0def07-7391-4d33-8d9b-760247d8a453"
            }
          }
        ],
        "category": [
          {
            "coding": [
              {
                "code": "26436-6",
                "system": "http://loinc.org",
                "display": "Laboratory studies (set)"
              }
            ]
          }
        ],
        "specimen": [
          {
            "reference": "urn:uuid:15e2f867-42ca-4b8d-aeb5-f8c40d676bf6"
          },
          {
            "reference": "urn:uuid:15e2f867-42ca-4b8d-aeb5-f8c40d676bf6"
          }
        ],
        "result": [
          {
            "reference": "urn:uuid:8b0172a1-3ad8-49ec-8281-dc0be5d810e3"
          },
          {
            "reference": "urn:uuid:9c00dbfa-1713-4b77-afcc-9c0842984372"
          },
          {
            "reference": "urn:uuid:44fc32a1-4daf-43c7-ac3c-3b40d5bca0f4"
          },
          {
            "reference": "urn:uuid:c17b5752-dbfa-4e6a-8dff-492c08df49f1"
          },
          {
            "reference": "urn:uuid:6a55e500-fcbc-4fa1-bdfd-d8b25d47d610"
          },
          {
            "reference": "urn:uuid:5f269d82-8751-4669-b575-dc52f9f47ec7"
          },
          {
            "reference": "urn:uuid:da12b82a-5b67-4127-ac71-bc34d5f77884"
          },
          {
            "reference": "urn:uuid:c2e7c9c4-5e31-4028-8df6-b6dbb78cf3da"
          },
          {
            "reference": "urn:uuid:9641a5e1-69ac-4ed8-8c66-910db8d9d3a4"
          },
          {
            "reference": "urn:uuid:60f41058-d6a2-42e1-b343-2b9e91b7cfb3"
          },
          {
            "reference": "urn:uuid:aa236e70-b416-4273-9fea-64bfa2ca7037"
          }
        ],
        "status": "registered",
        "code": {
          "coding": [
            {
              "code": "11502-2",
              "system": "http://loinc.org",
              "display": "Laboratory report"
            }
          ]
        },
        "subject": {
          "reference": "urn:uuid:5ed3c4e7-3d13-4e45-9c96-65b0d58c6aa5",
          "display": "Carole Cooke"
        }
      }
    },
    {
      "fullUrl": "urn:uuid:5ed3c4e7-3d13-4e45-9c96-65b0d58c6aa5",
      "resource": {
        "resourceType": "Patient",
        "id": "5ed3c4e7-3d13-4e45-9c96-65b0d58c6aa5",
        "meta": {
          "security": [
            {
              "system": "http://terminology.hl7.org/CodeSystem/v3-ActReason",
              "code": "HTEST"
            },
            {
              "system": "http://terminology.hl7.org/CodeSystem/v3-ActReason",
              "code": "TRAIN"
            }
          ],
          "tag": [
            {
              "system": "https://synderai.net/fhir/CodeSystem/tags",
              "code": "synthetic",
              "display": "SYNDERAI Synthetic data"
            }
          ],
          "profile": [
            "http://hl7.eu/fhir/base/StructureDefinition/patient-eu-core"
          ]
        },
        "identifier": [
          {
            "type": {
              "coding": [
                {
                  "code": "PT",
                  "system": "http://terminology.hl7.org/CodeSystem/v2-0203"
                }
              ]
            },
            "system": "http://ec.europa.eu/identifier/eci",
            "value": "1102-358220-5"
          },
          {
            "type": {
              "coding": [
                {
                  "code": "MR",
                  "system": "http://terminology.hl7.org/CodeSystem/v2-0203"
                }
              ]
            },
            "system": "http://local.setting.eu/identifier",
            "value": "f525f046-df37-01f8-5d2a-6533e179ee9d"
          }
        ],
        "name": [
          {
            "family": "Cooke"
          },
          {
            "given": [
              "Carole"
            ]
          },
          {
            "text": "Carole Cooke"
          }
        ],
        "address": [
          {
            "line": [
              "739 Pamela summit"
            ],
            "use": "home",
            "type": "physical",
            "postalCode": "SW1A",
            "city": "London",
            "country": "United Kingdom"
          }
        ],
        "telecom": [
          {
            "system": "phone",
            "value": "+441514960086"
          }
        ],
        "extension": [
          {
            "url": "http://hl7.org/fhir/StructureDefinition/patient-nationality",
            "valueCodeableConcept": {
              "coding": [
                {
                  "code": "GB",
                  "system": "http://hl7.org/fhir/ValueSet/country"
                }
              ]
            }
          }
        ],
        "text": {
          "status": "generated",
          "div": "<div xmlns=\"http://www.w3.org/1999/xhtml\"><table class=\"hl7__ips\"><tr><td>Carole Cooke</td><td>female</td><td>07-Dec-2005</td></tr></table></div>"
        },
        "gender": "female",
        "birthDate": "2005-12-07"
      }
    },
    {
      "fullUrl": "urn:uuid:14be9c1f-a9f5-4bcc-a59f-a29c9cdac74f",
      "resource": {
        "resourceType": "ServiceRequest",
        "id": "14be9c1f-a9f5-4bcc-a59f-a29c9cdac74f",
        "meta": {
          "profile": [
            "http://hl7.eu/fhir/laboratory/StructureDefinition/ServiceRequest-eu-lab"
          ]
        },
        "identifier": [
          {
            "system": "http://example.org",
            "value": "e072b323-5641-4b3d-ba8d-32cc11cdab61"
          }
        ],
        "specimen": [
          {
            "reference": "urn:uuid:15e2f867-42ca-4b8d-aeb5-f8c40d676bf6"
          }
        ],
        "reasonCode": [
          {
            "coding": [
              {
                "code": "40055000",
                "system": "http://snomed.info/sct",
                "display": "Chronic sinusitis"
              }
            ]
          }
        ],
        "status": "active",
        "intent": "order",
        "code": {
          "coding": [
            {
              "code": "108252007",
              "system": "http://snomed.info/sct",
              "display": "Laboratory procedure"
            }
          ]
        },
        "subject": {
          "reference": "urn:uuid:5ed3c4e7-3d13-4e45-9c96-65b0d58c6aa5",
          "display": "Carole Cooke"
        },
        "requester": {
          "reference": "urn:uuid:214f42e7-8d77-4eb4-8b82-61772b1911a4"
        }
      }
    },
    {
      "fullUrl": "urn:uuid:214f42e7-8d77-4eb4-8b82-61772b1911a4",
      "resource": {
        "resourceType": "PractitionerRole",
        "id": "214f42e7-8d77-4eb4-8b82-61772b1911a4",
        "meta": {
          "profile": [
            "http://hl7.eu/fhir/base/StructureDefinition/practitionerRole-eu"
          ]
        },
        "text": {
          "status": "generated",
          "div": "<div xmlns=\"http://www.w3.org/1999/xhtml\">Provider Role Id: 214f42e7-8d77-4eb4-8b82-61772b1911a4</div>"
        },
        "organization": {
          "reference": "urn:uuid:53ef7645-678a-4565-8df3-f11592091d70"
        }
      }
    },
    {
      "fullUrl": "urn:uuid:53ef7645-678a-4565-8df3-f11592091d70",
      "resource": {
        "resourceType": "Organization",
        "id": "53ef7645-678a-4565-8df3-f11592091d70",
        "meta": {
          "profile": [
            "http://hl7.eu/fhir/base/StructureDefinition/organization-eu"
          ]
        },
        "identifier": [
          {
            "assigner": {
              "display": "HL7 Europe"
            },
            "system": "urn:oid:2.16.840.1.113883.2.51.999",
            "value": "f7a98d21-4149-439a-b587-830413bae92e"
          }
        ],
        "address": [
          {
            "city": "London",
            "postalCode": "SE1 7",
            "country": "United Kingdom"
          }
        ],
        "text": {
          "status": "generated",
          "div": "<div xmlns=\"http://www.w3.org/1999/xhtml\">Provider Organization: Evelina Children&#039;s Hospital</div>"
        },
        "name": "Evelina Children&#039;s Hospital"
      }
    },
    {
      "fullUrl": "urn:uuid:15e2f867-42ca-4b8d-aeb5-f8c40d676bf6",
      "resource": {
        "resourceType": "Specimen",
        "id": "15e2f867-42ca-4b8d-aeb5-f8c40d676bf6",
        "meta": {
          "profile": [
            "http://hl7.eu/fhir/laboratory/StructureDefinition/Specimen-eu-lab"
          ]
        },
        "collection": {
          "collectedDateTime": "2025-06-03"
        },
        "text": {
          "status": "generated",
          "div": "<div xmlns=\"http://www.w3.org/1999/xhtml\"><table class=\"hl7__eu__lab__report\"><tr><th>Specimen</th><th>Collection Date</th></tr><tr><td>Whole blood specimen (specimen)</td><td><span class=\"nb\">03-Jun-2025</span></td></tr></table></div>"
        },
        "type": {
          "coding": [
            {
              "code": "258580003",
              "system": "http://snomed.info/sct",
              "display": "Whole blood specimen (specimen)"
            }
          ]
        }
      }
    },
    {
      "fullUrl": "urn:uuid:15e2f867-42ca-4b8d-aeb5-f8c40d676bf6",
      "resource": {
        "resourceType": "Specimen",
        "id": "15e2f867-42ca-4b8d-aeb5-f8c40d676bf6",
        "meta": {
          "profile": [
            "http://hl7.eu/fhir/laboratory/StructureDefinition/Specimen-eu-lab"
          ]
        },
        "collection": {
          "collectedDateTime": "2025-06-03"
        },
        "text": {
          "status": "generated",
          "div": "<div xmlns=\"http://www.w3.org/1999/xhtml\"><table class=\"hl7__eu__lab__report\"><tr><th>Specimen</th><th>Collection Date</th></tr><tr><td>Whole blood specimen (specimen)</td><td><span class=\"nb\">03-Jun-2025</span></td></tr></table></div>"
        },
        "type": {
          "coding": [
            {
              "code": "258580003",
              "system": "http://snomed.info/sct",
              "display": "Whole blood specimen (specimen)"
            }
          ]
        }
      }
    },
    {
      "fullUrl": "urn:uuid:8b0172a1-3ad8-49ec-8281-dc0be5d810e3",
      "resource": {
        "resourceType": "Observation",
        "id": "8b0172a1-3ad8-49ec-8281-dc0be5d810e3",
        "meta": {
          "profile": [
            "http://hl7.eu/fhir/laboratory/StructureDefinition/Observation-resultslab-eu-lab"
          ]
        },
        "performer": [
          {
            "display": "The Central European Lab"
          }
        ],
        "category": [
          {
            "coding": [
              {
                "system": "http://terminology.hl7.org/CodeSystem/observation-category",
                "code": "laboratory"
              }
            ]
          }
        ],
        "code": {
          "coding": [
            {
              "code": "6690-2",
              "system": "http://loinc.org",
              "display": "Leukocytes [#/volume] in Blood by Automated count"
            }
          ],
          "text": "Leukocytes [#/volume] in Blood by Automated count"
        },
        "valueQuantity": {
          "system": "http://unitsofmeasure.org",
          "value": 3.7,
          "unit": "10*3/uL",
          "code": "10*3/uL"
        },
        "referenceRange": [
          {
            "low": {
              "value": 3.6,
              "code": "10*3/uL",
              "system": "http://unitsofmeasure.org"
            }
          },
          {
            "high": {
              "value": 10.5,
              "code": "10*3/uL",
              "system": "http://unitsofmeasure.org"
            }
          }
        ],
        "text": {
          "status": "generated",
          "div": "<div xmlns=\"http://www.w3.org/1999/xhtml\"><table class=\"hl7__eu__lab__report\"><tr><th>Test</th><th>03-Jun-2025</th><th>Reference&#xA0;Range</th><th>Unit</th></tr><tr><td>Leukocytes [#/volume] in Blood by Automated count</td><td>3.7</td><td>3.6 - 10.5</td><td></td><td>10*3/uL</td></tr></table></div>"
        },
        "status": "final",
        "subject": {
          "reference": "urn:uuid:5ed3c4e7-3d13-4e45-9c96-65b0d58c6aa5",
          "display": "Carole Cooke"
        },
        "effectiveDateTime": "2025-06-03T04:55:51Z",
        "specimen": {
          "reference": "urn:uuid:15e2f867-42ca-4b8d-aeb5-f8c40d676bf6"
        }
      }
    },
    {
      "fullUrl": "urn:uuid:9c00dbfa-1713-4b77-afcc-9c0842984372",
      "resource": {
        "resourceType": "Observation",
        "id": "9c00dbfa-1713-4b77-afcc-9c0842984372",
        "meta": {
          "profile": [
            "http://hl7.eu/fhir/laboratory/StructureDefinition/Observation-resultslab-eu-lab"
          ]
        },
        "performer": [
          {
            "display": "The Central European Lab"
          }
        ],
        "category": [
          {
            "coding": [
              {
                "system": "http://terminology.hl7.org/CodeSystem/observation-category",
                "code": "laboratory"
              }
            ]
          }
        ],
        "code": {
          "coding": [
            {
              "code": "789-8",
              "system": "http://loinc.org",
              "display": "Erythrocytes [#/volume] in Blood by Automated count"
            }
          ],
          "text": "Erythrocytes [#/volume] in Blood by Automated count"
        },
        "valueQuantity": {
          "system": "http://unitsofmeasure.org",
          "value": 5.1,
          "unit": "10*6/uL",
          "code": "10*6/uL"
        },
        "referenceRange": [
          {
            "low": {
              "value": 4.5,
              "code": "10*6/uL",
              "system": "http://unitsofmeasure.org"
            }
          },
          {
            "high": {
              "value": 5.5,
              "code": "10*6/uL",
              "system": "http://unitsofmeasure.org"
            }
          }
        ],
        "text": {
          "status": "generated",
          "div": "<div xmlns=\"http://www.w3.org/1999/xhtml\"><table class=\"hl7__eu__lab__report\"><tr><th>Test</th><th>03-Jun-2025</th><th>Reference&#xA0;Range</th><th>Unit</th></tr><tr><td>Erythrocytes [#/volume] in Blood by Automated count</td><td>5.1</td><td>4.5 - 5.5</td><td></td><td>10*6/uL</td></tr></table></div>"
        },
        "status": "final",
        "subject": {
          "reference": "urn:uuid:5ed3c4e7-3d13-4e45-9c96-65b0d58c6aa5",
          "display": "Carole Cooke"
        },
        "effectiveDateTime": "2025-06-03T04:55:51Z",
        "specimen": {
          "reference": "urn:uuid:15e2f867-42ca-4b8d-aeb5-f8c40d676bf6"
        }
      }
    },
    {
      "fullUrl": "urn:uuid:44fc32a1-4daf-43c7-ac3c-3b40d5bca0f4",
      "resource": {
        "resourceType": "Observation",
        "id": "44fc32a1-4daf-43c7-ac3c-3b40d5bca0f4",
        "meta": {
          "profile": [
            "http://hl7.eu/fhir/laboratory/StructureDefinition/Observation-resultslab-eu-lab"
          ]
        },
        "performer": [
          {
            "display": "The Central European Lab"
          }
        ],
        "category": [
          {
            "coding": [
              {
                "system": "http://terminology.hl7.org/CodeSystem/observation-category",
                "code": "laboratory"
              }
            ]
          }
        ],
        "code": {
          "coding": [
            {
              "code": "718-7",
              "system": "http://loinc.org",
              "display": "Hemoglobin [Mass/volume] in Blood"
            }
          ],
          "text": "Hemoglobin [Mass/volume] in Blood"
        },
        "valueQuantity": {
          "system": "http://unitsofmeasure.org",
          "value": 16.1,
          "unit": "g/dL",
          "code": "g/dL"
        },
        "referenceRange": [
          {
            "low": {
              "value": 12,
              "code": "g/dL",
              "system": "http://unitsofmeasure.org"
            }
          },
          {
            "high": {
              "value": 16,
              "code": "g/dL",
              "system": "http://unitsofmeasure.org"
            }
          }
        ],
        "interpretation": [
          {
            "coding": [
              {
                "code": "H",
                "system": "http://terminology.hl7.org/CodeSystem/v3-ObservationInterpretation",
                "display": "High"
              }
            ]
          }
        ],
        "text": {
          "status": "generated",
          "div": "<div xmlns=\"http://www.w3.org/1999/xhtml\"><table class=\"hl7__eu__lab__report\"><tr><th>Test</th><th>03-Jun-2025</th><th>Reference&#xA0;Range</th><th>Unit</th></tr><tr><td>Hemoglobin [Mass/volume] in Blood</td><td>16.1</td><td>12 - 16</td><td>H</td><td>g/dL</td></tr></table></div>"
        },
        "status": "final",
        "subject": {
          "reference": "urn:uuid:5ed3c4e7-3d13-4e45-9c96-65b0d58c6aa5",
          "display": "Carole Cooke"
        },
        "effectiveDateTime": "2025-06-03T04:55:51Z",
        "specimen": {
          "reference": "urn:uuid:15e2f867-42ca-4b8d-aeb5-f8c40d676bf6"
        }
      }
    },
    {
      "fullUrl": "urn:uuid:c17b5752-dbfa-4e6a-8dff-492c08df49f1",
      "resource": {
        "resourceType": "Observation",
        "id": "c17b5752-dbfa-4e6a-8dff-492c08df49f1",
        "meta": {
          "profile": [
            "http://hl7.eu/fhir/laboratory/StructureDefinition/Observation-resultslab-eu-lab"
          ]
        },
        "performer": [
          {
            "display": "The Central European Lab"
          }
        ],
        "category": [
          {
            "coding": [
              {
                "system": "http://terminology.hl7.org/CodeSystem/observation-category",
                "code": "laboratory"
              }
            ]
          }
        ],
        "code": {
          "coding": [
            {
              "code": "4544-3",
              "system": "http://loinc.org",
              "display": "Hematocrit [Volume Fraction] of Blood by Automated count"
            }
          ],
          "text": "Hematocrit [Volume Fraction] of Blood by Automated count"
        },
        "valueQuantity": {
          "system": "http://unitsofmeasure.org",
          "value": 39.3,
          "unit": "%",
          "code": "%"
        },
        "referenceRange": [
          {
            "low": {
              "value": 36,
              "code": "%",
              "system": "http://unitsofmeasure.org"
            }
          },
          {
            "high": {
              "value": 48,
              "code": "%",
              "system": "http://unitsofmeasure.org"
            }
          }
        ],
        "text": {
          "status": "generated",
          "div": "<div xmlns=\"http://www.w3.org/1999/xhtml\"><table class=\"hl7__eu__lab__report\"><tr><th>Test</th><th>03-Jun-2025</th><th>Reference&#xA0;Range</th><th>Unit</th></tr><tr><td>Hematocrit [Volume Fraction] of Blood by Automated count</td><td>39.3</td><td>36 - 48</td><td></td><td>%</td></tr></table></div>"
        },
        "status": "final",
        "subject": {
          "reference": "urn:uuid:5ed3c4e7-3d13-4e45-9c96-65b0d58c6aa5",
          "display": "Carole Cooke"
        },
        "effectiveDateTime": "2025-06-03T04:55:51Z",
        "specimen": {
          "reference": "urn:uuid:15e2f867-42ca-4b8d-aeb5-f8c40d676bf6"
        }
      }
    },
    {
      "fullUrl": "urn:uuid:6a55e500-fcbc-4fa1-bdfd-d8b25d47d610",
      "resource": {
        "resourceType": "Observation",
        "id": "6a55e500-fcbc-4fa1-bdfd-d8b25d47d610",
        "meta": {
          "profile": [
            "http://hl7.eu/fhir/laboratory/StructureDefinition/Observation-resultslab-eu-lab"
          ]
        },
        "performer": [
          {
            "display": "The Central European Lab"
          }
        ],
        "category": [
          {
            "coding": [
              {
                "system": "http://terminology.hl7.org/CodeSystem/observation-category",
                "code": "laboratory"
              }
            ]
          }
        ],
        "code": {
          "coding": [
            {
              "code": "787-2",
              "system": "http://loinc.org",
              "display": "MCV [Entitic volume] by Automated count"
            }
          ],
          "text": "MCV [Entitic volume] by Automated count"
        },
        "valueQuantity": {
          "system": "http://unitsofmeasure.org",
          "value": 89,
          "unit": "fL",
          "code": "fL"
        },
        "referenceRange": [
          {
            "low": {
              "value": 78,
              "code": "fL",
              "system": "http://unitsofmeasure.org"
            }
          },
          {
            "high": {
              "value": 98,
              "code": "fL",
              "system": "http://unitsofmeasure.org"
            }
          }
        ],
        "text": {
          "status": "generated",
          "div": "<div xmlns=\"http://www.w3.org/1999/xhtml\"><table class=\"hl7__eu__lab__report\"><tr><th>Test</th><th>03-Jun-2025</th><th>Reference&#xA0;Range</th><th>Unit</th></tr><tr><td>MCV [Entitic volume] by Automated count</td><td>89.0</td><td>78 - 98</td><td></td><td>fL</td></tr></table></div>"
        },
        "status": "final",
        "subject": {
          "reference": "urn:uuid:5ed3c4e7-3d13-4e45-9c96-65b0d58c6aa5",
          "display": "Carole Cooke"
        },
        "effectiveDateTime": "2025-06-03T04:55:51Z",
        "specimen": {
          "reference": "urn:uuid:15e2f867-42ca-4b8d-aeb5-f8c40d676bf6"
        }
      }
    },
    {
      "fullUrl": "urn:uuid:5f269d82-8751-4669-b575-dc52f9f47ec7",
      "resource": {
        "resourceType": "Observation",
        "id": "5f269d82-8751-4669-b575-dc52f9f47ec7",
        "meta": {
          "profile": [
            "http://hl7.eu/fhir/laboratory/StructureDefinition/Observation-resultslab-eu-lab"
          ]
        },
        "performer": [
          {
            "display": "The Central European Lab"
          }
        ],
        "category": [
          {
            "coding": [
              {
                "system": "http://terminology.hl7.org/CodeSystem/observation-category",
                "code": "laboratory"
              }
            ]
          }
        ],
        "code": {
          "coding": [
            {
              "code": "785-6",
              "system": "http://loinc.org",
              "display": "MCH [Entitic mass] by Automated count"
            }
          ],
          "text": "MCH [Entitic mass] by Automated count"
        },
        "valueQuantity": {
          "system": "http://unitsofmeasure.org",
          "value": 28,
          "unit": "pg",
          "code": "pg"
        },
        "referenceRange": [
          {
            "low": {
              "value": 27,
              "code": "pg",
              "system": "http://unitsofmeasure.org"
            }
          },
          {
            "high": {
              "value": 33,
              "code": "pg",
              "system": "http://unitsofmeasure.org"
            }
          }
        ],
        "text": {
          "status": "generated",
          "div": "<div xmlns=\"http://www.w3.org/1999/xhtml\"><table class=\"hl7__eu__lab__report\"><tr><th>Test</th><th>03-Jun-2025</th><th>Reference&#xA0;Range</th><th>Unit</th></tr><tr><td>MCH [Entitic mass] by Automated count</td><td>28.0</td><td>27 - 33</td><td></td><td>pg</td></tr></table></div>"
        },
        "status": "final",
        "subject": {
          "reference": "urn:uuid:5ed3c4e7-3d13-4e45-9c96-65b0d58c6aa5",
          "display": "Carole Cooke"
        },
        "effectiveDateTime": "2025-06-03T04:55:51Z",
        "specimen": {
          "reference": "urn:uuid:15e2f867-42ca-4b8d-aeb5-f8c40d676bf6"
        }
      }
    },
    {
      "fullUrl": "urn:uuid:da12b82a-5b67-4127-ac71-bc34d5f77884",
      "resource": {
        "resourceType": "Observation",
        "id": "da12b82a-5b67-4127-ac71-bc34d5f77884",
        "meta": {
          "profile": [
            "http://hl7.eu/fhir/laboratory/StructureDefinition/Observation-resultslab-eu-lab"
          ]
        },
        "performer": [
          {
            "display": "The Central European Lab"
          }
        ],
        "category": [
          {
            "coding": [
              {
                "system": "http://terminology.hl7.org/CodeSystem/observation-category",
                "code": "laboratory"
              }
            ]
          }
        ],
        "code": {
          "coding": [
            {
              "code": "786-4",
              "system": "http://loinc.org",
              "display": "MCHC [Mass/volume] by Automated count"
            }
          ],
          "text": "MCHC [Mass/volume] by Automated count"
        },
        "valueQuantity": {
          "system": "http://unitsofmeasure.org",
          "value": 33,
          "unit": "g/dL",
          "code": "g/dL"
        },
        "referenceRange": [
          {
            "low": {
              "value": 31.5,
              "code": "g/dL",
              "system": "http://unitsofmeasure.org"
            }
          },
          {
            "high": {
              "value": 35,
              "code": "g/dL",
              "system": "http://unitsofmeasure.org"
            }
          }
        ],
        "text": {
          "status": "generated",
          "div": "<div xmlns=\"http://www.w3.org/1999/xhtml\"><table class=\"hl7__eu__lab__report\"><tr><th>Test</th><th>03-Jun-2025</th><th>Reference&#xA0;Range</th><th>Unit</th></tr><tr><td>MCHC [Mass/volume] by Automated count</td><td>33.0</td><td>31.5 - 35</td><td></td><td>g/dL</td></tr></table></div>"
        },
        "status": "final",
        "subject": {
          "reference": "urn:uuid:5ed3c4e7-3d13-4e45-9c96-65b0d58c6aa5",
          "display": "Carole Cooke"
        },
        "effectiveDateTime": "2025-06-03T04:55:51Z",
        "specimen": {
          "reference": "urn:uuid:15e2f867-42ca-4b8d-aeb5-f8c40d676bf6"
        }
      }
    },
    {
      "fullUrl": "urn:uuid:c2e7c9c4-5e31-4028-8df6-b6dbb78cf3da",
      "resource": {
        "resourceType": "Observation",
        "id": "c2e7c9c4-5e31-4028-8df6-b6dbb78cf3da",
        "meta": {
          "profile": [
            "http://hl7.eu/fhir/laboratory/StructureDefinition/Observation-resultslab-eu-lab"
          ]
        },
        "performer": [
          {
            "display": "The Central European Lab"
          }
        ],
        "category": [
          {
            "coding": [
              {
                "system": "http://terminology.hl7.org/CodeSystem/observation-category",
                "code": "laboratory"
              }
            ]
          }
        ],
        "code": {
          "coding": [
            {
              "code": "21000-5",
              "system": "http://loinc.org",
              "display": "Erythrocyte distribution width [Entitic volume] by Automated count"
            }
          ],
          "text": "Erythrocyte distribution width [Entitic volume] by Automated count"
        },
        "valueQuantity": {
          "system": "http://unitsofmeasure.org",
          "value": 40.8,
          "unit": "fL",
          "code": "fL"
        },
        "referenceRange": [
          {
            "low": {
              "value": 36,
              "code": "fL",
              "system": "http://unitsofmeasure.org"
            }
          },
          {
            "high": {
              "value": 55,
              "code": "fL",
              "system": "http://unitsofmeasure.org"
            }
          }
        ],
        "text": {
          "status": "generated",
          "div": "<div xmlns=\"http://www.w3.org/1999/xhtml\"><table class=\"hl7__eu__lab__report\"><tr><th>Test</th><th>03-Jun-2025</th><th>Reference&#xA0;Range</th><th>Unit</th></tr><tr><td>Erythrocyte distribution width [Entitic volume] by Automated count</td><td>40.8</td><td>36 - 55</td><td></td><td>fL</td></tr></table></div>"
        },
        "status": "final",
        "subject": {
          "reference": "urn:uuid:5ed3c4e7-3d13-4e45-9c96-65b0d58c6aa5",
          "display": "Carole Cooke"
        },
        "effectiveDateTime": "2025-06-03T04:55:51Z",
        "specimen": {
          "reference": "urn:uuid:15e2f867-42ca-4b8d-aeb5-f8c40d676bf6"
        }
      }
    },
    {
      "fullUrl": "urn:uuid:9641a5e1-69ac-4ed8-8c66-910db8d9d3a4",
      "resource": {
        "resourceType": "Observation",
        "id": "9641a5e1-69ac-4ed8-8c66-910db8d9d3a4",
        "meta": {
          "profile": [
            "http://hl7.eu/fhir/laboratory/StructureDefinition/Observation-resultslab-eu-lab"
          ]
        },
        "performer": [
          {
            "display": "The Central European Lab"
          }
        ],
        "category": [
          {
            "coding": [
              {
                "system": "http://terminology.hl7.org/CodeSystem/observation-category",
                "code": "laboratory"
              }
            ]
          }
        ],
        "code": {
          "coding": [
            {
              "code": "777-3",
              "system": "http://loinc.org",
              "display": "Platelets [#/volume] in Blood by Automated count"
            }
          ],
          "text": "Platelets [#/volume] in Blood by Automated count"
        },
        "valueQuantity": {
          "system": "http://unitsofmeasure.org",
          "value": 380.5,
          "unit": "10*3/uL",
          "code": "10*3/uL"
        },
        "referenceRange": [
          {
            "low": {
              "value": 150,
              "code": "10*3/uL",
              "system": "http://unitsofmeasure.org"
            }
          },
          {
            "high": {
              "value": 450,
              "code": "10*3/uL",
              "system": "http://unitsofmeasure.org"
            }
          }
        ],
        "text": {
          "status": "generated",
          "div": "<div xmlns=\"http://www.w3.org/1999/xhtml\"><table class=\"hl7__eu__lab__report\"><tr><th>Test</th><th>03-Jun-2025</th><th>Reference&#xA0;Range</th><th>Unit</th></tr><tr><td>Platelets [#/volume] in Blood by Automated count</td><td>380.5</td><td>150 - 450</td><td></td><td>10*3/uL</td></tr></table></div>"
        },
        "status": "final",
        "subject": {
          "reference": "urn:uuid:5ed3c4e7-3d13-4e45-9c96-65b0d58c6aa5",
          "display": "Carole Cooke"
        },
        "effectiveDateTime": "2025-06-03T04:55:51Z",
        "specimen": {
          "reference": "urn:uuid:15e2f867-42ca-4b8d-aeb5-f8c40d676bf6"
        }
      }
    },
    {
      "fullUrl": "urn:uuid:60f41058-d6a2-42e1-b343-2b9e91b7cfb3",
      "resource": {
        "resourceType": "Observation",
        "id": "60f41058-d6a2-42e1-b343-2b9e91b7cfb3",
        "meta": {
          "profile": [
            "http://hl7.eu/fhir/laboratory/StructureDefinition/Observation-resultslab-eu-lab"
          ]
        },
        "performer": [
          {
            "display": "The Central European Lab"
          }
        ],
        "category": [
          {
            "coding": [
              {
                "system": "http://terminology.hl7.org/CodeSystem/observation-category",
                "code": "laboratory"
              }
            ]
          }
        ],
        "code": {
          "coding": [
            {
              "code": "32207-3",
              "system": "http://loinc.org",
              "display": "Platelet distribution width [Entitic volume] in Blood by Automated count"
            }
          ],
          "text": "Platelet distribution width [Entitic volume] in Blood by Automated count"
        },
        "valueQuantity": {
          "system": "http://unitsofmeasure.org",
          "value": 475.4,
          "unit": "fL",
          "code": "fL"
        },
        "referenceRange": [
          {
            "low": {
              "value": 13.4,
              "code": "fL",
              "system": "http://unitsofmeasure.org"
            }
          },
          {
            "high": {
              "value": 17.4,
              "code": "fL",
              "system": "http://unitsofmeasure.org"
            }
          }
        ],
        "interpretation": [
          {
            "coding": [
              {
                "code": "H",
                "system": "http://terminology.hl7.org/CodeSystem/v3-ObservationInterpretation",
                "display": "High"
              }
            ]
          }
        ],
        "text": {
          "status": "generated",
          "div": "<div xmlns=\"http://www.w3.org/1999/xhtml\"><table class=\"hl7__eu__lab__report\"><tr><th>Test</th><th>03-Jun-2025</th><th>Reference&#xA0;Range</th><th>Unit</th></tr><tr><td>Platelet distribution width [Entitic volume] in Blood by Automated count</td><td>475.4</td><td>13.4 - 17.4</td><td>H</td><td>fL</td></tr></table></div>"
        },
        "status": "final",
        "subject": {
          "reference": "urn:uuid:5ed3c4e7-3d13-4e45-9c96-65b0d58c6aa5",
          "display": "Carole Cooke"
        },
        "effectiveDateTime": "2025-06-03T04:55:51Z",
        "specimen": {
          "reference": "urn:uuid:15e2f867-42ca-4b8d-aeb5-f8c40d676bf6"
        }
      }
    },
    {
      "fullUrl": "urn:uuid:aa236e70-b416-4273-9fea-64bfa2ca7037",
      "resource": {
        "resourceType": "Observation",
        "id": "aa236e70-b416-4273-9fea-64bfa2ca7037",
        "meta": {
          "profile": [
            "http://hl7.eu/fhir/laboratory/StructureDefinition/Observation-resultslab-eu-lab"
          ]
        },
        "performer": [
          {
            "display": "The Central European Lab"
          }
        ],
        "category": [
          {
            "coding": [
              {
                "system": "http://terminology.hl7.org/CodeSystem/observation-category",
                "code": "laboratory"
              }
            ]
          }
        ],
        "code": {
          "coding": [
            {
              "code": "32623-1",
              "system": "http://loinc.org",
              "display": "Platelet mean volume [Entitic volume] in Blood by Automated count"
            }
          ],
          "text": "Platelet mean volume [Entitic volume] in Blood by Automated count"
        },
        "valueQuantity": {
          "system": "http://unitsofmeasure.org",
          "value": 10.8,
          "unit": "fL",
          "code": "fL"
        },
        "referenceRange": [
          {
            "low": {
              "value": 9.7,
              "code": "fL",
              "system": "http://unitsofmeasure.org"
            }
          },
          {
            "high": {
              "value": 12,
              "code": "fL",
              "system": "http://unitsofmeasure.org"
            }
          }
        ],
        "text": {
          "status": "generated",
          "div": "<div xmlns=\"http://www.w3.org/1999/xhtml\"><table class=\"hl7__eu__lab__report\"><tr><th>Test</th><th>03-Jun-2025</th><th>Reference&#xA0;Range</th><th>Unit</th></tr><tr><td>Platelet mean volume [Entitic volume] in Blood by Automated count</td><td>10.8</td><td>9.7 - 12</td><td></td><td>fL</td></tr></table></div>"
        },
        "status": "final",
        "subject": {
          "reference": "urn:uuid:5ed3c4e7-3d13-4e45-9c96-65b0d58c6aa5",
          "display": "Carole Cooke"
        },
        "effectiveDateTime": "2025-06-03T04:55:51Z",
        "specimen": {
          "reference": "urn:uuid:15e2f867-42ca-4b8d-aeb5-f8c40d676bf6"
        }
      }
    },
    {
      "fullUrl": "urn:uuid:5398771d-315f-4e29-aa59-6e65faa5c3f0",
      "resource": {
        "resourceType": "Device",
        "id": "5398771d-315f-4e29-aa59-6e65faa5c3f0",
        "deviceName": [
          {
            "name": "SYNDERAI Synthetic Generator",
            "type": "manufacturer-name"
          }
        ],
        "version": [
          {
            "value": "5.0"
          }
        ],
        "text": {
          "status": "generated",
          "div": "<div xmlns=\"http://www.w3.org/1999/xhtml\">SYNDERAI Synthetic Generator v5.0</div>"
        },
        "status": "active\"",
        "distinctIdentifier": "synderai-generator-50",
        "manufacturer": "SYNDERAI Project"
      }
    },
    {
      "fullUrl": "urn:uuid:f9376d2a-0119-4fe6-b830-744d54eade31",
      "resource": {
        "resourceType": "Provenance",
        "id": "f9376d2a-0119-4fe6-b830-744d54eade31",
        "target": [
          {
            "reference": "Patient/5ed3c4e7-3d13-4e45-9c96-65b0d58c6aa5"
          },
          {
            "reference": "Bundle/1e634745-a77b-48a8-9a0b-cb600ee97b09"
          },
          {
            "reference": "Composition/ee9fbd08-8d18-40d4-a0c2-16fb31669c56"
          },
          {
            "reference": "PractitionerRole/825f6ace-d21d-44d5-873d-97159d4d2f98"
          },
          {
            "reference": "Practitioner/99149763-b23e-4f59-ac6b-1f9792a374db"
          },
          {
            "reference": "PractitionerRole/214f42e7-8d77-4eb4-8b82-61772b1911a4"
          },
          {
            "reference": "Organization/53ef7645-678a-4565-8df3-f11592091d70"
          }
        ],
        "activity": {
          "text": "Synthetic Example Data Generation"
        },
        "policy": [
          "https://synderai.net/synderai-synthetic-data-policy"
        ],
        "agent": [
          {
            "type": {
              "text": "author"
            },
            "who": {
              "reference": "Device/5398771d-315f-4e29-aa59-6e65faa5c3f0"
            }
          }
        ],
        "reason": [
          {
            "text": "Interoperability Testing and Training (non-clinical use)"
          }
        ],
        "text": {
          "status": "generated",
          "div": "<div xmlns=\"http://www.w3.org/1999/xhtml\">Provenance for SYNDERAI Synthetic Example Data Resource</div>"
        },
        "recorded": "2025-06-03T06:55:51Z"
      }
    },
    {
      "fullUrl": "urn:uuid:825f6ace-d21d-44d5-873d-97159d4d2f98",
      "resource": {
        "resourceType": "PractitionerRole",
        "id": "825f6ace-d21d-44d5-873d-97159d4d2f98",
        "meta": {
          "profile": [
            "http://hl7.eu/fhir/base/StructureDefinition/practitionerRole-eu"
          ]
        },
        "text": {
          "status": "generated",
          "div": "<div xmlns=\"http://www.w3.org/1999/xhtml\">Laboratory Role Id: 825f6ace-d21d-44d5-873d-97159d4d2f98</div>"
        },
        "practitioner": {
          "reference": "urn:uuid:99149763-b23e-4f59-ac6b-1f9792a374db"
        }
      }
    },
    {
      "fullUrl": "urn:uuid:99149763-b23e-4f59-ac6b-1f9792a374db",
      "resource": {
        "resourceType": "Practitioner",
        "id": "99149763-b23e-4f59-ac6b-1f9792a374db",
        "meta": {
          "profile": [
            "http://hl7.eu/fhir/base/StructureDefinition/practitioner-eu"
          ]
        },
        "identifier": [
          {
            "assigner": {
              "display": "HL7 Europe"
            },
            "system": "urn:oid:2.16.840.1.113883.2.51.999",
            "value": "7b119dc2-e7b1-4f50-ad6d-116852cc98f6"
          }
        ],
        "name": [
          {
            "prefix": [
              "dr"
            ],
            "given": [
              "Ex"
            ],
            "family": "Ample"
          }
        ],
        "address": [
          {
            "line": [
              "Laboratoire Central Européenne",
              "Boulevard du Jardin Botanique 32"
            ],
            "postalCode": "1000",
            "city": "Brussels",
            "country": "Belgium"
          }
        ],
        "text": {
          "status": "generated",
          "div": "<div xmlns=\"http://www.w3.org/1999/xhtml\">Laboratory: Laboratoire Central Européenne, 1000 Brussels, Belgium</div>"
        }
      }
    }
  ],
  "type": "document",
  "timestamp": "2025-06-03T06:55:51Z"
}
