{
  "resourceType": "Bundle",
  "id": "e901d158-13ac-4225-b0a7-9916b0443843",
  "meta": {
    "profile": [
      "http://hl7.eu/fhir/laboratory/StructureDefinition/Bundle-eu-lab"
    ]
  },
  "identifier": {
    "assigner": {
      "display": "HL7 Europe"
    },
    "system": "urn:oid:2.16.840.1.113883.2.51.999",
    "value": "8381454d-f017-4b14-b749-1f562f50e453"
  },
  "entry": [
    {
      "fullUrl": "urn:uuid:e3ef7f2b-badd-44cd-a893-565f3ae5671a",
      "resource": {
        "resourceType": "Composition",
        "id": "e3ef7f2b-badd-44cd-a893-565f3ae5671a",
        "meta": {
          "profile": [
            "http://hl7.eu/fhir/laboratory/StructureDefinition/Composition-eu-lab"
          ]
        },
        "identifier": {
          "assigner": {
            "display": "HL7 Europe"
          },
          "system": "urn:oid:2.16.840.1.113883.2.51.999",
          "value": "6062ad36-0887-4b4e-938a-0034954bb3bb"
        },
        "author": [
          {
            "reference": "urn:uuid:c9cb5882-8657-4536-b015-7e1ed19ed610"
          }
        ],
        "category": [
          {
            "coding": [
              {
                "code": "26436-6",
                "system": "http://loinc.org",
                "display": "Laboratory studies (set)"
              }
            ]
          }
        ],
        "type": {
          "coding": [
            {
              "code": "11502-2",
              "system": "http://loinc.org",
              "display": "Laboratory report"
            }
          ],
          "text": "Laboratory Report"
        },
        "section": [
          {
            "code": {
              "coding": [
                {
                  "code": "26436-6",
                  "system": "http://loinc.org",
                  "display": "Laboratory studies (set)"
                }
              ],
              "text": "Laboratory studies"
            },
            "section": [
              {
                "code": {
                  "coding": [
                    {
                      "code": "$18719-5",
                      "system": "http://loinc.org",
                      "display": "Chemistry studies (set)"
                    }
                  ],
                  "text": "Chemistry"
                },
                "entry": [
                  {
                    "reference": "urn:uuid:0634f708-40dc-4fe1-969e-6343aab0b39f"
                  },
                  {
                    "reference": "urn:uuid:b8344db8-e89c-4ce6-bb0e-dda87d7eed82"
                  },
                  {
                    "reference": "urn:uuid:5ceab6eb-6c11-4655-8da1-8b56d4fec209"
                  },
                  {
                    "reference": "urn:uuid:f489bd33-3d66-4f61-9950-2f806f54013f"
                  },
                  {
                    "reference": "urn:uuid:a5b2aa58-cb54-498f-9c53-99fe2b514e30"
                  },
                  {
                    "reference": "urn:uuid:5274b2a2-39a1-41a6-9b8e-2640fc4ff80b"
                  },
                  {
                    "reference": "urn:uuid:3f995d82-1032-422f-b562-be446a640d7c"
                  },
                  {
                    "reference": "urn:uuid:5ef2cc1b-83b0-4403-9669-eb22e3069fd7"
                  },
                  {
                    "reference": "urn:uuid:6c0f1680-f934-47f2-9187-18f4b3efa17b"
                  },
                  {
                    "reference": "urn:uuid:6aa06878-3fec-46f5-8336-1fa6f3339998"
                  },
                  {
                    "reference": "urn:uuid:2e2698e9-caed-4139-86ca-37439569d413"
                  },
                  {
                    "reference": "urn:uuid:ccbd9931-fce3-4497-a99f-0396dce53a93"
                  },
                  {
                    "reference": "urn:uuid:3ca04a4c-db2b-4523-9197-0f717c596cc8"
                  },
                  {
                    "reference": "urn:uuid:6220acfd-7bc6-4dad-b009-39e8ce434ebe"
                  },
                  {
                    "reference": "urn:uuid:817f4e75-f908-470d-ba38-add62e04bde3"
                  },
                  {
                    "reference": "urn:uuid:9c2b06d4-49a5-4476-ad79-83bfd5a3ebfa"
                  },
                  {
                    "reference": "urn:uuid:20ed5153-a448-4f3d-8472-94961a970d61"
                  },
                  {
                    "reference": "urn:uuid:dd6c9c8c-6348-4556-838b-fbb952ef7066"
                  },
                  {
                    "reference": "urn:uuid:28653cd0-602a-42bb-b9c2-24d10c98e5d8"
                  }
                ],
                "text": {
                  "status": "generated",
                  "div": "<div xmlns=\"http://www.w3.org/1999/xhtml\"><h3>Chemistry</h3><table class=\"hl7__eu__lab__report\"><thead><tr><th>Test</th><th>16-OCT-2016</th><th>Reference&#xA0;Range</th><th>Unit</th></tr></thead><tbody><tr><td>Glucose [Mass/volume] in Blood</td><td><strong>67.3 L</strong></td><td>70 - 140</td><td>mg/dL</td></tr><tr><td>Urea nitrogen [Mass/volume] in Blood</td><td>8.1</td><td>7 - 25</td><td>mg/dL</td></tr><tr><td>Creatinine [Mass/volume] in Blood</td><td><strong>2.6 H</strong></td><td>0.6 - 1.1</td><td>mg/dL</td></tr><tr><td>Calcium [Mass/volume] in Blood</td><td>10.2</td><td>8.6 - 10.4</td><td>mg/dL</td></tr><tr><td>Sodium [Moles/volume] in Blood</td><td>142.8</td><td>135 - 145</td><td>mmol/L</td></tr><tr><td>Potassium [Moles/volume] in Blood</td><td>4.7</td><td>3.5 - 5.3</td><td>mmol/L</td></tr><tr><td>Chloride [Moles/volume] in Blood</td><td><strong>109.1 H</strong></td><td>98 - 108</td><td>mmol/L</td></tr><tr><td>Carbon dioxide, total [Moles/volume] in Blood</td><td>25.1</td><td>22 - 32</td><td>mmol/L</td></tr><tr><td>Protein [Mass/volume] in Serum or Plasma</td><td>7.6</td><td>6.6 - 8.3</td><td>g/dL</td></tr><tr><td>Albumin [Mass/volume] in Serum or Plasma</td><td>5.1</td><td>3.5 - 5.5</td><td>g/dL</td></tr><tr><td>Globulin [Mass/volume] in Serum by calculation</td><td><strong>2.1 L</strong></td><td>2.2 - 3.7</td><td>g/L</td></tr><tr><td>Bilirubin.total [Mass/volume] in Serum or Plasma</td><td>0.9</td><td>0.3 - 1.2</td><td>mg/dL</td></tr><tr><td>Alkaline phosphatase [Enzymatic activity/volume] in Serum or Plasma</td><td>103.6</td><td>40 - 130</td><td>U/L</td></tr><tr><td>Alanine aminotransferase [Enzymatic activity/volume] in Serum or Plasma</td><td>32.0</td><td>7 - 55</td><td>U/L</td></tr><tr><td>Aspartate aminotransferase [Enzymatic activity/volume] in Serum or Plasma</td><td>37.6</td><td>10 - 40</td><td>U/L</td></tr><tr><td>Cholesterol [Mass/volume] in Serum or Plasma</td><td><strong>201.5 H</strong></td><td>125 - 200</td><td>mg/dL</td></tr><tr><td>Triglyceride [Mass/volume] in Serum or Plasma</td><td>128.7</td><td>10 - 175</td><td>mg/dL</td></tr><tr><td>Cholesterol in LDL [Mass/volume] in Serum or Plasma by Direct assay</td><td>87.3</td><td>0 - 130</td><td>mg/dL</td></tr><tr><td>Cholesterol in HDL [Mass/volume] in Serum or Plasma</td><td><strong>48.1 L</strong></td><td>50 - 100</td><td>mg/dL</td></tr></tbody></table></div>"
                },
                "title": "Chemistry"
              }
            ],
            "title": "Laboratory Report"
          },
          {
            "text": {
              "status": "generated",
              "div": "<div xmlns=\"http://www.w3.org/1999/xhtml\"><h3>Annotation</h3><table class=\"hl7__eu__lab__report\"><tr><th>Conclusion and Recommendations based on this report and previous findings known to us</th></tr><tr><td>The patient shows mild hypoglycemia, elevated creatinine suggesting impaired renal function, mild hyperchloremia, low globulin, slightly elevated total cholesterol, and low HDL cholesterol. Liver enzymes and other electrolytes are within normal limits. Findings indicate possible chronic kidney disease and increased cardiovascular risk; clinical correlation and further evaluation are recommended.</td></tr></table></div>"
            },
            "code": {
              "coding": [
                {
                  "system": "http://loinc.org",
                  "code": "48767-8",
                  "display": "Annotation comment"
                }
              ]
            },
            "title": "Annotation comment"
          }
        ],
        "status": "final",
        "subject": {
          "reference": "urn:uuid:79862951-9d6a-48d6-a223-0d91d89de25f",
          "display": "Helene Andresen"
        },
        "date": "2016-10-16T00:53:36Z",
        "title": "Laboratory Report",
        "confidentiality": "N"
      }
    },
    {
      "fullUrl": "urn:uuid:4f33a833-bef7-49d6-9072-a49f5a71f9b5",
      "resource": {
        "resourceType": "DiagnosticReport",
        "id": "4f33a833-bef7-49d6-9072-a49f5a71f9b5",
        "meta": {
          "profile": [
            "http://hl7.eu/fhir/laboratory/StructureDefinition/DiagnosticReport-eu-lab"
          ]
        },
        "identifier": [
          {
            "assigner": {
              "display": "HL7 Europe"
            },
            "system": "urn:oid:2.16.840.1.113883.2.51.999",
            "value": "4c802835-ddb0-49b6-bed3-c571d406d3ac"
          }
        ],
        "extension": [
          {
            "url": "http://hl7.org/fhir/5.0/StructureDefinition/extension-DiagnosticReport.composition",
            "valueReference": {
              "reference": "urn:uuid:6062ad36-0887-4b4e-938a-0034954bb3bb"
            }
          }
        ],
        "category": [
          {
            "coding": [
              {
                "code": "26436-6",
                "system": "http://loinc.org",
                "display": "Laboratory studies (set)"
              }
            ]
          }
        ],
        "specimen": [
          {
            "reference": "urn:uuid:061145aa-a73b-4478-8e05-44eaaa4402ee"
          },
          {
            "reference": "urn:uuid:6c1dc049-fe05-45df-a83d-da2b9c49aa91"
          },
          {
            "reference": "urn:uuid:546b4182-168c-44a3-8dba-5ae5d9047b60"
          }
        ],
        "result": [
          {
            "reference": "urn:uuid:0634f708-40dc-4fe1-969e-6343aab0b39f"
          },
          {
            "reference": "urn:uuid:b8344db8-e89c-4ce6-bb0e-dda87d7eed82"
          },
          {
            "reference": "urn:uuid:5ceab6eb-6c11-4655-8da1-8b56d4fec209"
          },
          {
            "reference": "urn:uuid:f489bd33-3d66-4f61-9950-2f806f54013f"
          },
          {
            "reference": "urn:uuid:a5b2aa58-cb54-498f-9c53-99fe2b514e30"
          },
          {
            "reference": "urn:uuid:5274b2a2-39a1-41a6-9b8e-2640fc4ff80b"
          },
          {
            "reference": "urn:uuid:3f995d82-1032-422f-b562-be446a640d7c"
          },
          {
            "reference": "urn:uuid:5ef2cc1b-83b0-4403-9669-eb22e3069fd7"
          },
          {
            "reference": "urn:uuid:6c0f1680-f934-47f2-9187-18f4b3efa17b"
          },
          {
            "reference": "urn:uuid:6aa06878-3fec-46f5-8336-1fa6f3339998"
          },
          {
            "reference": "urn:uuid:2e2698e9-caed-4139-86ca-37439569d413"
          },
          {
            "reference": "urn:uuid:ccbd9931-fce3-4497-a99f-0396dce53a93"
          },
          {
            "reference": "urn:uuid:3ca04a4c-db2b-4523-9197-0f717c596cc8"
          },
          {
            "reference": "urn:uuid:6220acfd-7bc6-4dad-b009-39e8ce434ebe"
          },
          {
            "reference": "urn:uuid:817f4e75-f908-470d-ba38-add62e04bde3"
          },
          {
            "reference": "urn:uuid:9c2b06d4-49a5-4476-ad79-83bfd5a3ebfa"
          },
          {
            "reference": "urn:uuid:20ed5153-a448-4f3d-8472-94961a970d61"
          },
          {
            "reference": "urn:uuid:dd6c9c8c-6348-4556-838b-fbb952ef7066"
          },
          {
            "reference": "urn:uuid:28653cd0-602a-42bb-b9c2-24d10c98e5d8"
          }
        ],
        "status": "registered",
        "code": {
          "coding": [
            {
              "code": "11502-2",
              "system": "http://loinc.org",
              "display": "Laboratory report"
            }
          ]
        },
        "subject": {
          "reference": "urn:uuid:79862951-9d6a-48d6-a223-0d91d89de25f",
          "display": "Helene Andresen"
        }
      }
    },
    {
      "fullUrl": "urn:uuid:79862951-9d6a-48d6-a223-0d91d89de25f",
      "resource": {
        "resourceType": "Patient",
        "id": "79862951-9d6a-48d6-a223-0d91d89de25f",
        "meta": {
          "security": [
            {
              "system": "http://terminology.hl7.org/CodeSystem/v3-ActReason",
              "code": "HTEST"
            },
            {
              "system": "http://terminology.hl7.org/CodeSystem/v3-ActReason",
              "code": "TRAIN"
            }
          ],
          "tag": [
            {
              "system": "https://synderai.net/fhir/CodeSystem/tags",
              "code": "synthetic",
              "display": "SYNDERAI Synthetic data"
            }
          ],
          "profile": [
            "http://hl7.eu/fhir/base/StructureDefinition/patient-eu-core"
          ]
        },
        "identifier": [
          {
            "type": {
              "coding": [
                {
                  "code": "PT",
                  "system": "http://terminology.hl7.org/CodeSystem/v2-0203"
                }
              ]
            },
            "system": "http://ec.europa.eu/identifier/eci",
            "value": "3450-170343-2"
          },
          {
            "type": {
              "coding": [
                {
                  "code": "MR",
                  "system": "http://terminology.hl7.org/CodeSystem/v2-0203"
                }
              ]
            },
            "system": "http://local.setting.eu/identifier",
            "value": "72e91c9c-0b01-42b0-a6a0-6dcc70aeec49"
          }
        ],
        "name": [
          {
            "family": "Andresen"
          },
          {
            "given": [
              "Helene"
            ]
          },
          {
            "text": "Helene Andresen"
          }
        ],
        "address": [
          {
            "line": [
              "Kristiansenberget 2"
            ],
            "use": "home",
            "type": "physical",
            "postalCode": "0172",
            "city": "Sørensen",
            "country": "Norway"
          }
        ],
        "telecom": [
          {
            "system": "phone",
            "value": "53 98 86 24"
          }
        ],
        "extension": [
          {
            "url": "http://hl7.org/fhir/StructureDefinition/patient-nationality",
            "valueCodeableConcept": {
              "coding": [
                {
                  "code": "NO",
                  "system": "http://hl7.org/fhir/ValueSet/country"
                }
              ]
            }
          }
        ],
        "text": {
          "status": "generated",
          "div": "<div xmlns=\"http://www.w3.org/1999/xhtml\"><table class=\"hl7__ips\"><tr><td>Helene Andresen</td><td>female</td><td>17-Oct-1939</td></tr></table></div>"
        },
        "gender": "female",
        "birthDate": "1939-10-17"
      }
    },
    {
      "fullUrl": "urn:uuid:5a7223b2-923a-4551-81b5-32f6697e1794",
      "resource": {
        "resourceType": "ServiceRequest",
        "id": "5a7223b2-923a-4551-81b5-32f6697e1794",
        "meta": {
          "profile": [
            "http://hl7.eu/fhir/laboratory/StructureDefinition/ServiceRequest-eu-lab"
          ]
        },
        "identifier": [
          {
            "system": "http://example.org",
            "value": "a48059f3-106c-4574-b339-73dc03b55ca4"
          }
        ],
        "specimen": [
          {
            "reference": "urn:uuid:061145aa-a73b-4478-8e05-44eaaa4402ee"
          },
          {
            "reference": "urn:uuid:6c1dc049-fe05-45df-a83d-da2b9c49aa91"
          },
          {
            "reference": "urn:uuid:546b4182-168c-44a3-8dba-5ae5d9047b60"
          }
        ],
        "reasonCode": [
          {
            "coding": [
              {
                "code": "64859006",
                "system": "http://snomed.info/sct",
                "display": "Osteoporosis"
              }
            ]
          },
          {
            "coding": [
              {
                "code": "40055000",
                "system": "http://snomed.info/sct",
                "display": "Chronic sinusitis"
              }
            ]
          },
          {
            "coding": [
              {
                "code": "55822004",
                "system": "http://snomed.info/sct",
                "display": "Hyperlipidemia"
              }
            ]
          },
          {
            "coding": [
              {
                "code": "271737000",
                "system": "http://snomed.info/sct",
                "display": "Anemia"
              }
            ]
          },
          {
            "coding": [
              {
                "code": "15777000",
                "system": "http://snomed.info/sct",
                "display": "Prediabetes"
              }
            ]
          },
          {
            "coding": [
              {
                "code": "128613002",
                "system": "http://snomed.info/sct",
                "display": "Seizure disorder"
              }
            ]
          }
        ],
        "status": "active",
        "intent": "order",
        "code": {
          "coding": [
            {
              "code": "108252007",
              "system": "http://snomed.info/sct",
              "display": "Laboratory procedure"
            }
          ]
        },
        "subject": {
          "reference": "urn:uuid:79862951-9d6a-48d6-a223-0d91d89de25f",
          "display": "Helene Andresen"
        },
        "requester": {
          "reference": "urn:uuid:7db2212d-fc51-4128-b8a1-bca1733b3adb"
        }
      }
    },
    {
      "fullUrl": "urn:uuid:7db2212d-fc51-4128-b8a1-bca1733b3adb",
      "resource": {
        "resourceType": "PractitionerRole",
        "id": "7db2212d-fc51-4128-b8a1-bca1733b3adb",
        "meta": {
          "profile": [
            "http://hl7.eu/fhir/base/StructureDefinition/practitionerRole-eu"
          ]
        },
        "text": {
          "status": "generated",
          "div": "<div xmlns=\"http://www.w3.org/1999/xhtml\">Provider Role Id: 7db2212d-fc51-4128-b8a1-bca1733b3adb</div>"
        },
        "organization": {
          "reference": "urn:uuid:1acad8f4-f526-4417-84f0-e40805a16f30"
        }
      }
    },
    {
      "fullUrl": "urn:uuid:1acad8f4-f526-4417-84f0-e40805a16f30",
      "resource": {
        "resourceType": "Organization",
        "id": "1acad8f4-f526-4417-84f0-e40805a16f30",
        "meta": {
          "profile": [
            "http://hl7.eu/fhir/base/StructureDefinition/organization-eu"
          ]
        },
        "identifier": [
          {
            "assigner": {
              "display": "HL7 Europe"
            },
            "system": "urn:oid:2.16.840.1.113883.2.51.999",
            "value": "6e736993-0131-4e32-baa1-19d4e2c6da7f"
          }
        ],
        "address": [
          {
            "city": "Oslo",
            "postalCode": "0155",
            "country": "Norway"
          }
        ],
        "text": {
          "status": "generated",
          "div": "<div xmlns=\"http://www.w3.org/1999/xhtml\">Provider Organization: Oslo universitetssykehus (Ullevål)</div>"
        },
        "name": "Oslo universitetssykehus (Ullevål)"
      }
    },
    {
      "fullUrl": "urn:uuid:061145aa-a73b-4478-8e05-44eaaa4402ee",
      "resource": {
        "resourceType": "Specimen",
        "id": "061145aa-a73b-4478-8e05-44eaaa4402ee",
        "meta": {
          "profile": [
            "http://hl7.eu/fhir/laboratory/StructureDefinition/Specimen-eu-lab"
          ]
        },
        "collection": {
          "collectedDateTime": "2016-10-15"
        },
        "text": {
          "status": "generated",
          "div": "<div xmlns=\"http://www.w3.org/1999/xhtml\"><table class=\"hl7__eu__lab__report\"><tr><th>Specimen</th><th>Collection Date</th></tr><tr><td>Whole blood specimen (specimen)</td><td><span class=\"nb\">15-Oct-2016</span></td></tr></table></div>"
        },
        "type": {
          "coding": [
            {
              "code": "258580003",
              "system": "http://snomed.info/sct",
              "display": "Whole blood specimen (specimen)"
            }
          ]
        }
      }
    },
    {
      "fullUrl": "urn:uuid:6c1dc049-fe05-45df-a83d-da2b9c49aa91",
      "resource": {
        "resourceType": "Specimen",
        "id": "6c1dc049-fe05-45df-a83d-da2b9c49aa91",
        "meta": {
          "profile": [
            "http://hl7.eu/fhir/laboratory/StructureDefinition/Specimen-eu-lab"
          ]
        },
        "collection": {
          "collectedDateTime": "2016-10-15"
        },
        "text": {
          "status": "generated",
          "div": "<div xmlns=\"http://www.w3.org/1999/xhtml\"><table class=\"hl7__eu__lab__report\"><tr><th>Specimen</th><th>Collection Date</th></tr><tr><td>Acellular blood (serum or plasma) specimen</td><td><span class=\"nb\">15-Oct-2016</span></td></tr></table></div>"
        },
        "type": {
          "coding": [
            {
              "code": "122592007",
              "system": "http://snomed.info/sct",
              "display": "Acellular blood (serum or plasma) specimen"
            }
          ]
        }
      }
    },
    {
      "fullUrl": "urn:uuid:546b4182-168c-44a3-8dba-5ae5d9047b60",
      "resource": {
        "resourceType": "Specimen",
        "id": "546b4182-168c-44a3-8dba-5ae5d9047b60",
        "meta": {
          "profile": [
            "http://hl7.eu/fhir/laboratory/StructureDefinition/Specimen-eu-lab"
          ]
        },
        "collection": {
          "collectedDateTime": "2016-10-15"
        },
        "text": {
          "status": "generated",
          "div": "<div xmlns=\"http://www.w3.org/1999/xhtml\"><table class=\"hl7__eu__lab__report\"><tr><th>Specimen</th><th>Collection Date</th></tr><tr><td>Serum specimen</td><td><span class=\"nb\">15-Oct-2016</span></td></tr></table></div>"
        },
        "type": {
          "coding": [
            {
              "code": "119364003",
              "system": "http://snomed.info/sct",
              "display": "Serum specimen"
            }
          ]
        }
      }
    },
    {
      "fullUrl": "urn:uuid:0634f708-40dc-4fe1-969e-6343aab0b39f",
      "resource": {
        "resourceType": "Observation",
        "id": "0634f708-40dc-4fe1-969e-6343aab0b39f",
        "meta": {
          "profile": [
            "http://hl7.eu/fhir/laboratory/StructureDefinition/Observation-resultslab-eu-lab"
          ]
        },
        "performer": [
          {
            "display": "The Central European Lab"
          }
        ],
        "category": [
          {
            "coding": [
              {
                "system": "http://terminology.hl7.org/CodeSystem/observation-category",
                "code": "laboratory"
              }
            ]
          }
        ],
        "code": {
          "coding": [
            {
              "code": "2339-0",
              "system": "http://loinc.org",
              "display": "Glucose [Mass/volume] in Blood"
            }
          ],
          "text": "Glucose [Mass/volume] in Blood"
        },
        "valueQuantity": {
          "system": "http://unitsofmeasure.org",
          "value": 67.3,
          "unit": "mg/dL",
          "code": "mg/dL"
        },
        "referenceRange": [
          {
            "low": {
              "value": 70,
              "code": "mg/dL",
              "system": "http://unitsofmeasure.org"
            }
          },
          {
            "high": {
              "value": 140,
              "code": "mg/dL",
              "system": "http://unitsofmeasure.org"
            }
          }
        ],
        "interpretation": [
          {
            "coding": [
              {
                "code": "L",
                "system": "http://terminology.hl7.org/CodeSystem/v3-ObservationInterpretation",
                "display": "Low"
              }
            ]
          }
        ],
        "text": {
          "status": "generated",
          "div": "<div xmlns=\"http://www.w3.org/1999/xhtml\"><table class=\"hl7__eu__lab__report\"><tr><th>Test</th><th>16-Oct-2016</th><th>Reference&#xA0;Range</th><th>Unit</th></tr><tr><td>Glucose [Mass/volume] in Blood</td><td>67.3</td><td>70 - 140</td><td>L</td><td>mg/dL</td></tr></table></div>"
        },
        "status": "final",
        "subject": {
          "reference": "urn:uuid:79862951-9d6a-48d6-a223-0d91d89de25f",
          "display": "Helene Andresen"
        },
        "effectiveDateTime": "2016-10-15T22:53:36Z",
        "specimen": {
          "reference": "urn:uuid:061145aa-a73b-4478-8e05-44eaaa4402ee"
        }
      }
    },
    {
      "fullUrl": "urn:uuid:b8344db8-e89c-4ce6-bb0e-dda87d7eed82",
      "resource": {
        "resourceType": "Observation",
        "id": "b8344db8-e89c-4ce6-bb0e-dda87d7eed82",
        "meta": {
          "profile": [
            "http://hl7.eu/fhir/laboratory/StructureDefinition/Observation-resultslab-eu-lab"
          ]
        },
        "performer": [
          {
            "display": "The Central European Lab"
          }
        ],
        "category": [
          {
            "coding": [
              {
                "system": "http://terminology.hl7.org/CodeSystem/observation-category",
                "code": "laboratory"
              }
            ]
          }
        ],
        "code": {
          "coding": [
            {
              "code": "6299-2",
              "system": "http://loinc.org",
              "display": "Urea nitrogen [Mass/volume] in Blood"
            }
          ],
          "text": "Urea nitrogen [Mass/volume] in Blood"
        },
        "valueQuantity": {
          "system": "http://unitsofmeasure.org",
          "value": 8.1,
          "unit": "mg/dL",
          "code": "mg/dL"
        },
        "referenceRange": [
          {
            "low": {
              "value": 7,
              "code": "mg/dL",
              "system": "http://unitsofmeasure.org"
            }
          },
          {
            "high": {
              "value": 25,
              "code": "mg/dL",
              "system": "http://unitsofmeasure.org"
            }
          }
        ],
        "text": {
          "status": "generated",
          "div": "<div xmlns=\"http://www.w3.org/1999/xhtml\"><table class=\"hl7__eu__lab__report\"><tr><th>Test</th><th>16-Oct-2016</th><th>Reference&#xA0;Range</th><th>Unit</th></tr><tr><td>Urea nitrogen [Mass/volume] in Blood</td><td>8.1</td><td>7 - 25</td><td></td><td>mg/dL</td></tr></table></div>"
        },
        "status": "final",
        "subject": {
          "reference": "urn:uuid:79862951-9d6a-48d6-a223-0d91d89de25f",
          "display": "Helene Andresen"
        },
        "effectiveDateTime": "2016-10-15T22:53:36Z",
        "specimen": {
          "reference": "urn:uuid:061145aa-a73b-4478-8e05-44eaaa4402ee"
        }
      }
    },
    {
      "fullUrl": "urn:uuid:5ceab6eb-6c11-4655-8da1-8b56d4fec209",
      "resource": {
        "resourceType": "Observation",
        "id": "5ceab6eb-6c11-4655-8da1-8b56d4fec209",
        "meta": {
          "profile": [
            "http://hl7.eu/fhir/laboratory/StructureDefinition/Observation-resultslab-eu-lab"
          ]
        },
        "performer": [
          {
            "display": "The Central European Lab"
          }
        ],
        "category": [
          {
            "coding": [
              {
                "system": "http://terminology.hl7.org/CodeSystem/observation-category",
                "code": "laboratory"
              }
            ]
          }
        ],
        "code": {
          "coding": [
            {
              "code": "38483-4",
              "system": "http://loinc.org",
              "display": "Creatinine [Mass/volume] in Blood"
            }
          ],
          "text": "Creatinine [Mass/volume] in Blood"
        },
        "valueQuantity": {
          "system": "http://unitsofmeasure.org",
          "value": 2.6,
          "unit": "mg/dL",
          "code": "mg/dL"
        },
        "referenceRange": [
          {
            "low": {
              "value": 0.6,
              "code": "mg/dL",
              "system": "http://unitsofmeasure.org"
            }
          },
          {
            "high": {
              "value": 1.1,
              "code": "mg/dL",
              "system": "http://unitsofmeasure.org"
            }
          }
        ],
        "interpretation": [
          {
            "coding": [
              {
                "code": "H",
                "system": "http://terminology.hl7.org/CodeSystem/v3-ObservationInterpretation",
                "display": "High"
              }
            ]
          }
        ],
        "text": {
          "status": "generated",
          "div": "<div xmlns=\"http://www.w3.org/1999/xhtml\"><table class=\"hl7__eu__lab__report\"><tr><th>Test</th><th>16-Oct-2016</th><th>Reference&#xA0;Range</th><th>Unit</th></tr><tr><td>Creatinine [Mass/volume] in Blood</td><td>2.6</td><td>0.6 - 1.1</td><td>H</td><td>mg/dL</td></tr></table></div>"
        },
        "status": "final",
        "subject": {
          "reference": "urn:uuid:79862951-9d6a-48d6-a223-0d91d89de25f",
          "display": "Helene Andresen"
        },
        "effectiveDateTime": "2016-10-15T22:53:36Z",
        "specimen": {
          "reference": "urn:uuid:061145aa-a73b-4478-8e05-44eaaa4402ee"
        }
      }
    },
    {
      "fullUrl": "urn:uuid:f489bd33-3d66-4f61-9950-2f806f54013f",
      "resource": {
        "resourceType": "Observation",
        "id": "f489bd33-3d66-4f61-9950-2f806f54013f",
        "meta": {
          "profile": [
            "http://hl7.eu/fhir/laboratory/StructureDefinition/Observation-resultslab-eu-lab"
          ]
        },
        "performer": [
          {
            "display": "The Central European Lab"
          }
        ],
        "category": [
          {
            "coding": [
              {
                "system": "http://terminology.hl7.org/CodeSystem/observation-category",
                "code": "laboratory"
              }
            ]
          }
        ],
        "code": {
          "coding": [
            {
              "code": "49765-1",
              "system": "http://loinc.org",
              "display": "Calcium [Mass/volume] in Blood"
            }
          ],
          "text": "Calcium [Mass/volume] in Blood"
        },
        "valueQuantity": {
          "system": "http://unitsofmeasure.org",
          "value": 10.2,
          "unit": "mg/dL",
          "code": "mg/dL"
        },
        "referenceRange": [
          {
            "low": {
              "value": 8.6,
              "code": "mg/dL",
              "system": "http://unitsofmeasure.org"
            }
          },
          {
            "high": {
              "value": 10.4,
              "code": "mg/dL",
              "system": "http://unitsofmeasure.org"
            }
          }
        ],
        "text": {
          "status": "generated",
          "div": "<div xmlns=\"http://www.w3.org/1999/xhtml\"><table class=\"hl7__eu__lab__report\"><tr><th>Test</th><th>16-Oct-2016</th><th>Reference&#xA0;Range</th><th>Unit</th></tr><tr><td>Calcium [Mass/volume] in Blood</td><td>10.2</td><td>8.6 - 10.4</td><td></td><td>mg/dL</td></tr></table></div>"
        },
        "status": "final",
        "subject": {
          "reference": "urn:uuid:79862951-9d6a-48d6-a223-0d91d89de25f",
          "display": "Helene Andresen"
        },
        "effectiveDateTime": "2016-10-15T22:53:36Z",
        "specimen": {
          "reference": "urn:uuid:061145aa-a73b-4478-8e05-44eaaa4402ee"
        }
      }
    },
    {
      "fullUrl": "urn:uuid:a5b2aa58-cb54-498f-9c53-99fe2b514e30",
      "resource": {
        "resourceType": "Observation",
        "id": "a5b2aa58-cb54-498f-9c53-99fe2b514e30",
        "meta": {
          "profile": [
            "http://hl7.eu/fhir/laboratory/StructureDefinition/Observation-resultslab-eu-lab"
          ]
        },
        "performer": [
          {
            "display": "The Central European Lab"
          }
        ],
        "category": [
          {
            "coding": [
              {
                "system": "http://terminology.hl7.org/CodeSystem/observation-category",
                "code": "laboratory"
              }
            ]
          }
        ],
        "code": {
          "coding": [
            {
              "code": "2947-0",
              "system": "http://loinc.org",
              "display": "Sodium [Moles/volume] in Blood"
            }
          ],
          "text": "Sodium [Moles/volume] in Blood"
        },
        "valueQuantity": {
          "system": "http://unitsofmeasure.org",
          "value": 142.8,
          "unit": "mmol/L",
          "code": "mmol/L"
        },
        "referenceRange": [
          {
            "low": {
              "value": 135,
              "code": "mmol/L",
              "system": "http://unitsofmeasure.org"
            }
          },
          {
            "high": {
              "value": 145,
              "code": "mmol/L",
              "system": "http://unitsofmeasure.org"
            }
          }
        ],
        "text": {
          "status": "generated",
          "div": "<div xmlns=\"http://www.w3.org/1999/xhtml\"><table class=\"hl7__eu__lab__report\"><tr><th>Test</th><th>16-Oct-2016</th><th>Reference&#xA0;Range</th><th>Unit</th></tr><tr><td>Sodium [Moles/volume] in Blood</td><td>142.8</td><td>135 - 145</td><td></td><td>mmol/L</td></tr></table></div>"
        },
        "status": "final",
        "subject": {
          "reference": "urn:uuid:79862951-9d6a-48d6-a223-0d91d89de25f",
          "display": "Helene Andresen"
        },
        "effectiveDateTime": "2016-10-15T22:53:36Z",
        "specimen": {
          "reference": "urn:uuid:061145aa-a73b-4478-8e05-44eaaa4402ee"
        }
      }
    },
    {
      "fullUrl": "urn:uuid:5274b2a2-39a1-41a6-9b8e-2640fc4ff80b",
      "resource": {
        "resourceType": "Observation",
        "id": "5274b2a2-39a1-41a6-9b8e-2640fc4ff80b",
        "meta": {
          "profile": [
            "http://hl7.eu/fhir/laboratory/StructureDefinition/Observation-resultslab-eu-lab"
          ]
        },
        "performer": [
          {
            "display": "The Central European Lab"
          }
        ],
        "category": [
          {
            "coding": [
              {
                "system": "http://terminology.hl7.org/CodeSystem/observation-category",
                "code": "laboratory"
              }
            ]
          }
        ],
        "code": {
          "coding": [
            {
              "code": "6298-4",
              "system": "http://loinc.org",
              "display": "Potassium [Moles/volume] in Blood"
            }
          ],
          "text": "Potassium [Moles/volume] in Blood"
        },
        "valueQuantity": {
          "system": "http://unitsofmeasure.org",
          "value": 4.7,
          "unit": "mmol/L",
          "code": "mmol/L"
        },
        "referenceRange": [
          {
            "low": {
              "value": 3.5,
              "code": "mmol/L",
              "system": "http://unitsofmeasure.org"
            }
          },
          {
            "high": {
              "value": 5.3,
              "code": "mmol/L",
              "system": "http://unitsofmeasure.org"
            }
          }
        ],
        "text": {
          "status": "generated",
          "div": "<div xmlns=\"http://www.w3.org/1999/xhtml\"><table class=\"hl7__eu__lab__report\"><tr><th>Test</th><th>16-Oct-2016</th><th>Reference&#xA0;Range</th><th>Unit</th></tr><tr><td>Potassium [Moles/volume] in Blood</td><td>4.7</td><td>3.5 - 5.3</td><td></td><td>mmol/L</td></tr></table></div>"
        },
        "status": "final",
        "subject": {
          "reference": "urn:uuid:79862951-9d6a-48d6-a223-0d91d89de25f",
          "display": "Helene Andresen"
        },
        "effectiveDateTime": "2016-10-15T22:53:36Z",
        "specimen": {
          "reference": "urn:uuid:061145aa-a73b-4478-8e05-44eaaa4402ee"
        }
      }
    },
    {
      "fullUrl": "urn:uuid:3f995d82-1032-422f-b562-be446a640d7c",
      "resource": {
        "resourceType": "Observation",
        "id": "3f995d82-1032-422f-b562-be446a640d7c",
        "meta": {
          "profile": [
            "http://hl7.eu/fhir/laboratory/StructureDefinition/Observation-resultslab-eu-lab"
          ]
        },
        "performer": [
          {
            "display": "The Central European Lab"
          }
        ],
        "category": [
          {
            "coding": [
              {
                "system": "http://terminology.hl7.org/CodeSystem/observation-category",
                "code": "laboratory"
              }
            ]
          }
        ],
        "code": {
          "coding": [
            {
              "code": "2069-3",
              "system": "http://loinc.org",
              "display": "Chloride [Moles/volume] in Blood"
            }
          ],
          "text": "Chloride [Moles/volume] in Blood"
        },
        "valueQuantity": {
          "system": "http://unitsofmeasure.org",
          "value": 109.1,
          "unit": "mmol/L",
          "code": "mmol/L"
        },
        "referenceRange": [
          {
            "low": {
              "value": 98,
              "code": "mmol/L",
              "system": "http://unitsofmeasure.org"
            }
          },
          {
            "high": {
              "value": 108,
              "code": "mmol/L",
              "system": "http://unitsofmeasure.org"
            }
          }
        ],
        "interpretation": [
          {
            "coding": [
              {
                "code": "H",
                "system": "http://terminology.hl7.org/CodeSystem/v3-ObservationInterpretation",
                "display": "High"
              }
            ]
          }
        ],
        "text": {
          "status": "generated",
          "div": "<div xmlns=\"http://www.w3.org/1999/xhtml\"><table class=\"hl7__eu__lab__report\"><tr><th>Test</th><th>16-Oct-2016</th><th>Reference&#xA0;Range</th><th>Unit</th></tr><tr><td>Chloride [Moles/volume] in Blood</td><td>109.1</td><td>98 - 108</td><td>H</td><td>mmol/L</td></tr></table></div>"
        },
        "status": "final",
        "subject": {
          "reference": "urn:uuid:79862951-9d6a-48d6-a223-0d91d89de25f",
          "display": "Helene Andresen"
        },
        "effectiveDateTime": "2016-10-15T22:53:36Z",
        "specimen": {
          "reference": "urn:uuid:061145aa-a73b-4478-8e05-44eaaa4402ee"
        }
      }
    },
    {
      "fullUrl": "urn:uuid:5ef2cc1b-83b0-4403-9669-eb22e3069fd7",
      "resource": {
        "resourceType": "Observation",
        "id": "5ef2cc1b-83b0-4403-9669-eb22e3069fd7",
        "meta": {
          "profile": [
            "http://hl7.eu/fhir/laboratory/StructureDefinition/Observation-resultslab-eu-lab"
          ]
        },
        "performer": [
          {
            "display": "The Central European Lab"
          }
        ],
        "category": [
          {
            "coding": [
              {
                "system": "http://terminology.hl7.org/CodeSystem/observation-category",
                "code": "laboratory"
              }
            ]
          }
        ],
        "code": {
          "coding": [
            {
              "code": "20565-8",
              "system": "http://loinc.org",
              "display": "Carbon dioxide, total [Moles/volume] in Blood"
            }
          ],
          "text": "Carbon dioxide, total [Moles/volume] in Blood"
        },
        "valueQuantity": {
          "system": "http://unitsofmeasure.org",
          "value": 25.1,
          "unit": "mmol/L",
          "code": "mmol/L"
        },
        "referenceRange": [
          {
            "low": {
              "value": 22,
              "code": "mmol/L",
              "system": "http://unitsofmeasure.org"
            }
          },
          {
            "high": {
              "value": 32,
              "code": "mmol/L",
              "system": "http://unitsofmeasure.org"
            }
          }
        ],
        "text": {
          "status": "generated",
          "div": "<div xmlns=\"http://www.w3.org/1999/xhtml\"><table class=\"hl7__eu__lab__report\"><tr><th>Test</th><th>16-Oct-2016</th><th>Reference&#xA0;Range</th><th>Unit</th></tr><tr><td>Carbon dioxide, total [Moles/volume] in Blood</td><td>25.1</td><td>22 - 32</td><td></td><td>mmol/L</td></tr></table></div>"
        },
        "status": "final",
        "subject": {
          "reference": "urn:uuid:79862951-9d6a-48d6-a223-0d91d89de25f",
          "display": "Helene Andresen"
        },
        "effectiveDateTime": "2016-10-15T22:53:36Z",
        "specimen": {
          "reference": "urn:uuid:061145aa-a73b-4478-8e05-44eaaa4402ee"
        }
      }
    },
    {
      "fullUrl": "urn:uuid:6c0f1680-f934-47f2-9187-18f4b3efa17b",
      "resource": {
        "resourceType": "Observation",
        "id": "6c0f1680-f934-47f2-9187-18f4b3efa17b",
        "meta": {
          "profile": [
            "http://hl7.eu/fhir/laboratory/StructureDefinition/Observation-resultslab-eu-lab"
          ]
        },
        "performer": [
          {
            "display": "The Central European Lab"
          }
        ],
        "category": [
          {
            "coding": [
              {
                "system": "http://terminology.hl7.org/CodeSystem/observation-category",
                "code": "laboratory"
              }
            ]
          }
        ],
        "code": {
          "coding": [
            {
              "code": "2885-2",
              "system": "http://loinc.org",
              "display": "Protein [Mass/volume] in Serum or Plasma"
            }
          ],
          "text": "Protein [Mass/volume] in Serum or Plasma"
        },
        "valueQuantity": {
          "system": "http://unitsofmeasure.org",
          "value": 7.6,
          "unit": "g/dL",
          "code": "g/dL"
        },
        "referenceRange": [
          {
            "low": {
              "value": 6.6,
              "code": "g/dL",
              "system": "http://unitsofmeasure.org"
            }
          },
          {
            "high": {
              "value": 8.3,
              "code": "g/dL",
              "system": "http://unitsofmeasure.org"
            }
          }
        ],
        "text": {
          "status": "generated",
          "div": "<div xmlns=\"http://www.w3.org/1999/xhtml\"><table class=\"hl7__eu__lab__report\"><tr><th>Test</th><th>16-Oct-2016</th><th>Reference&#xA0;Range</th><th>Unit</th></tr><tr><td>Protein [Mass/volume] in Serum or Plasma</td><td>7.6</td><td>6.6 - 8.3</td><td></td><td>g/dL</td></tr></table></div>"
        },
        "status": "final",
        "subject": {
          "reference": "urn:uuid:79862951-9d6a-48d6-a223-0d91d89de25f",
          "display": "Helene Andresen"
        },
        "effectiveDateTime": "2016-10-15T22:53:36Z",
        "specimen": {
          "reference": "urn:uuid:6c1dc049-fe05-45df-a83d-da2b9c49aa91"
        }
      }
    },
    {
      "fullUrl": "urn:uuid:6aa06878-3fec-46f5-8336-1fa6f3339998",
      "resource": {
        "resourceType": "Observation",
        "id": "6aa06878-3fec-46f5-8336-1fa6f3339998",
        "meta": {
          "profile": [
            "http://hl7.eu/fhir/laboratory/StructureDefinition/Observation-resultslab-eu-lab"
          ]
        },
        "performer": [
          {
            "display": "The Central European Lab"
          }
        ],
        "category": [
          {
            "coding": [
              {
                "system": "http://terminology.hl7.org/CodeSystem/observation-category",
                "code": "laboratory"
              }
            ]
          }
        ],
        "code": {
          "coding": [
            {
              "code": "1751-7",
              "system": "http://loinc.org",
              "display": "Albumin [Mass/volume] in Serum or Plasma"
            }
          ],
          "text": "Albumin [Mass/volume] in Serum or Plasma"
        },
        "valueQuantity": {
          "system": "http://unitsofmeasure.org",
          "value": 5.1,
          "unit": "g/dL",
          "code": "g/dL"
        },
        "referenceRange": [
          {
            "low": {
              "value": 3.5,
              "code": "g/dL",
              "system": "http://unitsofmeasure.org"
            }
          },
          {
            "high": {
              "value": 5.5,
              "code": "g/dL",
              "system": "http://unitsofmeasure.org"
            }
          }
        ],
        "text": {
          "status": "generated",
          "div": "<div xmlns=\"http://www.w3.org/1999/xhtml\"><table class=\"hl7__eu__lab__report\"><tr><th>Test</th><th>16-Oct-2016</th><th>Reference&#xA0;Range</th><th>Unit</th></tr><tr><td>Albumin [Mass/volume] in Serum or Plasma</td><td>5.1</td><td>3.5 - 5.5</td><td></td><td>g/dL</td></tr></table></div>"
        },
        "status": "final",
        "subject": {
          "reference": "urn:uuid:79862951-9d6a-48d6-a223-0d91d89de25f",
          "display": "Helene Andresen"
        },
        "effectiveDateTime": "2016-10-15T22:53:36Z",
        "specimen": {
          "reference": "urn:uuid:6c1dc049-fe05-45df-a83d-da2b9c49aa91"
        }
      }
    },
    {
      "fullUrl": "urn:uuid:2e2698e9-caed-4139-86ca-37439569d413",
      "resource": {
        "resourceType": "Observation",
        "id": "2e2698e9-caed-4139-86ca-37439569d413",
        "meta": {
          "profile": [
            "http://hl7.eu/fhir/laboratory/StructureDefinition/Observation-resultslab-eu-lab"
          ]
        },
        "performer": [
          {
            "display": "The Central European Lab"
          }
        ],
        "category": [
          {
            "coding": [
              {
                "system": "http://terminology.hl7.org/CodeSystem/observation-category",
                "code": "laboratory"
              }
            ]
          }
        ],
        "code": {
          "coding": [
            {
              "code": "10834-0",
              "system": "http://loinc.org",
              "display": "Globulin [Mass/volume] in Serum by calculation"
            }
          ],
          "text": "Globulin [Mass/volume] in Serum by calculation"
        },
        "valueQuantity": {
          "system": "http://unitsofmeasure.org",
          "value": 2.1,
          "unit": "g/L",
          "code": "g/L"
        },
        "referenceRange": [
          {
            "low": {
              "value": 2.2,
              "code": "g/L",
              "system": "http://unitsofmeasure.org"
            }
          },
          {
            "high": {
              "value": 3.7,
              "code": "g/L",
              "system": "http://unitsofmeasure.org"
            }
          }
        ],
        "interpretation": [
          {
            "coding": [
              {
                "code": "L",
                "system": "http://terminology.hl7.org/CodeSystem/v3-ObservationInterpretation",
                "display": "Low"
              }
            ]
          }
        ],
        "text": {
          "status": "generated",
          "div": "<div xmlns=\"http://www.w3.org/1999/xhtml\"><table class=\"hl7__eu__lab__report\"><tr><th>Test</th><th>16-Oct-2016</th><th>Reference&#xA0;Range</th><th>Unit</th></tr><tr><td>Globulin [Mass/volume] in Serum by calculation</td><td>2.1</td><td>2.2 - 3.7</td><td>L</td><td>g/L</td></tr></table></div>"
        },
        "status": "final",
        "subject": {
          "reference": "urn:uuid:79862951-9d6a-48d6-a223-0d91d89de25f",
          "display": "Helene Andresen"
        },
        "effectiveDateTime": "2016-10-15T22:53:36Z",
        "specimen": {
          "reference": "urn:uuid:546b4182-168c-44a3-8dba-5ae5d9047b60"
        }
      }
    },
    {
      "fullUrl": "urn:uuid:ccbd9931-fce3-4497-a99f-0396dce53a93",
      "resource": {
        "resourceType": "Observation",
        "id": "ccbd9931-fce3-4497-a99f-0396dce53a93",
        "meta": {
          "profile": [
            "http://hl7.eu/fhir/laboratory/StructureDefinition/Observation-resultslab-eu-lab"
          ]
        },
        "performer": [
          {
            "display": "The Central European Lab"
          }
        ],
        "category": [
          {
            "coding": [
              {
                "system": "http://terminology.hl7.org/CodeSystem/observation-category",
                "code": "laboratory"
              }
            ]
          }
        ],
        "code": {
          "coding": [
            {
              "code": "1975-2",
              "system": "http://loinc.org",
              "display": "Bilirubin.total [Mass/volume] in Serum or Plasma"
            }
          ],
          "text": "Bilirubin.total [Mass/volume] in Serum or Plasma"
        },
        "valueQuantity": {
          "system": "http://unitsofmeasure.org",
          "value": 0.9,
          "unit": "mg/dL",
          "code": "mg/dL"
        },
        "referenceRange": [
          {
            "low": {
              "value": 0.3,
              "code": "mg/dL",
              "system": "http://unitsofmeasure.org"
            }
          },
          {
            "high": {
              "value": 1.2,
              "code": "mg/dL",
              "system": "http://unitsofmeasure.org"
            }
          }
        ],
        "text": {
          "status": "generated",
          "div": "<div xmlns=\"http://www.w3.org/1999/xhtml\"><table class=\"hl7__eu__lab__report\"><tr><th>Test</th><th>16-Oct-2016</th><th>Reference&#xA0;Range</th><th>Unit</th></tr><tr><td>Bilirubin.total [Mass/volume] in Serum or Plasma</td><td>0.9</td><td>0.3 - 1.2</td><td></td><td>mg/dL</td></tr></table></div>"
        },
        "status": "final",
        "subject": {
          "reference": "urn:uuid:79862951-9d6a-48d6-a223-0d91d89de25f",
          "display": "Helene Andresen"
        },
        "effectiveDateTime": "2016-10-15T22:53:36Z",
        "specimen": {
          "reference": "urn:uuid:6c1dc049-fe05-45df-a83d-da2b9c49aa91"
        }
      }
    },
    {
      "fullUrl": "urn:uuid:3ca04a4c-db2b-4523-9197-0f717c596cc8",
      "resource": {
        "resourceType": "Observation",
        "id": "3ca04a4c-db2b-4523-9197-0f717c596cc8",
        "meta": {
          "profile": [
            "http://hl7.eu/fhir/laboratory/StructureDefinition/Observation-resultslab-eu-lab"
          ]
        },
        "performer": [
          {
            "display": "The Central European Lab"
          }
        ],
        "category": [
          {
            "coding": [
              {
                "system": "http://terminology.hl7.org/CodeSystem/observation-category",
                "code": "laboratory"
              }
            ]
          }
        ],
        "code": {
          "coding": [
            {
              "code": "6768-6",
              "system": "http://loinc.org",
              "display": "Alkaline phosphatase [Enzymatic activity/volume] in Serum or Plasma"
            }
          ],
          "text": "Alkaline phosphatase [Enzymatic activity/volume] in Serum or Plasma"
        },
        "valueQuantity": {
          "system": "http://unitsofmeasure.org",
          "value": 103.6,
          "unit": "U/L",
          "code": "U/L"
        },
        "referenceRange": [
          {
            "low": {
              "value": 40,
              "code": "U/L",
              "system": "http://unitsofmeasure.org"
            }
          },
          {
            "high": {
              "value": 130,
              "code": "U/L",
              "system": "http://unitsofmeasure.org"
            }
          }
        ],
        "text": {
          "status": "generated",
          "div": "<div xmlns=\"http://www.w3.org/1999/xhtml\"><table class=\"hl7__eu__lab__report\"><tr><th>Test</th><th>16-Oct-2016</th><th>Reference&#xA0;Range</th><th>Unit</th></tr><tr><td>Alkaline phosphatase [Enzymatic activity/volume] in Serum or Plasma</td><td>103.6</td><td>40 - 130</td><td></td><td>U/L</td></tr></table></div>"
        },
        "status": "final",
        "subject": {
          "reference": "urn:uuid:79862951-9d6a-48d6-a223-0d91d89de25f",
          "display": "Helene Andresen"
        },
        "effectiveDateTime": "2016-10-15T22:53:36Z",
        "specimen": {
          "reference": "urn:uuid:6c1dc049-fe05-45df-a83d-da2b9c49aa91"
        }
      }
    },
    {
      "fullUrl": "urn:uuid:6220acfd-7bc6-4dad-b009-39e8ce434ebe",
      "resource": {
        "resourceType": "Observation",
        "id": "6220acfd-7bc6-4dad-b009-39e8ce434ebe",
        "meta": {
          "profile": [
            "http://hl7.eu/fhir/laboratory/StructureDefinition/Observation-resultslab-eu-lab"
          ]
        },
        "performer": [
          {
            "display": "The Central European Lab"
          }
        ],
        "category": [
          {
            "coding": [
              {
                "system": "http://terminology.hl7.org/CodeSystem/observation-category",
                "code": "laboratory"
              }
            ]
          }
        ],
        "code": {
          "coding": [
            {
              "code": "1742-6",
              "system": "http://loinc.org",
              "display": "Alanine aminotransferase [Enzymatic activity/volume] in Serum or Plasma"
            }
          ],
          "text": "Alanine aminotransferase [Enzymatic activity/volume] in Serum or Plasma"
        },
        "valueQuantity": {
          "system": "http://unitsofmeasure.org",
          "value": 32,
          "unit": "U/L",
          "code": "U/L"
        },
        "referenceRange": [
          {
            "low": {
              "value": 7,
              "code": "U/L",
              "system": "http://unitsofmeasure.org"
            }
          },
          {
            "high": {
              "value": 55,
              "code": "U/L",
              "system": "http://unitsofmeasure.org"
            }
          }
        ],
        "text": {
          "status": "generated",
          "div": "<div xmlns=\"http://www.w3.org/1999/xhtml\"><table class=\"hl7__eu__lab__report\"><tr><th>Test</th><th>16-Oct-2016</th><th>Reference&#xA0;Range</th><th>Unit</th></tr><tr><td>Alanine aminotransferase [Enzymatic activity/volume] in Serum or Plasma</td><td>32.0</td><td>7 - 55</td><td></td><td>U/L</td></tr></table></div>"
        },
        "status": "final",
        "subject": {
          "reference": "urn:uuid:79862951-9d6a-48d6-a223-0d91d89de25f",
          "display": "Helene Andresen"
        },
        "effectiveDateTime": "2016-10-15T22:53:36Z",
        "specimen": {
          "reference": "urn:uuid:6c1dc049-fe05-45df-a83d-da2b9c49aa91"
        }
      }
    },
    {
      "fullUrl": "urn:uuid:817f4e75-f908-470d-ba38-add62e04bde3",
      "resource": {
        "resourceType": "Observation",
        "id": "817f4e75-f908-470d-ba38-add62e04bde3",
        "meta": {
          "profile": [
            "http://hl7.eu/fhir/laboratory/StructureDefinition/Observation-resultslab-eu-lab"
          ]
        },
        "performer": [
          {
            "display": "The Central European Lab"
          }
        ],
        "category": [
          {
            "coding": [
              {
                "system": "http://terminology.hl7.org/CodeSystem/observation-category",
                "code": "laboratory"
              }
            ]
          }
        ],
        "code": {
          "coding": [
            {
              "code": "1920-8",
              "system": "http://loinc.org",
              "display": "Aspartate aminotransferase [Enzymatic activity/volume] in Serum or Plasma"
            }
          ],
          "text": "Aspartate aminotransferase [Enzymatic activity/volume] in Serum or Plasma"
        },
        "valueQuantity": {
          "system": "http://unitsofmeasure.org",
          "value": 37.6,
          "unit": "U/L",
          "code": "U/L"
        },
        "referenceRange": [
          {
            "low": {
              "value": 10,
              "code": "U/L",
              "system": "http://unitsofmeasure.org"
            }
          },
          {
            "high": {
              "value": 40,
              "code": "U/L",
              "system": "http://unitsofmeasure.org"
            }
          }
        ],
        "text": {
          "status": "generated",
          "div": "<div xmlns=\"http://www.w3.org/1999/xhtml\"><table class=\"hl7__eu__lab__report\"><tr><th>Test</th><th>16-Oct-2016</th><th>Reference&#xA0;Range</th><th>Unit</th></tr><tr><td>Aspartate aminotransferase [Enzymatic activity/volume] in Serum or Plasma</td><td>37.6</td><td>10 - 40</td><td></td><td>U/L</td></tr></table></div>"
        },
        "status": "final",
        "subject": {
          "reference": "urn:uuid:79862951-9d6a-48d6-a223-0d91d89de25f",
          "display": "Helene Andresen"
        },
        "effectiveDateTime": "2016-10-15T22:53:36Z",
        "specimen": {
          "reference": "urn:uuid:6c1dc049-fe05-45df-a83d-da2b9c49aa91"
        }
      }
    },
    {
      "fullUrl": "urn:uuid:9c2b06d4-49a5-4476-ad79-83bfd5a3ebfa",
      "resource": {
        "resourceType": "Observation",
        "id": "9c2b06d4-49a5-4476-ad79-83bfd5a3ebfa",
        "meta": {
          "profile": [
            "http://hl7.eu/fhir/laboratory/StructureDefinition/Observation-resultslab-eu-lab"
          ]
        },
        "performer": [
          {
            "display": "The Central European Lab"
          }
        ],
        "category": [
          {
            "coding": [
              {
                "system": "http://terminology.hl7.org/CodeSystem/observation-category",
                "code": "laboratory"
              }
            ]
          }
        ],
        "code": {
          "coding": [
            {
              "code": "2093-3",
              "system": "http://loinc.org",
              "display": "Cholesterol [Mass/volume] in Serum or Plasma"
            }
          ],
          "text": "Cholesterol [Mass/volume] in Serum or Plasma"
        },
        "valueQuantity": {
          "system": "http://unitsofmeasure.org",
          "value": 201.5,
          "unit": "mg/dL",
          "code": "mg/dL"
        },
        "referenceRange": [
          {
            "low": {
              "value": 125,
              "code": "mg/dL",
              "system": "http://unitsofmeasure.org"
            }
          },
          {
            "high": {
              "value": 200,
              "code": "mg/dL",
              "system": "http://unitsofmeasure.org"
            }
          }
        ],
        "interpretation": [
          {
            "coding": [
              {
                "code": "H",
                "system": "http://terminology.hl7.org/CodeSystem/v3-ObservationInterpretation",
                "display": "High"
              }
            ]
          }
        ],
        "text": {
          "status": "generated",
          "div": "<div xmlns=\"http://www.w3.org/1999/xhtml\"><table class=\"hl7__eu__lab__report\"><tr><th>Test</th><th>16-Oct-2016</th><th>Reference&#xA0;Range</th><th>Unit</th></tr><tr><td>Cholesterol [Mass/volume] in Serum or Plasma</td><td>201.5</td><td>125 - 200</td><td>H</td><td>mg/dL</td></tr></table></div>"
        },
        "status": "final",
        "subject": {
          "reference": "urn:uuid:79862951-9d6a-48d6-a223-0d91d89de25f",
          "display": "Helene Andresen"
        },
        "effectiveDateTime": "2016-10-15T22:53:36Z",
        "specimen": {
          "reference": "urn:uuid:6c1dc049-fe05-45df-a83d-da2b9c49aa91"
        }
      }
    },
    {
      "fullUrl": "urn:uuid:20ed5153-a448-4f3d-8472-94961a970d61",
      "resource": {
        "resourceType": "Observation",
        "id": "20ed5153-a448-4f3d-8472-94961a970d61",
        "meta": {
          "profile": [
            "http://hl7.eu/fhir/laboratory/StructureDefinition/Observation-resultslab-eu-lab"
          ]
        },
        "performer": [
          {
            "display": "The Central European Lab"
          }
        ],
        "category": [
          {
            "coding": [
              {
                "system": "http://terminology.hl7.org/CodeSystem/observation-category",
                "code": "laboratory"
              }
            ]
          }
        ],
        "code": {
          "coding": [
            {
              "code": "2571-8",
              "system": "http://loinc.org",
              "display": "Triglyceride [Mass/volume] in Serum or Plasma"
            }
          ],
          "text": "Triglyceride [Mass/volume] in Serum or Plasma"
        },
        "valueQuantity": {
          "system": "http://unitsofmeasure.org",
          "value": 128.7,
          "unit": "mg/dL",
          "code": "mg/dL"
        },
        "referenceRange": [
          {
            "low": {
              "value": 10,
              "code": "mg/dL",
              "system": "http://unitsofmeasure.org"
            }
          },
          {
            "high": {
              "value": 175,
              "code": "mg/dL",
              "system": "http://unitsofmeasure.org"
            }
          }
        ],
        "text": {
          "status": "generated",
          "div": "<div xmlns=\"http://www.w3.org/1999/xhtml\"><table class=\"hl7__eu__lab__report\"><tr><th>Test</th><th>16-Oct-2016</th><th>Reference&#xA0;Range</th><th>Unit</th></tr><tr><td>Triglyceride [Mass/volume] in Serum or Plasma</td><td>128.7</td><td>10 - 175</td><td></td><td>mg/dL</td></tr></table></div>"
        },
        "status": "final",
        "subject": {
          "reference": "urn:uuid:79862951-9d6a-48d6-a223-0d91d89de25f",
          "display": "Helene Andresen"
        },
        "effectiveDateTime": "2016-10-15T22:53:36Z",
        "specimen": {
          "reference": "urn:uuid:6c1dc049-fe05-45df-a83d-da2b9c49aa91"
        }
      }
    },
    {
      "fullUrl": "urn:uuid:dd6c9c8c-6348-4556-838b-fbb952ef7066",
      "resource": {
        "resourceType": "Observation",
        "id": "dd6c9c8c-6348-4556-838b-fbb952ef7066",
        "meta": {
          "profile": [
            "http://hl7.eu/fhir/laboratory/StructureDefinition/Observation-resultslab-eu-lab"
          ]
        },
        "performer": [
          {
            "display": "The Central European Lab"
          }
        ],
        "category": [
          {
            "coding": [
              {
                "system": "http://terminology.hl7.org/CodeSystem/observation-category",
                "code": "laboratory"
              }
            ]
          }
        ],
        "code": {
          "coding": [
            {
              "code": "18262-6",
              "system": "http://loinc.org",
              "display": "Cholesterol in LDL [Mass/volume] in Serum or Plasma by Direct assay"
            }
          ],
          "text": "Cholesterol in LDL [Mass/volume] in Serum or Plasma by Direct assay"
        },
        "valueQuantity": {
          "system": "http://unitsofmeasure.org",
          "value": 87.3,
          "unit": "mg/dL",
          "code": "mg/dL"
        },
        "referenceRange": [
          {
            "low": {
              "value": 0,
              "code": "mg/dL",
              "system": "http://unitsofmeasure.org"
            }
          },
          {
            "high": {
              "value": 130,
              "code": "mg/dL",
              "system": "http://unitsofmeasure.org"
            }
          }
        ],
        "text": {
          "status": "generated",
          "div": "<div xmlns=\"http://www.w3.org/1999/xhtml\"><table class=\"hl7__eu__lab__report\"><tr><th>Test</th><th>16-Oct-2016</th><th>Reference&#xA0;Range</th><th>Unit</th></tr><tr><td>Cholesterol in LDL [Mass/volume] in Serum or Plasma by Direct assay</td><td>87.3</td><td>0 - 130</td><td></td><td>mg/dL</td></tr></table></div>"
        },
        "status": "final",
        "subject": {
          "reference": "urn:uuid:79862951-9d6a-48d6-a223-0d91d89de25f",
          "display": "Helene Andresen"
        },
        "effectiveDateTime": "2016-10-15T22:53:36Z",
        "specimen": {
          "reference": "urn:uuid:6c1dc049-fe05-45df-a83d-da2b9c49aa91"
        }
      }
    },
    {
      "fullUrl": "urn:uuid:28653cd0-602a-42bb-b9c2-24d10c98e5d8",
      "resource": {
        "resourceType": "Observation",
        "id": "28653cd0-602a-42bb-b9c2-24d10c98e5d8",
        "meta": {
          "profile": [
            "http://hl7.eu/fhir/laboratory/StructureDefinition/Observation-resultslab-eu-lab"
          ]
        },
        "performer": [
          {
            "display": "The Central European Lab"
          }
        ],
        "category": [
          {
            "coding": [
              {
                "system": "http://terminology.hl7.org/CodeSystem/observation-category",
                "code": "laboratory"
              }
            ]
          }
        ],
        "code": {
          "coding": [
            {
              "code": "2085-9",
              "system": "http://loinc.org",
              "display": "Cholesterol in HDL [Mass/volume] in Serum or Plasma"
            }
          ],
          "text": "Cholesterol in HDL [Mass/volume] in Serum or Plasma"
        },
        "valueQuantity": {
          "system": "http://unitsofmeasure.org",
          "value": 48.1,
          "unit": "mg/dL",
          "code": "mg/dL"
        },
        "referenceRange": [
          {
            "low": {
              "value": 50,
              "code": "mg/dL",
              "system": "http://unitsofmeasure.org"
            }
          },
          {
            "high": {
              "value": 100,
              "code": "mg/dL",
              "system": "http://unitsofmeasure.org"
            }
          }
        ],
        "interpretation": [
          {
            "coding": [
              {
                "code": "L",
                "system": "http://terminology.hl7.org/CodeSystem/v3-ObservationInterpretation",
                "display": "Low"
              }
            ]
          }
        ],
        "text": {
          "status": "generated",
          "div": "<div xmlns=\"http://www.w3.org/1999/xhtml\"><table class=\"hl7__eu__lab__report\"><tr><th>Test</th><th>16-Oct-2016</th><th>Reference&#xA0;Range</th><th>Unit</th></tr><tr><td>Cholesterol in HDL [Mass/volume] in Serum or Plasma</td><td>48.1</td><td>50 - 100</td><td>L</td><td>mg/dL</td></tr></table></div>"
        },
        "status": "final",
        "subject": {
          "reference": "urn:uuid:79862951-9d6a-48d6-a223-0d91d89de25f",
          "display": "Helene Andresen"
        },
        "effectiveDateTime": "2016-10-15T22:53:36Z",
        "specimen": {
          "reference": "urn:uuid:6c1dc049-fe05-45df-a83d-da2b9c49aa91"
        }
      }
    },
    {
      "fullUrl": "urn:uuid:f49ce08c-5505-4dfc-beb9-c487a13725f7",
      "resource": {
        "resourceType": "Device",
        "id": "f49ce08c-5505-4dfc-beb9-c487a13725f7",
        "deviceName": [
          {
            "name": "SYNDERAI Synthetic Generator",
            "type": "manufacturer-name"
          }
        ],
        "version": [
          {
            "value": "5.0"
          }
        ],
        "text": {
          "status": "generated",
          "div": "<div xmlns=\"http://www.w3.org/1999/xhtml\">SYNDERAI Synthetic Generator v5.0</div>"
        },
        "status": "active\"",
        "distinctIdentifier": "synderai-generator-50",
        "manufacturer": "SYNDERAI Project"
      }
    },
    {
      "fullUrl": "urn:uuid:5a3e7d5d-467a-455f-8aca-59c7bc60c8d9",
      "resource": {
        "resourceType": "Provenance",
        "id": "5a3e7d5d-467a-455f-8aca-59c7bc60c8d9",
        "target": [
          {
            "reference": "Patient/79862951-9d6a-48d6-a223-0d91d89de25f"
          },
          {
            "reference": "Bundle/e901d158-13ac-4225-b0a7-9916b0443843"
          },
          {
            "reference": "Composition/e3ef7f2b-badd-44cd-a893-565f3ae5671a"
          },
          {
            "reference": "PractitionerRole/c9cb5882-8657-4536-b015-7e1ed19ed610"
          },
          {
            "reference": "Practitioner/83052748-5677-4f62-9c10-fc6d42899e5f"
          },
          {
            "reference": "PractitionerRole/7db2212d-fc51-4128-b8a1-bca1733b3adb"
          },
          {
            "reference": "Organization/1acad8f4-f526-4417-84f0-e40805a16f30"
          }
        ],
        "activity": {
          "text": "Synthetic Example Data Generation"
        },
        "policy": [
          "https://synderai.net/synderai-synthetic-data-policy"
        ],
        "agent": [
          {
            "type": {
              "text": "author"
            },
            "who": {
              "reference": "Device/f49ce08c-5505-4dfc-beb9-c487a13725f7"
            }
          }
        ],
        "reason": [
          {
            "text": "Interoperability Testing and Training (non-clinical use)"
          }
        ],
        "text": {
          "status": "generated",
          "div": "<div xmlns=\"http://www.w3.org/1999/xhtml\">Provenance for SYNDERAI Synthetic Example Data Resource</div>"
        },
        "recorded": "2016-10-16T00:53:36Z"
      }
    },
    {
      "fullUrl": "urn:uuid:c9cb5882-8657-4536-b015-7e1ed19ed610",
      "resource": {
        "resourceType": "PractitionerRole",
        "id": "c9cb5882-8657-4536-b015-7e1ed19ed610",
        "meta": {
          "profile": [
            "http://hl7.eu/fhir/base/StructureDefinition/practitionerRole-eu"
          ]
        },
        "text": {
          "status": "generated",
          "div": "<div xmlns=\"http://www.w3.org/1999/xhtml\">Laboratory Role Id: c9cb5882-8657-4536-b015-7e1ed19ed610</div>"
        },
        "practitioner": {
          "reference": "urn:uuid:83052748-5677-4f62-9c10-fc6d42899e5f"
        }
      }
    },
    {
      "fullUrl": "urn:uuid:83052748-5677-4f62-9c10-fc6d42899e5f",
      "resource": {
        "resourceType": "Practitioner",
        "id": "83052748-5677-4f62-9c10-fc6d42899e5f",
        "meta": {
          "profile": [
            "http://hl7.eu/fhir/base/StructureDefinition/practitioner-eu"
          ]
        },
        "identifier": [
          {
            "assigner": {
              "display": "HL7 Europe"
            },
            "system": "urn:oid:2.16.840.1.113883.2.51.999",
            "value": "751ce654-322d-4a5d-a9ee-a9fe945e0495"
          }
        ],
        "name": [
          {
            "prefix": [
              "dr"
            ],
            "given": [
              "Ex"
            ],
            "family": "Ample"
          }
        ],
        "address": [
          {
            "line": [
              "Laboratoire Central Européenne",
              "Boulevard du Jardin Botanique 32"
            ],
            "postalCode": "1000",
            "city": "Brussels",
            "country": "Belgium"
          }
        ],
        "text": {
          "status": "generated",
          "div": "<div xmlns=\"http://www.w3.org/1999/xhtml\">Laboratory: Laboratoire Central Européenne, 1000 Brussels, Belgium</div>"
        }
      }
    }
  ],
  "type": "document",
  "timestamp": "2016-10-16T00:53:36Z"
}
