{
  "resourceType": "Bundle",
  "id": "bdd4adaa-08e1-45c7-a523-80cfade3962e",
  "meta": {
    "profile": [
      "http://hl7.eu/fhir/laboratory/StructureDefinition/Bundle-eu-lab"
    ]
  },
  "identifier": {
    "assigner": {
      "display": "HL7 Europe"
    },
    "system": "urn:oid:2.16.840.1.113883.2.51.999",
    "value": "5d9a9da9-f27e-4e62-8943-811a90724c1f"
  },
  "entry": [
    {
      "fullUrl": "urn:uuid:19906ba8-82fd-41db-a0c1-23a52207f2d2",
      "resource": {
        "resourceType": "Composition",
        "id": "19906ba8-82fd-41db-a0c1-23a52207f2d2",
        "meta": {
          "profile": [
            "http://hl7.eu/fhir/laboratory/StructureDefinition/Composition-eu-lab"
          ]
        },
        "identifier": {
          "assigner": {
            "display": "HL7 Europe"
          },
          "system": "urn:oid:2.16.840.1.113883.2.51.999",
          "value": "d110a026-a2c8-4391-8b5c-d432171bc6b3"
        },
        "author": [
          {
            "reference": "urn:uuid:c262d700-6563-4585-abd8-ba2d115560a9"
          }
        ],
        "category": [
          {
            "coding": [
              {
                "code": "26436-6",
                "system": "http://loinc.org",
                "display": "Laboratory studies (set)"
              }
            ]
          }
        ],
        "type": {
          "coding": [
            {
              "code": "11502-2",
              "system": "http://loinc.org",
              "display": "Laboratory report"
            }
          ],
          "text": "Laboratory Report"
        },
        "section": [
          {
            "code": {
              "coding": [
                {
                  "code": "26436-6",
                  "system": "http://loinc.org",
                  "display": "Laboratory studies (set)"
                }
              ],
              "text": "Laboratory studies"
            },
            "section": [
              {
                "code": {
                  "coding": [
                    {
                      "code": "$18719-5",
                      "system": "http://loinc.org",
                      "display": "Chemistry studies (set)"
                    }
                  ],
                  "text": "Chemistry"
                },
                "entry": [
                  {
                    "reference": "urn:uuid:4d4e5eca-0624-4a2d-8ec8-830d6e6f470d"
                  },
                  {
                    "reference": "urn:uuid:0377c640-d399-4f21-acb0-9fb9ed99db47"
                  },
                  {
                    "reference": "urn:uuid:09849fde-b045-4a37-af13-f1ece75e72a3"
                  },
                  {
                    "reference": "urn:uuid:f72d01d1-8d34-4c01-9bbf-609bac198884"
                  },
                  {
                    "reference": "urn:uuid:c21af867-93d9-4e3e-919a-ee768ff9829a"
                  },
                  {
                    "reference": "urn:uuid:50fe6f41-121a-460f-b0d4-5494c5688bf9"
                  },
                  {
                    "reference": "urn:uuid:f20b17a3-7d7c-4af8-8ecd-9dd08730cb85"
                  },
                  {
                    "reference": "urn:uuid:bf5ac295-1a00-4397-b87d-d18621355ede"
                  },
                  {
                    "reference": "urn:uuid:e6bd5ec7-7a84-4810-9c1a-6b54e9c84fa2"
                  }
                ],
                "text": {
                  "status": "generated",
                  "div": "<div xmlns=\"http://www.w3.org/1999/xhtml\"><h3>Chemistry</h3><table class=\"hl7__eu__lab__report\"><thead><tr><th>Test</th><th>16-SEP-2016</th><th>Reference&#xA0;Range</th><th>Unit</th></tr></thead><tbody><tr><td>Hemoglobin A1c/Hemoglobin.total in Blood</td><td><strong>4.0 L</strong></td><td>4.6 - 6.4</td><td>%</td></tr><tr><td>Glucose [Mass/volume] in Blood</td><td><strong>65.3 L</strong></td><td>70 - 110</td><td>mg/dL</td></tr><tr><td>Urea nitrogen [Mass/volume] in Blood</td><td>7.9</td><td>7 - 43</td><td>mg/dL</td></tr><tr><td>Creatinine [Mass/volume] in Blood</td><td>0.9</td><td>0.9 - 1.3</td><td>mg/dL</td></tr><tr><td>Calcium [Mass/volume] in Blood</td><td>9.2</td><td>8.5 - 10.5</td><td>mg/dL</td></tr><tr><td>Sodium [Moles/volume] in Blood</td><td>142.9</td><td>135 - 145</td><td>mmol/L</td></tr><tr><td>Potassium [Moles/volume] in Blood</td><td>4.5</td><td>3.5 - 5.3</td><td>mmol/L</td></tr><tr><td>Chloride [Moles/volume] in Blood</td><td><strong>110.6 H</strong></td><td>98 - 108</td><td>mmol/L</td></tr><tr><td>Carbon dioxide, total [Moles/volume] in Blood</td><td>24.4</td><td>22 - 29</td><td>mmol/L</td></tr></tbody></table></div>"
                },
                "title": "Chemistry"
              }
            ],
            "title": "Laboratory Report"
          },
          {
            "text": {
              "status": "generated",
              "div": "<div xmlns=\"http://www.w3.org/1999/xhtml\"><h3>Annotation</h3><table class=\"hl7__eu__lab__report\"><tr><th>Conclusion and Recommendations based on this report and previous findings known to us</th></tr><tr><td>The patient shows mildly low HbA1c and fasting glucose, which may suggest hypoglycemia or recent changes in glycemic control. Chloride is slightly elevated, possibly indicating mild dehydration, metabolic acidosis, or laboratory variation. Renal function, electrolytes, and other parameters are within normal limits. Clinical correlation is recommended.</td></tr></table></div>"
            },
            "code": {
              "coding": [
                {
                  "system": "http://loinc.org",
                  "code": "48767-8",
                  "display": "Annotation comment"
                }
              ]
            },
            "title": "Annotation comment"
          }
        ],
        "status": "final",
        "subject": {
          "reference": "urn:uuid:4ff0b4e4-b059-4809-acc2-89b920d33dd8",
          "display": "Gabrielius Gai훾i큰nas"
        },
        "date": "2016-09-16T18:05:46Z",
        "title": "Laboratory Report",
        "confidentiality": "N"
      }
    },
    {
      "fullUrl": "urn:uuid:9c7731b2-2a47-4737-a185-09aa1540e6c5",
      "resource": {
        "resourceType": "DiagnosticReport",
        "id": "9c7731b2-2a47-4737-a185-09aa1540e6c5",
        "meta": {
          "profile": [
            "http://hl7.eu/fhir/laboratory/StructureDefinition/DiagnosticReport-eu-lab"
          ]
        },
        "identifier": [
          {
            "assigner": {
              "display": "HL7 Europe"
            },
            "system": "urn:oid:2.16.840.1.113883.2.51.999",
            "value": "b4ec1b32-eade-4c61-a02f-de8578cbe456"
          }
        ],
        "extension": [
          {
            "url": "http://hl7.org/fhir/5.0/StructureDefinition/extension-DiagnosticReport.composition",
            "valueReference": {
              "reference": "urn:uuid:d110a026-a2c8-4391-8b5c-d432171bc6b3"
            }
          }
        ],
        "category": [
          {
            "coding": [
              {
                "code": "26436-6",
                "system": "http://loinc.org",
                "display": "Laboratory studies (set)"
              }
            ]
          }
        ],
        "specimen": [
          {
            "reference": "urn:uuid:511e2918-5bad-4347-b491-66e2fa8e05e1"
          }
        ],
        "result": [
          {
            "reference": "urn:uuid:4d4e5eca-0624-4a2d-8ec8-830d6e6f470d"
          },
          {
            "reference": "urn:uuid:0377c640-d399-4f21-acb0-9fb9ed99db47"
          },
          {
            "reference": "urn:uuid:09849fde-b045-4a37-af13-f1ece75e72a3"
          },
          {
            "reference": "urn:uuid:f72d01d1-8d34-4c01-9bbf-609bac198884"
          },
          {
            "reference": "urn:uuid:c21af867-93d9-4e3e-919a-ee768ff9829a"
          },
          {
            "reference": "urn:uuid:50fe6f41-121a-460f-b0d4-5494c5688bf9"
          },
          {
            "reference": "urn:uuid:f20b17a3-7d7c-4af8-8ecd-9dd08730cb85"
          },
          {
            "reference": "urn:uuid:bf5ac295-1a00-4397-b87d-d18621355ede"
          },
          {
            "reference": "urn:uuid:e6bd5ec7-7a84-4810-9c1a-6b54e9c84fa2"
          }
        ],
        "status": "registered",
        "code": {
          "coding": [
            {
              "code": "11502-2",
              "system": "http://loinc.org",
              "display": "Laboratory report"
            }
          ]
        },
        "subject": {
          "reference": "urn:uuid:4ff0b4e4-b059-4809-acc2-89b920d33dd8",
          "display": "Gabrielius Gai훾i큰nas"
        }
      }
    },
    {
      "fullUrl": "urn:uuid:4ff0b4e4-b059-4809-acc2-89b920d33dd8",
      "resource": {
        "resourceType": "Patient",
        "id": "4ff0b4e4-b059-4809-acc2-89b920d33dd8",
        "meta": {
          "security": [
            {
              "system": "http://terminology.hl7.org/CodeSystem/v3-ActReason",
              "code": "HTEST"
            },
            {
              "system": "http://terminology.hl7.org/CodeSystem/v3-ActReason",
              "code": "TRAIN"
            }
          ],
          "tag": [
            {
              "system": "https://synderai.net/fhir/CodeSystem/tags",
              "code": "synthetic",
              "display": "SYNDERAI Synthetic data"
            }
          ],
          "profile": [
            "http://hl7.eu/fhir/base/StructureDefinition/patient-eu-core"
          ]
        },
        "identifier": [
          {
            "type": {
              "coding": [
                {
                  "code": "PT",
                  "system": "http://terminology.hl7.org/CodeSystem/v2-0203"
                }
              ]
            },
            "system": "http://ec.europa.eu/identifier/eci",
            "value": "5711-320329-3"
          },
          {
            "type": {
              "coding": [
                {
                  "code": "MR",
                  "system": "http://terminology.hl7.org/CodeSystem/v2-0203"
                }
              ]
            },
            "system": "http://local.setting.eu/identifier",
            "value": "b2cdf95b-c12d-3f56-84e4-d085f70edd0c"
          }
        ],
        "name": [
          {
            "family": "Gai훾i큰nas"
          },
          {
            "given": [
              "Gabrielius"
            ]
          },
          {
            "text": "Gabrielius Gai훾i큰nas"
          }
        ],
        "address": [
          {
            "line": [
              "5951 Monika Rapid"
            ],
            "use": "home",
            "type": "physical",
            "postalCode": "97190",
            "city": "Po큄katon",
            "country": "Lithuania"
          }
        ],
        "telecom": [
          {
            "system": "phone",
            "value": "+370 71605146"
          }
        ],
        "extension": [
          {
            "url": "http://hl7.org/fhir/StructureDefinition/patient-nationality",
            "valueCodeableConcept": {
              "coding": [
                {
                  "code": "LT",
                  "system": "http://hl7.org/fhir/ValueSet/country"
                }
              ]
            }
          }
        ],
        "text": {
          "status": "generated",
          "div": "<div xmlns=\"http://www.w3.org/1999/xhtml\"><table class=\"hl7__ips\"><tr><td>Gabrielius Gai훾i큰nas</td><td>male</td><td>19-May-1948</td></tr></table></div>"
        },
        "gender": "male",
        "birthDate": "1948-05-19"
      }
    },
    {
      "fullUrl": "urn:uuid:e57a8c02-af19-4806-8f69-5174141898fe",
      "resource": {
        "resourceType": "ServiceRequest",
        "id": "e57a8c02-af19-4806-8f69-5174141898fe",
        "meta": {
          "profile": [
            "http://hl7.eu/fhir/laboratory/StructureDefinition/ServiceRequest-eu-lab"
          ]
        },
        "identifier": [
          {
            "system": "http://example.org",
            "value": "ee00d868-0995-43dd-b716-d3832dc483b2"
          }
        ],
        "specimen": [
          {
            "reference": "urn:uuid:511e2918-5bad-4347-b491-66e2fa8e05e1"
          }
        ],
        "reasonCode": [
          {
            "coding": [
              {
                "code": "414545008",
                "system": "http://snomed.info/sct",
                "display": "Ischemic heart disease"
              }
            ]
          },
          {
            "coding": [
              {
                "code": "157141000119108",
                "system": "http://snomed.info/sct",
                "display": "Proteinuria due to type 2 diabetes mellitus"
              }
            ]
          },
          {
            "coding": [
              {
                "code": "401303003",
                "system": "http://snomed.info/sct",
                "display": "Acute ST segment elevation myocardial infarction"
              }
            ]
          },
          {
            "coding": [
              {
                "code": "40055000",
                "system": "http://snomed.info/sct",
                "display": "Chronic sinusitis"
              }
            ]
          },
          {
            "coding": [
              {
                "code": "90781000119102",
                "system": "http://snomed.info/sct",
                "display": "Microalbuminuria due to type 2 diabetes mellitus"
              }
            ]
          },
          {
            "coding": [
              {
                "code": "127013003",
                "system": "http://snomed.info/sct",
                "display": "Disorder of kidney due to diabetes mellitus"
              }
            ]
          },
          {
            "coding": [
              {
                "code": "59621000",
                "system": "http://snomed.info/sct",
                "display": "Essential hypertension"
              }
            ]
          },
          {
            "coding": [
              {
                "code": "15777000",
                "system": "http://snomed.info/sct",
                "display": "Prediabetes"
              }
            ]
          },
          {
            "coding": [
              {
                "code": "271737000",
                "system": "http://snomed.info/sct",
                "display": "Anemia"
              }
            ]
          }
        ],
        "status": "active",
        "intent": "order",
        "code": {
          "coding": [
            {
              "code": "108252007",
              "system": "http://snomed.info/sct",
              "display": "Laboratory procedure"
            }
          ]
        },
        "subject": {
          "reference": "urn:uuid:4ff0b4e4-b059-4809-acc2-89b920d33dd8",
          "display": "Gabrielius Gai훾i큰nas"
        },
        "requester": {
          "reference": "urn:uuid:4fa93b06-f282-4662-8f83-96006fa32a9a"
        }
      }
    },
    {
      "fullUrl": "urn:uuid:4fa93b06-f282-4662-8f83-96006fa32a9a",
      "resource": {
        "resourceType": "PractitionerRole",
        "id": "4fa93b06-f282-4662-8f83-96006fa32a9a",
        "meta": {
          "profile": [
            "http://hl7.eu/fhir/base/StructureDefinition/practitionerRole-eu"
          ]
        },
        "text": {
          "status": "generated",
          "div": "<div xmlns=\"http://www.w3.org/1999/xhtml\">Provider Role Id: 4fa93b06-f282-4662-8f83-96006fa32a9a</div>"
        },
        "organization": {
          "reference": "urn:uuid:80345162-31c2-4ef0-a3a8-9284580c0c97"
        }
      }
    },
    {
      "fullUrl": "urn:uuid:80345162-31c2-4ef0-a3a8-9284580c0c97",
      "resource": {
        "resourceType": "Organization",
        "id": "80345162-31c2-4ef0-a3a8-9284580c0c97",
        "meta": {
          "profile": [
            "http://hl7.eu/fhir/base/StructureDefinition/organization-eu"
          ]
        },
        "identifier": [
          {
            "assigner": {
              "display": "HL7 Europe"
            },
            "system": "urn:oid:2.16.840.1.113883.2.51.999",
            "value": "5bf182b0-119a-4422-ae65-62cf4a24e0ec"
          }
        ],
        "address": [
          {
            "line": [
              "182 Savanori킬 pr."
            ],
            "city": "Klaip휊da",
            "postalCode": "LT-91200",
            "country": "Lithuania"
          }
        ],
        "text": {
          "status": "generated",
          "div": "<div xmlns=\"http://www.w3.org/1999/xhtml\">Provider Organization: Dr. Tomas Bakas</div>"
        },
        "name": "Dr. Tomas Bakas"
      }
    },
    {
      "fullUrl": "urn:uuid:511e2918-5bad-4347-b491-66e2fa8e05e1",
      "resource": {
        "resourceType": "Specimen",
        "id": "511e2918-5bad-4347-b491-66e2fa8e05e1",
        "meta": {
          "profile": [
            "http://hl7.eu/fhir/laboratory/StructureDefinition/Specimen-eu-lab"
          ]
        },
        "collection": {
          "collectedDateTime": "2016-09-16"
        },
        "text": {
          "status": "generated",
          "div": "<div xmlns=\"http://www.w3.org/1999/xhtml\"><table class=\"hl7__eu__lab__report\"><tr><th>Specimen</th><th>Collection Date</th></tr><tr><td>Whole blood specimen (specimen)</td><td><span class=\"nb\">16-Sep-2016</span></td></tr></table></div>"
        },
        "type": {
          "coding": [
            {
              "code": "258580003",
              "system": "http://snomed.info/sct",
              "display": "Whole blood specimen (specimen)"
            }
          ]
        }
      }
    },
    {
      "fullUrl": "urn:uuid:4d4e5eca-0624-4a2d-8ec8-830d6e6f470d",
      "resource": {
        "resourceType": "Observation",
        "id": "4d4e5eca-0624-4a2d-8ec8-830d6e6f470d",
        "meta": {
          "profile": [
            "http://hl7.eu/fhir/laboratory/StructureDefinition/Observation-resultslab-eu-lab"
          ]
        },
        "performer": [
          {
            "display": "The Central European Lab"
          }
        ],
        "category": [
          {
            "coding": [
              {
                "system": "http://terminology.hl7.org/CodeSystem/observation-category",
                "code": "laboratory"
              }
            ]
          }
        ],
        "code": {
          "coding": [
            {
              "code": "4548-4",
              "system": "http://loinc.org",
              "display": "Hemoglobin A1c/Hemoglobin.total in Blood"
            }
          ],
          "text": "Hemoglobin A1c/Hemoglobin.total in Blood"
        },
        "valueQuantity": {
          "system": "http://unitsofmeasure.org",
          "value": 4,
          "unit": "%",
          "code": "%"
        },
        "referenceRange": [
          {
            "low": {
              "value": 4.6,
              "code": "%",
              "system": "http://unitsofmeasure.org"
            }
          },
          {
            "high": {
              "value": 6.4,
              "code": "%",
              "system": "http://unitsofmeasure.org"
            }
          }
        ],
        "interpretation": [
          {
            "coding": [
              {
                "code": "L",
                "system": "http://terminology.hl7.org/CodeSystem/v3-ObservationInterpretation",
                "display": "Low"
              }
            ]
          }
        ],
        "text": {
          "status": "generated",
          "div": "<div xmlns=\"http://www.w3.org/1999/xhtml\"><table class=\"hl7__eu__lab__report\"><tr><th>Test</th><th>16-Sep-2016</th><th>Reference&#xA0;Range</th><th>Unit</th></tr><tr><td>Hemoglobin A1c/Hemoglobin.total in Blood</td><td>4.0</td><td>4.6 - 6.4</td><td>L</td><td>%</td></tr></table></div>"
        },
        "status": "final",
        "subject": {
          "reference": "urn:uuid:4ff0b4e4-b059-4809-acc2-89b920d33dd8",
          "display": "Gabrielius Gai훾i큰nas"
        },
        "effectiveDateTime": "2016-09-16T16:05:46Z",
        "specimen": {
          "reference": "urn:uuid:511e2918-5bad-4347-b491-66e2fa8e05e1"
        }
      }
    },
    {
      "fullUrl": "urn:uuid:0377c640-d399-4f21-acb0-9fb9ed99db47",
      "resource": {
        "resourceType": "Observation",
        "id": "0377c640-d399-4f21-acb0-9fb9ed99db47",
        "meta": {
          "profile": [
            "http://hl7.eu/fhir/laboratory/StructureDefinition/Observation-resultslab-eu-lab"
          ]
        },
        "performer": [
          {
            "display": "The Central European Lab"
          }
        ],
        "category": [
          {
            "coding": [
              {
                "system": "http://terminology.hl7.org/CodeSystem/observation-category",
                "code": "laboratory"
              }
            ]
          }
        ],
        "code": {
          "coding": [
            {
              "code": "2339-0",
              "system": "http://loinc.org",
              "display": "Glucose [Mass/volume] in Blood"
            }
          ],
          "text": "Glucose [Mass/volume] in Blood"
        },
        "valueQuantity": {
          "system": "http://unitsofmeasure.org",
          "value": 65.3,
          "unit": "mg/dL",
          "code": "mg/dL"
        },
        "referenceRange": [
          {
            "low": {
              "value": 70,
              "code": "mg/dL",
              "system": "http://unitsofmeasure.org"
            }
          },
          {
            "high": {
              "value": 110,
              "code": "mg/dL",
              "system": "http://unitsofmeasure.org"
            }
          }
        ],
        "interpretation": [
          {
            "coding": [
              {
                "code": "L",
                "system": "http://terminology.hl7.org/CodeSystem/v3-ObservationInterpretation",
                "display": "Low"
              }
            ]
          }
        ],
        "text": {
          "status": "generated",
          "div": "<div xmlns=\"http://www.w3.org/1999/xhtml\"><table class=\"hl7__eu__lab__report\"><tr><th>Test</th><th>16-Sep-2016</th><th>Reference&#xA0;Range</th><th>Unit</th></tr><tr><td>Glucose [Mass/volume] in Blood</td><td>65.3</td><td>70 - 110</td><td>L</td><td>mg/dL</td></tr></table></div>"
        },
        "status": "final",
        "subject": {
          "reference": "urn:uuid:4ff0b4e4-b059-4809-acc2-89b920d33dd8",
          "display": "Gabrielius Gai훾i큰nas"
        },
        "effectiveDateTime": "2016-09-16T16:05:46Z",
        "specimen": {
          "reference": "urn:uuid:511e2918-5bad-4347-b491-66e2fa8e05e1"
        }
      }
    },
    {
      "fullUrl": "urn:uuid:09849fde-b045-4a37-af13-f1ece75e72a3",
      "resource": {
        "resourceType": "Observation",
        "id": "09849fde-b045-4a37-af13-f1ece75e72a3",
        "meta": {
          "profile": [
            "http://hl7.eu/fhir/laboratory/StructureDefinition/Observation-resultslab-eu-lab"
          ]
        },
        "performer": [
          {
            "display": "The Central European Lab"
          }
        ],
        "category": [
          {
            "coding": [
              {
                "system": "http://terminology.hl7.org/CodeSystem/observation-category",
                "code": "laboratory"
              }
            ]
          }
        ],
        "code": {
          "coding": [
            {
              "code": "6299-2",
              "system": "http://loinc.org",
              "display": "Urea nitrogen [Mass/volume] in Blood"
            }
          ],
          "text": "Urea nitrogen [Mass/volume] in Blood"
        },
        "valueQuantity": {
          "system": "http://unitsofmeasure.org",
          "value": 7.9,
          "unit": "mg/dL",
          "code": "mg/dL"
        },
        "referenceRange": [
          {
            "low": {
              "value": 7,
              "code": "mg/dL",
              "system": "http://unitsofmeasure.org"
            }
          },
          {
            "high": {
              "value": 43,
              "code": "mg/dL",
              "system": "http://unitsofmeasure.org"
            }
          }
        ],
        "text": {
          "status": "generated",
          "div": "<div xmlns=\"http://www.w3.org/1999/xhtml\"><table class=\"hl7__eu__lab__report\"><tr><th>Test</th><th>16-Sep-2016</th><th>Reference&#xA0;Range</th><th>Unit</th></tr><tr><td>Urea nitrogen [Mass/volume] in Blood</td><td>7.9</td><td>7 - 43</td><td></td><td>mg/dL</td></tr></table></div>"
        },
        "status": "final",
        "subject": {
          "reference": "urn:uuid:4ff0b4e4-b059-4809-acc2-89b920d33dd8",
          "display": "Gabrielius Gai훾i큰nas"
        },
        "effectiveDateTime": "2016-09-16T16:05:46Z",
        "specimen": {
          "reference": "urn:uuid:511e2918-5bad-4347-b491-66e2fa8e05e1"
        }
      }
    },
    {
      "fullUrl": "urn:uuid:f72d01d1-8d34-4c01-9bbf-609bac198884",
      "resource": {
        "resourceType": "Observation",
        "id": "f72d01d1-8d34-4c01-9bbf-609bac198884",
        "meta": {
          "profile": [
            "http://hl7.eu/fhir/laboratory/StructureDefinition/Observation-resultslab-eu-lab"
          ]
        },
        "performer": [
          {
            "display": "The Central European Lab"
          }
        ],
        "category": [
          {
            "coding": [
              {
                "system": "http://terminology.hl7.org/CodeSystem/observation-category",
                "code": "laboratory"
              }
            ]
          }
        ],
        "code": {
          "coding": [
            {
              "code": "38483-4",
              "system": "http://loinc.org",
              "display": "Creatinine [Mass/volume] in Blood"
            }
          ],
          "text": "Creatinine [Mass/volume] in Blood"
        },
        "valueQuantity": {
          "system": "http://unitsofmeasure.org",
          "value": 0.9,
          "unit": "mg/dL",
          "code": "mg/dL"
        },
        "referenceRange": [
          {
            "low": {
              "value": 0.9,
              "code": "mg/dL",
              "system": "http://unitsofmeasure.org"
            }
          },
          {
            "high": {
              "value": 1.3,
              "code": "mg/dL",
              "system": "http://unitsofmeasure.org"
            }
          }
        ],
        "text": {
          "status": "generated",
          "div": "<div xmlns=\"http://www.w3.org/1999/xhtml\"><table class=\"hl7__eu__lab__report\"><tr><th>Test</th><th>16-Sep-2016</th><th>Reference&#xA0;Range</th><th>Unit</th></tr><tr><td>Creatinine [Mass/volume] in Blood</td><td>0.9</td><td>0.9 - 1.3</td><td></td><td>mg/dL</td></tr></table></div>"
        },
        "status": "final",
        "subject": {
          "reference": "urn:uuid:4ff0b4e4-b059-4809-acc2-89b920d33dd8",
          "display": "Gabrielius Gai훾i큰nas"
        },
        "effectiveDateTime": "2016-09-16T16:05:46Z",
        "specimen": {
          "reference": "urn:uuid:511e2918-5bad-4347-b491-66e2fa8e05e1"
        }
      }
    },
    {
      "fullUrl": "urn:uuid:c21af867-93d9-4e3e-919a-ee768ff9829a",
      "resource": {
        "resourceType": "Observation",
        "id": "c21af867-93d9-4e3e-919a-ee768ff9829a",
        "meta": {
          "profile": [
            "http://hl7.eu/fhir/laboratory/StructureDefinition/Observation-resultslab-eu-lab"
          ]
        },
        "performer": [
          {
            "display": "The Central European Lab"
          }
        ],
        "category": [
          {
            "coding": [
              {
                "system": "http://terminology.hl7.org/CodeSystem/observation-category",
                "code": "laboratory"
              }
            ]
          }
        ],
        "code": {
          "coding": [
            {
              "code": "49765-1",
              "system": "http://loinc.org",
              "display": "Calcium [Mass/volume] in Blood"
            }
          ],
          "text": "Calcium [Mass/volume] in Blood"
        },
        "valueQuantity": {
          "system": "http://unitsofmeasure.org",
          "value": 9.2,
          "unit": "mg/dL",
          "code": "mg/dL"
        },
        "referenceRange": [
          {
            "low": {
              "value": 8.5,
              "code": "mg/dL",
              "system": "http://unitsofmeasure.org"
            }
          },
          {
            "high": {
              "value": 10.5,
              "code": "mg/dL",
              "system": "http://unitsofmeasure.org"
            }
          }
        ],
        "text": {
          "status": "generated",
          "div": "<div xmlns=\"http://www.w3.org/1999/xhtml\"><table class=\"hl7__eu__lab__report\"><tr><th>Test</th><th>16-Sep-2016</th><th>Reference&#xA0;Range</th><th>Unit</th></tr><tr><td>Calcium [Mass/volume] in Blood</td><td>9.2</td><td>8.5 - 10.5</td><td></td><td>mg/dL</td></tr></table></div>"
        },
        "status": "final",
        "subject": {
          "reference": "urn:uuid:4ff0b4e4-b059-4809-acc2-89b920d33dd8",
          "display": "Gabrielius Gai훾i큰nas"
        },
        "effectiveDateTime": "2016-09-16T16:05:46Z",
        "specimen": {
          "reference": "urn:uuid:511e2918-5bad-4347-b491-66e2fa8e05e1"
        }
      }
    },
    {
      "fullUrl": "urn:uuid:50fe6f41-121a-460f-b0d4-5494c5688bf9",
      "resource": {
        "resourceType": "Observation",
        "id": "50fe6f41-121a-460f-b0d4-5494c5688bf9",
        "meta": {
          "profile": [
            "http://hl7.eu/fhir/laboratory/StructureDefinition/Observation-resultslab-eu-lab"
          ]
        },
        "performer": [
          {
            "display": "The Central European Lab"
          }
        ],
        "category": [
          {
            "coding": [
              {
                "system": "http://terminology.hl7.org/CodeSystem/observation-category",
                "code": "laboratory"
              }
            ]
          }
        ],
        "code": {
          "coding": [
            {
              "code": "2947-0",
              "system": "http://loinc.org",
              "display": "Sodium [Moles/volume] in Blood"
            }
          ],
          "text": "Sodium [Moles/volume] in Blood"
        },
        "valueQuantity": {
          "system": "http://unitsofmeasure.org",
          "value": 142.9,
          "unit": "mmol/L",
          "code": "mmol/L"
        },
        "referenceRange": [
          {
            "low": {
              "value": 135,
              "code": "mmol/L",
              "system": "http://unitsofmeasure.org"
            }
          },
          {
            "high": {
              "value": 145,
              "code": "mmol/L",
              "system": "http://unitsofmeasure.org"
            }
          }
        ],
        "text": {
          "status": "generated",
          "div": "<div xmlns=\"http://www.w3.org/1999/xhtml\"><table class=\"hl7__eu__lab__report\"><tr><th>Test</th><th>16-Sep-2016</th><th>Reference&#xA0;Range</th><th>Unit</th></tr><tr><td>Sodium [Moles/volume] in Blood</td><td>142.9</td><td>135 - 145</td><td></td><td>mmol/L</td></tr></table></div>"
        },
        "status": "final",
        "subject": {
          "reference": "urn:uuid:4ff0b4e4-b059-4809-acc2-89b920d33dd8",
          "display": "Gabrielius Gai훾i큰nas"
        },
        "effectiveDateTime": "2016-09-16T16:05:46Z",
        "specimen": {
          "reference": "urn:uuid:511e2918-5bad-4347-b491-66e2fa8e05e1"
        }
      }
    },
    {
      "fullUrl": "urn:uuid:f20b17a3-7d7c-4af8-8ecd-9dd08730cb85",
      "resource": {
        "resourceType": "Observation",
        "id": "f20b17a3-7d7c-4af8-8ecd-9dd08730cb85",
        "meta": {
          "profile": [
            "http://hl7.eu/fhir/laboratory/StructureDefinition/Observation-resultslab-eu-lab"
          ]
        },
        "performer": [
          {
            "display": "The Central European Lab"
          }
        ],
        "category": [
          {
            "coding": [
              {
                "system": "http://terminology.hl7.org/CodeSystem/observation-category",
                "code": "laboratory"
              }
            ]
          }
        ],
        "code": {
          "coding": [
            {
              "code": "6298-4",
              "system": "http://loinc.org",
              "display": "Potassium [Moles/volume] in Blood"
            }
          ],
          "text": "Potassium [Moles/volume] in Blood"
        },
        "valueQuantity": {
          "system": "http://unitsofmeasure.org",
          "value": 4.5,
          "unit": "mmol/L",
          "code": "mmol/L"
        },
        "referenceRange": [
          {
            "low": {
              "value": 3.5,
              "code": "mmol/L",
              "system": "http://unitsofmeasure.org"
            }
          },
          {
            "high": {
              "value": 5.3,
              "code": "mmol/L",
              "system": "http://unitsofmeasure.org"
            }
          }
        ],
        "text": {
          "status": "generated",
          "div": "<div xmlns=\"http://www.w3.org/1999/xhtml\"><table class=\"hl7__eu__lab__report\"><tr><th>Test</th><th>16-Sep-2016</th><th>Reference&#xA0;Range</th><th>Unit</th></tr><tr><td>Potassium [Moles/volume] in Blood</td><td>4.5</td><td>3.5 - 5.3</td><td></td><td>mmol/L</td></tr></table></div>"
        },
        "status": "final",
        "subject": {
          "reference": "urn:uuid:4ff0b4e4-b059-4809-acc2-89b920d33dd8",
          "display": "Gabrielius Gai훾i큰nas"
        },
        "effectiveDateTime": "2016-09-16T16:05:46Z",
        "specimen": {
          "reference": "urn:uuid:511e2918-5bad-4347-b491-66e2fa8e05e1"
        }
      }
    },
    {
      "fullUrl": "urn:uuid:bf5ac295-1a00-4397-b87d-d18621355ede",
      "resource": {
        "resourceType": "Observation",
        "id": "bf5ac295-1a00-4397-b87d-d18621355ede",
        "meta": {
          "profile": [
            "http://hl7.eu/fhir/laboratory/StructureDefinition/Observation-resultslab-eu-lab"
          ]
        },
        "performer": [
          {
            "display": "The Central European Lab"
          }
        ],
        "category": [
          {
            "coding": [
              {
                "system": "http://terminology.hl7.org/CodeSystem/observation-category",
                "code": "laboratory"
              }
            ]
          }
        ],
        "code": {
          "coding": [
            {
              "code": "2069-3",
              "system": "http://loinc.org",
              "display": "Chloride [Moles/volume] in Blood"
            }
          ],
          "text": "Chloride [Moles/volume] in Blood"
        },
        "valueQuantity": {
          "system": "http://unitsofmeasure.org",
          "value": 110.6,
          "unit": "mmol/L",
          "code": "mmol/L"
        },
        "referenceRange": [
          {
            "low": {
              "value": 98,
              "code": "mmol/L",
              "system": "http://unitsofmeasure.org"
            }
          },
          {
            "high": {
              "value": 108,
              "code": "mmol/L",
              "system": "http://unitsofmeasure.org"
            }
          }
        ],
        "interpretation": [
          {
            "coding": [
              {
                "code": "H",
                "system": "http://terminology.hl7.org/CodeSystem/v3-ObservationInterpretation",
                "display": "High"
              }
            ]
          }
        ],
        "text": {
          "status": "generated",
          "div": "<div xmlns=\"http://www.w3.org/1999/xhtml\"><table class=\"hl7__eu__lab__report\"><tr><th>Test</th><th>16-Sep-2016</th><th>Reference&#xA0;Range</th><th>Unit</th></tr><tr><td>Chloride [Moles/volume] in Blood</td><td>110.6</td><td>98 - 108</td><td>H</td><td>mmol/L</td></tr></table></div>"
        },
        "status": "final",
        "subject": {
          "reference": "urn:uuid:4ff0b4e4-b059-4809-acc2-89b920d33dd8",
          "display": "Gabrielius Gai훾i큰nas"
        },
        "effectiveDateTime": "2016-09-16T16:05:46Z",
        "specimen": {
          "reference": "urn:uuid:511e2918-5bad-4347-b491-66e2fa8e05e1"
        }
      }
    },
    {
      "fullUrl": "urn:uuid:e6bd5ec7-7a84-4810-9c1a-6b54e9c84fa2",
      "resource": {
        "resourceType": "Observation",
        "id": "e6bd5ec7-7a84-4810-9c1a-6b54e9c84fa2",
        "meta": {
          "profile": [
            "http://hl7.eu/fhir/laboratory/StructureDefinition/Observation-resultslab-eu-lab"
          ]
        },
        "performer": [
          {
            "display": "The Central European Lab"
          }
        ],
        "category": [
          {
            "coding": [
              {
                "system": "http://terminology.hl7.org/CodeSystem/observation-category",
                "code": "laboratory"
              }
            ]
          }
        ],
        "code": {
          "coding": [
            {
              "code": "20565-8",
              "system": "http://loinc.org",
              "display": "Carbon dioxide, total [Moles/volume] in Blood"
            }
          ],
          "text": "Carbon dioxide, total [Moles/volume] in Blood"
        },
        "valueQuantity": {
          "system": "http://unitsofmeasure.org",
          "value": 24.4,
          "unit": "mmol/L",
          "code": "mmol/L"
        },
        "referenceRange": [
          {
            "low": {
              "value": 22,
              "code": "mmol/L",
              "system": "http://unitsofmeasure.org"
            }
          },
          {
            "high": {
              "value": 29,
              "code": "mmol/L",
              "system": "http://unitsofmeasure.org"
            }
          }
        ],
        "text": {
          "status": "generated",
          "div": "<div xmlns=\"http://www.w3.org/1999/xhtml\"><table class=\"hl7__eu__lab__report\"><tr><th>Test</th><th>16-Sep-2016</th><th>Reference&#xA0;Range</th><th>Unit</th></tr><tr><td>Carbon dioxide, total [Moles/volume] in Blood</td><td>24.4</td><td>22 - 29</td><td></td><td>mmol/L</td></tr></table></div>"
        },
        "status": "final",
        "subject": {
          "reference": "urn:uuid:4ff0b4e4-b059-4809-acc2-89b920d33dd8",
          "display": "Gabrielius Gai훾i큰nas"
        },
        "effectiveDateTime": "2016-09-16T16:05:46Z",
        "specimen": {
          "reference": "urn:uuid:511e2918-5bad-4347-b491-66e2fa8e05e1"
        }
      }
    },
    {
      "fullUrl": "urn:uuid:fa84072b-69e4-4ebc-9b15-e7dd08391cff",
      "resource": {
        "resourceType": "Device",
        "id": "fa84072b-69e4-4ebc-9b15-e7dd08391cff",
        "deviceName": [
          {
            "name": "SYNDERAI Synthetic Generator",
            "type": "manufacturer-name"
          }
        ],
        "version": [
          {
            "value": "5.0"
          }
        ],
        "text": {
          "status": "generated",
          "div": "<div xmlns=\"http://www.w3.org/1999/xhtml\">SYNDERAI Synthetic Generator v5.0</div>"
        },
        "status": "active\"",
        "distinctIdentifier": "synderai-generator-50",
        "manufacturer": "SYNDERAI Project"
      }
    },
    {
      "fullUrl": "urn:uuid:cef22ca8-d098-4eb5-b93d-2d6f2bd2f44d",
      "resource": {
        "resourceType": "Provenance",
        "id": "cef22ca8-d098-4eb5-b93d-2d6f2bd2f44d",
        "target": [
          {
            "reference": "Patient/4ff0b4e4-b059-4809-acc2-89b920d33dd8"
          },
          {
            "reference": "Bundle/bdd4adaa-08e1-45c7-a523-80cfade3962e"
          },
          {
            "reference": "Composition/19906ba8-82fd-41db-a0c1-23a52207f2d2"
          },
          {
            "reference": "PractitionerRole/c262d700-6563-4585-abd8-ba2d115560a9"
          },
          {
            "reference": "Practitioner/53433c9d-6409-405d-b0e9-204fbffc6cd7"
          },
          {
            "reference": "PractitionerRole/4fa93b06-f282-4662-8f83-96006fa32a9a"
          },
          {
            "reference": "Organization/80345162-31c2-4ef0-a3a8-9284580c0c97"
          }
        ],
        "activity": {
          "text": "Synthetic Example Data Generation"
        },
        "policy": [
          "https://synderai.net/synderai-synthetic-data-policy"
        ],
        "agent": [
          {
            "type": {
              "text": "author"
            },
            "who": {
              "reference": "Device/fa84072b-69e4-4ebc-9b15-e7dd08391cff"
            }
          }
        ],
        "reason": [
          {
            "text": "Interoperability Testing and Training (non-clinical use)"
          }
        ],
        "text": {
          "status": "generated",
          "div": "<div xmlns=\"http://www.w3.org/1999/xhtml\">Provenance for SYNDERAI Synthetic Example Data Resource</div>"
        },
        "recorded": "2016-09-16T18:05:46Z"
      }
    },
    {
      "fullUrl": "urn:uuid:c262d700-6563-4585-abd8-ba2d115560a9",
      "resource": {
        "resourceType": "PractitionerRole",
        "id": "c262d700-6563-4585-abd8-ba2d115560a9",
        "meta": {
          "profile": [
            "http://hl7.eu/fhir/base/StructureDefinition/practitionerRole-eu"
          ]
        },
        "text": {
          "status": "generated",
          "div": "<div xmlns=\"http://www.w3.org/1999/xhtml\">Laboratory Role Id: c262d700-6563-4585-abd8-ba2d115560a9</div>"
        },
        "practitioner": {
          "reference": "urn:uuid:53433c9d-6409-405d-b0e9-204fbffc6cd7"
        }
      }
    },
    {
      "fullUrl": "urn:uuid:53433c9d-6409-405d-b0e9-204fbffc6cd7",
      "resource": {
        "resourceType": "Practitioner",
        "id": "53433c9d-6409-405d-b0e9-204fbffc6cd7",
        "meta": {
          "profile": [
            "http://hl7.eu/fhir/base/StructureDefinition/practitioner-eu"
          ]
        },
        "identifier": [
          {
            "assigner": {
              "display": "HL7 Europe"
            },
            "system": "urn:oid:2.16.840.1.113883.2.51.999",
            "value": "c881d733-d252-4a87-9c6f-d011bfcfc0a9"
          }
        ],
        "name": [
          {
            "prefix": [
              "dr"
            ],
            "given": [
              "Ex"
            ],
            "family": "Ample"
          }
        ],
        "address": [
          {
            "line": [
              "Laboratoire Central Europ챕enne",
              "Boulevard du Jardin Botanique 32"
            ],
            "postalCode": "1000",
            "city": "Brussels",
            "country": "Belgium"
          }
        ],
        "text": {
          "status": "generated",
          "div": "<div xmlns=\"http://www.w3.org/1999/xhtml\">Laboratory: Laboratoire Central Europ챕enne, 1000 Brussels, Belgium</div>"
        }
      }
    }
  ],
  "type": "document",
  "timestamp": "2016-09-16T18:05:46Z"
}
