<Bundle xmlns="http://hl7.org/fhir">
   <id value="0decdeeb-4c98-43bf-abdf-bbd4544b4dba"/>
   <meta>
      <profile value="http://hl7.eu/fhir/laboratory/StructureDefinition/Bundle-eu-lab"/>
   </meta>
   <identifier>
      <system value="urn:oid:2.16.840.1.113883.2.51.999"/>
      <value value="fe8a7f6d-86a4-432b-9d33-bbd12e08b1e5"/>
      <assigner>
         <display value="HL7 Europe"/>
      </assigner>
   </identifier>
   <type value="document"/>
   <timestamp value="2016-06-14T19:07:13Z"/>
   <entry>
      <fullUrl value="urn:uuid:eb721b56-584c-4198-9021-5aef2e19b27d"/>
      <resource>
         <Composition>
            <id value="eb721b56-584c-4198-9021-5aef2e19b27d"/>
            <meta>
               <profile value="http://hl7.eu/fhir/laboratory/StructureDefinition/Composition-eu-lab"/>
            </meta>
            <identifier>
               <system value="urn:oid:2.16.840.1.113883.2.51.999"/>
               <value value="535e5d6f-6495-466e-8295-59eddd8590d0"/>
               <assigner>
                  <display value="HL7 Europe"/>
               </assigner>
            </identifier>
            <status value="final"/>
            <type>
               <coding>
                  <system value="http://loinc.org"/>
                  <code value="11502-2"/>
                  <display value="Laboratory report"/>
               </coding>
               <text value="Laboratory Report"/>
            </type>
            <category>
               <coding>
                  <system value="http://loinc.org"/>
                  <code value="26436-6"/>
                  <display value="Laboratory studies (set)"/>
               </coding>
            </category>
            <subject>
               <reference value="urn:uuid:1ac8aef2-2a01-4c5a-9048-7f68490fa711"/>
               <display value="Urbano Cantón"/>
            </subject>
            <date value="2016-06-14T19:07:13Z"/>
            <author>
               <reference value="urn:uuid:b225e6ef-6f36-47d5-b97f-6a998eec3ca8"/>
            </author>
            <title value="Laboratory Report"/>
            <confidentiality value="N"/>
            <section>
               <title value="Laboratory Report"/>
               <code>
                  <coding>
                     <system value="http://loinc.org"/>
                     <code value="26436-6"/>
                     <display value="Laboratory studies (set)"/>
                  </coding>
                  <text value="Laboratory studies"/>
               </code>
               <section>
                  <title value="Chemistry"/>
                  <code>
                     <coding>
                        <system value="http://loinc.org"/>
                        <code value="$18719-5"/>
                        <display value="Chemistry studies (set)"/>
                     </coding>
                     <text value="Chemistry"/>
                  </code>
                  <text>
                     <status value="generated"/>
                     <div xmlns="http://www.w3.org/1999/xhtml">
                        <h3>Chemistry</h3>
                        <table class="hl7__eu__lab__report">
                           <thead>
                              <tr>
                                 <th>Test</th>
                                 <th>14-JUN-2016</th>
                                 <th>Reference Range</th>
                                 <th>Unit</th>
                              </tr>
                           </thead>
                           <tbody>
                              <tr>
                                 <td>Hemoglobin A1c/Hemoglobin.total in Blood</td>
                                 <td>5.4</td>
                                 <td>4.5 - 6.4</td>
                                 <td>%</td>
                              </tr>
                           </tbody>
                        </table>
                     </div>
                  </text>
                  <entry>
                     <reference value="urn:uuid:6c71d05d-09af-46b3-b800-842453070db0"/>
                  </entry>
               </section>
            </section>
            <section>
               <title value="Annotation comment"/>
               <code>
                  <coding>
                     <system value="http://loinc.org"/>
                     <code value="48767-8"/>
                     <display value="Annotation comment"/>
                  </coding>
               </code>
               <text>
                  <status value="generated"/>
                  <div xmlns="http://www.w3.org/1999/xhtml">
                     <h3>Annotation</h3>
                     <table class="hl7__eu__lab__report">
                        <tr>
                           <th>Conclusion and Recommendations based on this report and previous findings known to us</th>
                        </tr>
                        <tr>
                           <td>Hemoglobin A1c is within the normal range, indicating good long-term glycemic control. No laboratory abnormalities detected in this result. No further action required from a laboratory perspective.</td>
                        </tr>
                     </table>
                  </div>
               </text>
            </section>
         </Composition>
      </resource>
   </entry>
   <entry>
      <fullUrl value="urn:uuid:9300307a-356d-4e58-955b-3b5e94e55f24"/>
      <resource>
         <DiagnosticReport>
            <id value="9300307a-356d-4e58-955b-3b5e94e55f24"/>
            <meta>
               <profile value="http://hl7.eu/fhir/laboratory/StructureDefinition/DiagnosticReport-eu-lab"/>
            </meta>
            <extension url="http://hl7.org/fhir/5.0/StructureDefinition/extension-DiagnosticReport.composition">
               <valueReference>
                  <reference value="urn:uuid:535e5d6f-6495-466e-8295-59eddd8590d0"/>
               </valueReference>
            </extension>
            <identifier>
               <system value="urn:oid:2.16.840.1.113883.2.51.999"/>
               <value value="58101975-98e0-4ca9-b70e-d217b86d6d73"/>
               <assigner>
                  <display value="HL7 Europe"/>
               </assigner>
            </identifier>
            <status value="registered"/>
            <category>
               <coding>
                  <system value="http://loinc.org"/>
                  <code value="26436-6"/>
                  <display value="Laboratory studies (set)"/>
               </coding>
            </category>
            <code>
               <coding>
                  <system value="http://loinc.org"/>
                  <code value="11502-2"/>
                  <display value="Laboratory report"/>
               </coding>
            </code>
            <subject>
               <reference value="urn:uuid:1ac8aef2-2a01-4c5a-9048-7f68490fa711"/>
               <display value="Urbano Cantón"/>
            </subject>
            <specimen>
               <reference value="urn:uuid:28964808-18d4-4fbc-afc6-889cfea313c5"/>
            </specimen>
            <result>
               <reference value="urn:uuid:6c71d05d-09af-46b3-b800-842453070db0"/>
            </result>
         </DiagnosticReport>
      </resource>
   </entry>
   <entry>
      <fullUrl value="urn:uuid:1ac8aef2-2a01-4c5a-9048-7f68490fa711"/>
      <resource>
         <Patient>
            <id value="1ac8aef2-2a01-4c5a-9048-7f68490fa711"/>
            <meta>
               <profile value="http://hl7.eu/fhir/base/StructureDefinition/patient-eu-core"/>
               <security>
                  <system value="http://terminology.hl7.org/CodeSystem/v3-ActReason"/>
                  <code value="HTEST"/>
               </security>
               <security>
                  <system value="http://terminology.hl7.org/CodeSystem/v3-ActReason"/>
                  <code value="TRAIN"/>
               </security>
               <tag>
                  <system value="https://synderai.net/fhir/CodeSystem/tags"/>
                  <code value="synthetic"/>
                  <display value="SYNDERAI Synthetic data"/>
               </tag>
            </meta>
            <text>
               <status value="generated"/>
               <div xmlns="http://www.w3.org/1999/xhtml">
                  <table class="hl7__ips">
                     <tr>
                        <td>Urbano Cantón</td>
                        <td>male</td>
                        <td>01-Apr-1945</td>
                     </tr>
                  </table>
               </div>
            </text>
            <extension url="http://hl7.org/fhir/StructureDefinition/patient-nationality">
               <valueCodeableConcept>
                  <coding>
                     <system value="http://hl7.org/fhir/ValueSet/country"/>
                     <code value="ES"/>
                  </coding>
               </valueCodeableConcept>
            </extension>
            <identifier>
               <type>
                  <coding>
                     <system value="http://terminology.hl7.org/CodeSystem/v2-0203"/>
                     <code value="PT"/>
                  </coding>
               </type>
               <system value="http://ec.europa.eu/identifier/eci"/>
               <value value="8854-480268-4"/>
            </identifier>
            <identifier>
               <type>
                  <coding>
                     <system value="http://terminology.hl7.org/CodeSystem/v2-0203"/>
                     <code value="MR"/>
                  </coding>
               </type>
               <system value="http://local.setting.eu/identifier"/>
               <value value="91128f5c-658f-cfab-4640-b680ec2e24a1"/>
            </identifier>
            <name>
               <family value="Cantón"/>
            </name>
            <name>
               <given value="Urbano"/>
            </name>
            <name>
               <text value="Urbano Cantón"/>
            </name>
            <telecom>
               <system value="phone"/>
               <value value="+34 740 588 857"/>
            </telecom>
            <gender value="male"/>
            <birthDate value="1945-04-01"/>
            <address>
               <use value="home"/>
               <type value="physical"/>
               <line value="Vial Vito Trujillo 29 Piso 2 "/>
               <city value="Santa Cruz de Tenerife"/>
               <postalCode value="38001"/>
               <country value="Spain"/>
            </address>
         </Patient>
      </resource>
   </entry>
   <entry>
      <fullUrl value="urn:uuid:6667d069-e4fc-4fbe-8ae5-d78668386b72"/>
      <resource>
         <ServiceRequest>
            <id value="6667d069-e4fc-4fbe-8ae5-d78668386b72"/>
            <meta>
               <profile value="http://hl7.eu/fhir/laboratory/StructureDefinition/ServiceRequest-eu-lab"/>
            </meta>
            <identifier>
               <system value="http://example.org"/>
               <value value="abc02b66-9c3c-4aca-8e4a-0f7d6735fa99"/>
            </identifier>
            <status value="active"/>
            <intent value="order"/>
            <code>
               <coding>
                  <system value="http://snomed.info/sct"/>
                  <code value="108252007"/>
                  <display value="Laboratory procedure"/>
               </coding>
            </code>
            <subject>
               <reference value="urn:uuid:1ac8aef2-2a01-4c5a-9048-7f68490fa711"/>
               <display value="Urbano Cantón"/>
            </subject>
            <requester>
               <reference value="urn:uuid:6aa76f91-ea71-4e7f-b9c8-cf991f0baf98"/>
            </requester>
            <reasonCode>
               <coding>
                  <system value="http://snomed.info/sct"/>
                  <code value="55822004"/>
                  <display value="Hyperlipidemia"/>
               </coding>
            </reasonCode>
            <reasonCode>
               <coding>
                  <system value="http://snomed.info/sct"/>
                  <code value="401314000"/>
                  <display value="Acute non-ST segment elevation myocardial infarction"/>
               </coding>
            </reasonCode>
            <reasonCode>
               <coding>
                  <system value="http://snomed.info/sct"/>
                  <code value="6525002"/>
                  <display value="Dependent drug abuse"/>
               </coding>
            </reasonCode>
            <reasonCode>
               <coding>
                  <system value="http://snomed.info/sct"/>
                  <code value="124171000119105"/>
                  <display value="Chronic intractable migraine without aura"/>
               </coding>
            </reasonCode>
            <reasonCode>
               <coding>
                  <system value="http://snomed.info/sct"/>
                  <code value="414545008"/>
                  <display value="Ischemic heart disease"/>
               </coding>
            </reasonCode>
            <reasonCode>
               <coding>
                  <system value="http://snomed.info/sct"/>
                  <code value="368581000119106"/>
                  <display value="Neuropathy due to type 2 diabetes mellitus"/>
               </coding>
            </reasonCode>
            <reasonCode>
               <coding>
                  <system value="http://snomed.info/sct"/>
                  <code value="80394007"/>
                  <display value="Hyperglycemia"/>
               </coding>
            </reasonCode>
            <reasonCode>
               <coding>
                  <system value="http://snomed.info/sct"/>
                  <code value="237602007"/>
                  <display value="Metabolic syndrome X"/>
               </coding>
            </reasonCode>
            <reasonCode>
               <coding>
                  <system value="http://snomed.info/sct"/>
                  <code value="302870006"/>
                  <display value="Hypertriglyceridemia"/>
               </coding>
            </reasonCode>
            <reasonCode>
               <coding>
                  <system value="http://snomed.info/sct"/>
                  <code value="44054006"/>
                  <display value="Type 2 diabetes mellitus"/>
               </coding>
            </reasonCode>
            <reasonCode>
               <coding>
                  <system value="http://snomed.info/sct"/>
                  <code value="59621000"/>
                  <display value="Essential hypertension"/>
               </coding>
            </reasonCode>
            <reasonCode>
               <coding>
                  <system value="http://snomed.info/sct"/>
                  <code value="271737000"/>
                  <display value="Anemia"/>
               </coding>
            </reasonCode>
            <reasonCode>
               <coding>
                  <system value="http://snomed.info/sct"/>
                  <code value="40055000"/>
                  <display value="Chronic sinusitis"/>
               </coding>
            </reasonCode>
            <specimen>
               <reference value="urn:uuid:28964808-18d4-4fbc-afc6-889cfea313c5"/>
            </specimen>
         </ServiceRequest>
      </resource>
   </entry>
   <entry>
      <fullUrl value="urn:uuid:6aa76f91-ea71-4e7f-b9c8-cf991f0baf98"/>
      <resource>
         <PractitionerRole>
            <id value="6aa76f91-ea71-4e7f-b9c8-cf991f0baf98"/>
            <meta>
               <profile value="http://hl7.eu/fhir/base/StructureDefinition/practitionerRole-eu"/>
            </meta>
            <text>
               <status value="generated"/>
               <div xmlns="http://www.w3.org/1999/xhtml">Provider Role Id: 6aa76f91-ea71-4e7f-b9c8-cf991f0baf98</div>
            </text>
            <organization>
               <reference value="urn:uuid:4cc26a62-7296-4d00-a893-f4bc96f7c4f2"/>
            </organization>
         </PractitionerRole>
      </resource>
   </entry>
   <entry>
      <fullUrl value="urn:uuid:4cc26a62-7296-4d00-a893-f4bc96f7c4f2"/>
      <resource>
         <Organization>
            <id value="4cc26a62-7296-4d00-a893-f4bc96f7c4f2"/>
            <meta>
               <profile value="http://hl7.eu/fhir/base/StructureDefinition/organization-eu"/>
            </meta>
            <text>
               <status value="generated"/>
               <div xmlns="http://www.w3.org/1999/xhtml">Provider Organization: Centro de Salud Ruiz de Padrón</div>
            </text>
            <identifier>
               <system value="urn:oid:2.16.840.1.113883.2.51.999"/>
               <value value="bab37efd-c825-451e-8c86-7b0178d213ac"/>
               <assigner>
                  <display value="HL7 Europe"/>
               </assigner>
            </identifier>
            <name value="Centro de Salud Ruiz de Padrón"/>
            <address>
               <country value="Spain"/>
            </address>
         </Organization>
      </resource>
   </entry>
   <entry>
      <fullUrl value="urn:uuid:28964808-18d4-4fbc-afc6-889cfea313c5"/>
      <resource>
         <Specimen>
            <id value="28964808-18d4-4fbc-afc6-889cfea313c5"/>
            <meta>
               <profile value="http://hl7.eu/fhir/laboratory/StructureDefinition/Specimen-eu-lab"/>
            </meta>
            <text>
               <status value="generated"/>
               <div xmlns="http://www.w3.org/1999/xhtml">
                  <table class="hl7__eu__lab__report">
                     <tr>
                        <th>Specimen</th>
                        <th>Collection Date</th>
                     </tr>
                     <tr>
                        <td>Whole blood specimen (specimen)</td>
                        <td>
                           <span class="nb">14-Jun-2016</span>
                        </td>
                     </tr>
                  </table>
               </div>
            </text>
            <type>
               <coding>
                  <system value="http://snomed.info/sct"/>
                  <code value="258580003"/>
                  <display value="Whole blood specimen (specimen)"/>
               </coding>
            </type>
            <collection>
               <collectedDateTime value="2016-06-14"/>
            </collection>
         </Specimen>
      </resource>
   </entry>
   <entry>
      <fullUrl value="urn:uuid:6c71d05d-09af-46b3-b800-842453070db0"/>
      <resource>
         <Observation>
            <id value="6c71d05d-09af-46b3-b800-842453070db0"/>
            <meta>
               <profile value="http://hl7.eu/fhir/laboratory/StructureDefinition/Observation-resultslab-eu-lab"/>
            </meta>
            <text>
               <status value="generated"/>
               <div xmlns="http://www.w3.org/1999/xhtml">
                  <table class="hl7__eu__lab__report">
                     <tr>
                        <th>Test</th>
                        <th>14-Jun-2016</th>
                        <th>Reference Range</th>
                        <th>Unit</th>
                     </tr>
                     <tr>
                        <td>Hemoglobin A1c/Hemoglobin.total in Blood</td>
                        <td>5.4</td>
                        <td>4.5 - 6.4</td>
                        <td/>
                        <td>%</td>
                     </tr>
                  </table>
               </div>
            </text>
            <status value="final"/>
            <category>
               <coding>
                  <system value="http://terminology.hl7.org/CodeSystem/observation-category"/>
                  <code value="laboratory"/>
               </coding>
            </category>
            <code>
               <coding>
                  <system value="http://loinc.org"/>
                  <code value="4548-4"/>
                  <display value="Hemoglobin A1c/Hemoglobin.total in Blood"/>
               </coding>
               <text value="Hemoglobin A1c/Hemoglobin.total in Blood"/>
            </code>
            <subject>
               <reference value="urn:uuid:1ac8aef2-2a01-4c5a-9048-7f68490fa711"/>
               <display value="Urbano Cantón"/>
            </subject>
            <effectiveDateTime value="2016-06-14T17:07:13Z"/>
            <performer>
               <display value="The Central European Lab"/>
            </performer>
            <valueQuantity>
               <value value="5.4"/>
               <unit value="%"/>
               <system value="http://unitsofmeasure.org"/>
               <code value="%"/>
            </valueQuantity>
            <specimen>
               <reference value="urn:uuid:28964808-18d4-4fbc-afc6-889cfea313c5"/>
            </specimen>
            <referenceRange>
               <low>
                  <value value="4.5"/>
                  <system value="http://unitsofmeasure.org"/>
                  <code value="%"/>
               </low>
            </referenceRange>
            <referenceRange>
               <high>
                  <value value="6.4"/>
                  <system value="http://unitsofmeasure.org"/>
                  <code value="%"/>
               </high>
            </referenceRange>
         </Observation>
      </resource>
   </entry>
   <entry>
      <fullUrl value="urn:uuid:2e2383e4-68d5-4ea0-a21d-b51001fd30d8"/>
      <resource>
         <Device>
            <id value="2e2383e4-68d5-4ea0-a21d-b51001fd30d8"/>
            <text>
               <status value="generated"/>
               <div xmlns="http://www.w3.org/1999/xhtml">SYNDERAI Synthetic Generator v5.0</div>
            </text>
            <status value="active&#34;"/>
            <distinctIdentifier value="synderai-generator-50"/>
            <manufacturer value="SYNDERAI Project"/>
            <deviceName>
               <name value="SYNDERAI Synthetic Generator"/>
               <type value="manufacturer-name"/>
            </deviceName>
            <version>
               <value value="5.0"/>
            </version>
         </Device>
      </resource>
   </entry>
   <entry>
      <fullUrl value="urn:uuid:79eaa5d4-2342-45ec-bc1d-da6f849a680b"/>
      <resource>
         <Provenance>
            <id value="79eaa5d4-2342-45ec-bc1d-da6f849a680b"/>
            <text>
               <status value="generated"/>
               <div xmlns="http://www.w3.org/1999/xhtml">Provenance for SYNDERAI Synthetic Example Data Resource</div>
            </text>
            <target>
               <reference value="Patient/1ac8aef2-2a01-4c5a-9048-7f68490fa711"/>
            </target>
            <target>
               <reference value="Bundle/0decdeeb-4c98-43bf-abdf-bbd4544b4dba"/>
            </target>
            <target>
               <reference value="Composition/eb721b56-584c-4198-9021-5aef2e19b27d"/>
            </target>
            <target>
               <reference value="PractitionerRole/b225e6ef-6f36-47d5-b97f-6a998eec3ca8"/>
            </target>
            <target>
               <reference value="Practitioner/ae3e450b-d4bd-4b34-a808-fdba1ba72be6"/>
            </target>
            <target>
               <reference value="PractitionerRole/6aa76f91-ea71-4e7f-b9c8-cf991f0baf98"/>
            </target>
            <target>
               <reference value="Organization/4cc26a62-7296-4d00-a893-f4bc96f7c4f2"/>
            </target>
            <recorded value="2016-06-14T19:07:13Z"/>
            <policy value="https://synderai.net/synderai-synthetic-data-policy"/>
            <reason>
               <text value="Interoperability Testing and Training (non-clinical use)"/>
            </reason>
            <activity>
               <text value="Synthetic Example Data Generation"/>
            </activity>
            <agent>
               <type>
                  <text value="author"/>
               </type>
               <who>
                  <reference value="Device/2e2383e4-68d5-4ea0-a21d-b51001fd30d8"/>
               </who>
            </agent>
         </Provenance>
      </resource>
   </entry>
   <entry>
      <fullUrl value="urn:uuid:b225e6ef-6f36-47d5-b97f-6a998eec3ca8"/>
      <resource>
         <PractitionerRole>
            <id value="b225e6ef-6f36-47d5-b97f-6a998eec3ca8"/>
            <meta>
               <profile value="http://hl7.eu/fhir/base/StructureDefinition/practitionerRole-eu"/>
            </meta>
            <text>
               <status value="generated"/>
               <div xmlns="http://www.w3.org/1999/xhtml">Laboratory Role Id: b225e6ef-6f36-47d5-b97f-6a998eec3ca8</div>
            </text>
            <practitioner>
               <reference value="urn:uuid:ae3e450b-d4bd-4b34-a808-fdba1ba72be6"/>
            </practitioner>
         </PractitionerRole>
      </resource>
   </entry>
   <entry>
      <fullUrl value="urn:uuid:ae3e450b-d4bd-4b34-a808-fdba1ba72be6"/>
      <resource>
         <Practitioner>
            <id value="ae3e450b-d4bd-4b34-a808-fdba1ba72be6"/>
            <meta>
               <profile value="http://hl7.eu/fhir/base/StructureDefinition/practitioner-eu"/>
            </meta>
            <text>
               <status value="generated"/>
               <div xmlns="http://www.w3.org/1999/xhtml">Laboratory: Laboratoire Central Européenne, 1000 Brussels, Belgium</div>
            </text>
            <identifier>
               <system value="urn:oid:2.16.840.1.113883.2.51.999"/>
               <value value="93deb918-f8a3-4e3d-a1ef-65451fbe2853"/>
               <assigner>
                  <display value="HL7 Europe"/>
               </assigner>
            </identifier>
            <name>
               <family value="Ample"/>
               <given value="Ex"/>
               <prefix value="dr"/>
            </name>
            <address>
               <line value="Laboratoire Central Européenne"/>
               <line value="Boulevard du Jardin Botanique 32"/>
               <city value="Brussels"/>
               <postalCode value="1000"/>
               <country value="Belgium"/>
            </address>
         </Practitioner>
      </resource>
   </entry>
</Bundle>