{
  "resourceType": "Bundle",
  "id": "c0388472-ff01-4563-86fb-eeb3de0bea7a",
  "meta": {
    "profile": [
      "http://hl7.eu/fhir/laboratory/StructureDefinition/Bundle-eu-lab"
    ]
  },
  "identifier": {
    "assigner": {
      "display": "HL7 Europe"
    },
    "system": "urn:oid:2.16.840.1.113883.2.51.999",
    "value": "ec93ecc0-7689-44b7-a271-4909e737c27f"
  },
  "entry": [
    {
      "fullUrl": "urn:uuid:8adeeead-52dc-4a05-8165-dd1998b45fee",
      "resource": {
        "resourceType": "Composition",
        "id": "8adeeead-52dc-4a05-8165-dd1998b45fee",
        "meta": {
          "profile": [
            "http://hl7.eu/fhir/laboratory/StructureDefinition/Composition-eu-lab"
          ]
        },
        "identifier": {
          "assigner": {
            "display": "HL7 Europe"
          },
          "system": "urn:oid:2.16.840.1.113883.2.51.999",
          "value": "056fca3a-3de2-4ec9-a601-fb894980812f"
        },
        "author": [
          {
            "reference": "urn:uuid:923a7ca7-a4ff-4ea6-b2ba-6927ee9986f1"
          }
        ],
        "category": [
          {
            "coding": [
              {
                "code": "26436-6",
                "system": "http://loinc.org",
                "display": "Laboratory studies (set)"
              }
            ]
          }
        ],
        "type": {
          "coding": [
            {
              "code": "11502-2",
              "system": "http://loinc.org",
              "display": "Laboratory report"
            }
          ],
          "text": "Laboratory Report"
        },
        "section": [
          {
            "code": {
              "coding": [
                {
                  "code": "26436-6",
                  "system": "http://loinc.org",
                  "display": "Laboratory studies (set)"
                }
              ],
              "text": "Laboratory studies"
            },
            "section": [
              {
                "code": {
                  "coding": [
                    {
                      "code": "$18719-5",
                      "system": "http://loinc.org",
                      "display": "Chemistry studies (set)"
                    }
                  ],
                  "text": "Chemistry"
                },
                "entry": [
                  {
                    "reference": "urn:uuid:4ba1a798-9d52-4aed-b474-9ce8f3576484"
                  },
                  {
                    "reference": "urn:uuid:2246ba3e-aa4b-4617-a400-67e76628caee"
                  },
                  {
                    "reference": "urn:uuid:1a496832-543e-4d97-a487-c966afea0265"
                  },
                  {
                    "reference": "urn:uuid:632eef85-8a09-484a-8f99-38830c796a6e"
                  }
                ],
                "text": {
                  "status": "generated",
                  "div": "<div xmlns=\"http://www.w3.org/1999/xhtml\"><h3>Chemistry</h3><table class=\"hl7__eu__lab__report\"><thead><tr><th>Test</th><th>25-MAR-2019</th><th>Reference&#xA0;Range</th><th>Unit</th></tr></thead><tbody><tr><td>Cholesterol [Mass/volume] in Serum or Plasma</td><td>147.1</td><td>130 - 200</td><td>mg/dL</td></tr><tr><td>Triglyceride [Mass/volume] in Serum or Plasma</td><td>145.5</td><td>35 - 175</td><td>mg/dL</td></tr><tr><td>Cholesterol in LDL [Mass/volume] in Serum or Plasma by Direct assay</td><td>72.0</td><td>0 - 190</td><td>mg/dL</td></tr><tr><td>Cholesterol in HDL [Mass/volume] in Serum or Plasma</td><td><strong>46.0 L</strong></td><td>50 - 100</td><td>mg/dL</td></tr></tbody></table></div>"
                },
                "title": "Chemistry"
              }
            ],
            "title": "Laboratory Report"
          },
          {
            "text": {
              "status": "generated",
              "div": "<div xmlns=\"http://www.w3.org/1999/xhtml\"><h3>Annotation</h3><table class=\"hl7__eu__lab__report\"><tr><th>Conclusion and Recommendations based on this report and previous findings known to us</th></tr><tr><td>Lipid profile is within normal limits except for a mildly decreased HDL cholesterol. Low HDL is a cardiovascular risk factor; consider lifestyle modifications such as increased physical activity and dietary changes. No other lipid abnormalities detected. Clinical correlation and follow-up as appropriate.</td></tr></table></div>"
            },
            "code": {
              "coding": [
                {
                  "system": "http://loinc.org",
                  "code": "48767-8",
                  "display": "Annotation comment"
                }
              ]
            },
            "title": "Annotation comment"
          }
        ],
        "status": "final",
        "subject": {
          "reference": "urn:uuid:ff49a854-37ca-4520-91d5-414af7db5825",
          "display": "Eileen Taylor"
        },
        "date": "2019-03-25T06:47:02Z",
        "title": "Laboratory Report",
        "confidentiality": "N"
      }
    },
    {
      "fullUrl": "urn:uuid:fc11f81c-8337-4006-bb37-45d7e1d65cf4",
      "resource": {
        "resourceType": "DiagnosticReport",
        "id": "fc11f81c-8337-4006-bb37-45d7e1d65cf4",
        "meta": {
          "profile": [
            "http://hl7.eu/fhir/laboratory/StructureDefinition/DiagnosticReport-eu-lab"
          ]
        },
        "identifier": [
          {
            "assigner": {
              "display": "HL7 Europe"
            },
            "system": "urn:oid:2.16.840.1.113883.2.51.999",
            "value": "1c37dda8-fc1b-4a19-b702-6ac8ae1bdd78"
          }
        ],
        "extension": [
          {
            "url": "http://hl7.org/fhir/5.0/StructureDefinition/extension-DiagnosticReport.composition",
            "valueReference": {
              "reference": "urn:uuid:056fca3a-3de2-4ec9-a601-fb894980812f"
            }
          }
        ],
        "category": [
          {
            "coding": [
              {
                "code": "26436-6",
                "system": "http://loinc.org",
                "display": "Laboratory studies (set)"
              }
            ]
          }
        ],
        "specimen": [
          {
            "reference": "urn:uuid:53e6a0a9-93a8-4993-b868-1fe74dbf9572"
          }
        ],
        "result": [
          {
            "reference": "urn:uuid:4ba1a798-9d52-4aed-b474-9ce8f3576484"
          },
          {
            "reference": "urn:uuid:2246ba3e-aa4b-4617-a400-67e76628caee"
          },
          {
            "reference": "urn:uuid:1a496832-543e-4d97-a487-c966afea0265"
          },
          {
            "reference": "urn:uuid:632eef85-8a09-484a-8f99-38830c796a6e"
          }
        ],
        "status": "registered",
        "code": {
          "coding": [
            {
              "code": "11502-2",
              "system": "http://loinc.org",
              "display": "Laboratory report"
            }
          ]
        },
        "subject": {
          "reference": "urn:uuid:ff49a854-37ca-4520-91d5-414af7db5825",
          "display": "Eileen Taylor"
        }
      }
    },
    {
      "fullUrl": "urn:uuid:ff49a854-37ca-4520-91d5-414af7db5825",
      "resource": {
        "resourceType": "Patient",
        "id": "ff49a854-37ca-4520-91d5-414af7db5825",
        "meta": {
          "security": [
            {
              "system": "http://terminology.hl7.org/CodeSystem/v3-ActReason",
              "code": "HTEST"
            },
            {
              "system": "http://terminology.hl7.org/CodeSystem/v3-ActReason",
              "code": "TRAIN"
            }
          ],
          "tag": [
            {
              "system": "https://synderai.net/fhir/CodeSystem/tags",
              "code": "synthetic",
              "display": "SYNDERAI Synthetic data"
            }
          ],
          "profile": [
            "http://hl7.eu/fhir/base/StructureDefinition/patient-eu-core"
          ]
        },
        "identifier": [
          {
            "type": {
              "coding": [
                {
                  "code": "PT",
                  "system": "http://terminology.hl7.org/CodeSystem/v2-0203"
                }
              ]
            },
            "system": "http://ec.europa.eu/identifier/eci",
            "value": "6172-576075-7"
          },
          {
            "type": {
              "coding": [
                {
                  "code": "MR",
                  "system": "http://terminology.hl7.org/CodeSystem/v2-0203"
                }
              ]
            },
            "system": "http://local.setting.eu/identifier",
            "value": "f7f175da-cf0d-5686-8800-840d9ab7b47b"
          }
        ],
        "name": [
          {
            "family": "Taylor"
          },
          {
            "given": [
              "Eileen"
            ]
          },
          {
            "text": "Eileen Taylor"
          }
        ],
        "address": [
          {
            "line": [
              "39 Slater harbors"
            ],
            "use": "home",
            "type": "physical",
            "postalCode": "LE17",
            "city": "Smithtown",
            "country": "United Kingdom"
          }
        ],
        "telecom": [
          {
            "system": "phone",
            "value": "+44(0)1614960460"
          }
        ],
        "extension": [
          {
            "url": "http://hl7.org/fhir/StructureDefinition/patient-nationality",
            "valueCodeableConcept": {
              "coding": [
                {
                  "code": "GB",
                  "system": "http://hl7.org/fhir/ValueSet/country"
                }
              ]
            }
          }
        ],
        "text": {
          "status": "generated",
          "div": "<div xmlns=\"http://www.w3.org/1999/xhtml\"><table class=\"hl7__ips\"><tr><td>Eileen Taylor</td><td>female</td><td>11-Dec-1951</td></tr></table></div>"
        },
        "gender": "female",
        "birthDate": "1951-12-11"
      }
    },
    {
      "fullUrl": "urn:uuid:c2a7ecdd-daf2-41fd-b078-5328eceb9106",
      "resource": {
        "resourceType": "ServiceRequest",
        "id": "c2a7ecdd-daf2-41fd-b078-5328eceb9106",
        "meta": {
          "profile": [
            "http://hl7.eu/fhir/laboratory/StructureDefinition/ServiceRequest-eu-lab"
          ]
        },
        "identifier": [
          {
            "system": "http://example.org",
            "value": "c907de30-31b5-4812-a0de-a46f1c6b9a42"
          }
        ],
        "specimen": [
          {
            "reference": "urn:uuid:53e6a0a9-93a8-4993-b868-1fe74dbf9572"
          }
        ],
        "reasonCode": [
          {
            "coding": [
              {
                "code": "203082005",
                "system": "http://snomed.info/sct",
                "display": "Fibromyalgia"
              }
            ]
          },
          {
            "coding": [
              {
                "code": "239873007",
                "system": "http://snomed.info/sct",
                "display": "Osteoarthritis of knee"
              }
            ]
          },
          {
            "coding": [
              {
                "code": "55822004",
                "system": "http://snomed.info/sct",
                "display": "Hyperlipidemia"
              }
            ]
          },
          {
            "coding": [
              {
                "code": "254837009",
                "system": "http://snomed.info/sct",
                "display": "Malignant neoplasm of breast"
              }
            ]
          },
          {
            "coding": [
              {
                "code": "197927001",
                "system": "http://snomed.info/sct",
                "display": "Recurrent urinary tract infection"
              }
            ]
          }
        ],
        "status": "active",
        "intent": "order",
        "code": {
          "coding": [
            {
              "code": "108252007",
              "system": "http://snomed.info/sct",
              "display": "Laboratory procedure"
            }
          ]
        },
        "subject": {
          "reference": "urn:uuid:ff49a854-37ca-4520-91d5-414af7db5825",
          "display": "Eileen Taylor"
        },
        "requester": {
          "reference": "urn:uuid:cdb0a567-5e8f-492d-a6fe-920eb6fc6155"
        }
      }
    },
    {
      "fullUrl": "urn:uuid:cdb0a567-5e8f-492d-a6fe-920eb6fc6155",
      "resource": {
        "resourceType": "PractitionerRole",
        "id": "cdb0a567-5e8f-492d-a6fe-920eb6fc6155",
        "meta": {
          "profile": [
            "http://hl7.eu/fhir/base/StructureDefinition/practitionerRole-eu"
          ]
        },
        "text": {
          "status": "generated",
          "div": "<div xmlns=\"http://www.w3.org/1999/xhtml\">Provider Role Id: cdb0a567-5e8f-492d-a6fe-920eb6fc6155</div>"
        },
        "organization": {
          "reference": "urn:uuid:81adc48a-a7a8-4221-8176-feffbc2aeb4a"
        }
      }
    },
    {
      "fullUrl": "urn:uuid:81adc48a-a7a8-4221-8176-feffbc2aeb4a",
      "resource": {
        "resourceType": "Organization",
        "id": "81adc48a-a7a8-4221-8176-feffbc2aeb4a",
        "meta": {
          "profile": [
            "http://hl7.eu/fhir/base/StructureDefinition/organization-eu"
          ]
        },
        "identifier": [
          {
            "assigner": {
              "display": "HL7 Europe"
            },
            "system": "urn:oid:2.16.840.1.113883.2.51.999",
            "value": "e12e147d-4fa9-44a3-9b77-53d5e0bc5e35"
          }
        ],
        "address": [
          {
            "city": "Leicester",
            "postalCode": "LE2 7",
            "country": "United Kingdom"
          }
        ],
        "text": {
          "status": "generated",
          "div": "<div xmlns=\"http://www.w3.org/1999/xhtml\">Provider Organization: Leicester Royal Infirmary</div>"
        },
        "name": "Leicester Royal Infirmary"
      }
    },
    {
      "fullUrl": "urn:uuid:53e6a0a9-93a8-4993-b868-1fe74dbf9572",
      "resource": {
        "resourceType": "Specimen",
        "id": "53e6a0a9-93a8-4993-b868-1fe74dbf9572",
        "meta": {
          "profile": [
            "http://hl7.eu/fhir/laboratory/StructureDefinition/Specimen-eu-lab"
          ]
        },
        "collection": {
          "collectedDateTime": "2019-03-25"
        },
        "text": {
          "status": "generated",
          "div": "<div xmlns=\"http://www.w3.org/1999/xhtml\"><table class=\"hl7__eu__lab__report\"><tr><th>Specimen</th><th>Collection Date</th></tr><tr><td>Acellular blood (serum or plasma) specimen</td><td><span class=\"nb\">25-Mar-2019</span></td></tr></table></div>"
        },
        "type": {
          "coding": [
            {
              "code": "122592007",
              "system": "http://snomed.info/sct",
              "display": "Acellular blood (serum or plasma) specimen"
            }
          ]
        }
      }
    },
    {
      "fullUrl": "urn:uuid:4ba1a798-9d52-4aed-b474-9ce8f3576484",
      "resource": {
        "resourceType": "Observation",
        "id": "4ba1a798-9d52-4aed-b474-9ce8f3576484",
        "meta": {
          "profile": [
            "http://hl7.eu/fhir/laboratory/StructureDefinition/Observation-resultslab-eu-lab"
          ]
        },
        "performer": [
          {
            "display": "The Central European Lab"
          }
        ],
        "category": [
          {
            "coding": [
              {
                "system": "http://terminology.hl7.org/CodeSystem/observation-category",
                "code": "laboratory"
              }
            ]
          }
        ],
        "code": {
          "coding": [
            {
              "code": "2093-3",
              "system": "http://loinc.org",
              "display": "Cholesterol [Mass/volume] in Serum or Plasma"
            }
          ],
          "text": "Cholesterol [Mass/volume] in Serum or Plasma"
        },
        "valueQuantity": {
          "system": "http://unitsofmeasure.org",
          "value": 147.1,
          "unit": "mg/dL",
          "code": "mg/dL"
        },
        "referenceRange": [
          {
            "low": {
              "value": 130,
              "code": "mg/dL",
              "system": "http://unitsofmeasure.org"
            }
          },
          {
            "high": {
              "value": 200,
              "code": "mg/dL",
              "system": "http://unitsofmeasure.org"
            }
          }
        ],
        "text": {
          "status": "generated",
          "div": "<div xmlns=\"http://www.w3.org/1999/xhtml\"><table class=\"hl7__eu__lab__report\"><tr><th>Test</th><th>25-Mar-2019</th><th>Reference&#xA0;Range</th><th>Unit</th></tr><tr><td>Cholesterol [Mass/volume] in Serum or Plasma</td><td>147.1</td><td>130 - 200</td><td></td><td>mg/dL</td></tr></table></div>"
        },
        "status": "final",
        "subject": {
          "reference": "urn:uuid:ff49a854-37ca-4520-91d5-414af7db5825",
          "display": "Eileen Taylor"
        },
        "effectiveDateTime": "2019-03-25T05:47:02Z",
        "specimen": {
          "reference": "urn:uuid:53e6a0a9-93a8-4993-b868-1fe74dbf9572"
        }
      }
    },
    {
      "fullUrl": "urn:uuid:2246ba3e-aa4b-4617-a400-67e76628caee",
      "resource": {
        "resourceType": "Observation",
        "id": "2246ba3e-aa4b-4617-a400-67e76628caee",
        "meta": {
          "profile": [
            "http://hl7.eu/fhir/laboratory/StructureDefinition/Observation-resultslab-eu-lab"
          ]
        },
        "performer": [
          {
            "display": "The Central European Lab"
          }
        ],
        "category": [
          {
            "coding": [
              {
                "system": "http://terminology.hl7.org/CodeSystem/observation-category",
                "code": "laboratory"
              }
            ]
          }
        ],
        "code": {
          "coding": [
            {
              "code": "2571-8",
              "system": "http://loinc.org",
              "display": "Triglyceride [Mass/volume] in Serum or Plasma"
            }
          ],
          "text": "Triglyceride [Mass/volume] in Serum or Plasma"
        },
        "valueQuantity": {
          "system": "http://unitsofmeasure.org",
          "value": 145.5,
          "unit": "mg/dL",
          "code": "mg/dL"
        },
        "referenceRange": [
          {
            "low": {
              "value": 35,
              "code": "mg/dL",
              "system": "http://unitsofmeasure.org"
            }
          },
          {
            "high": {
              "value": 175,
              "code": "mg/dL",
              "system": "http://unitsofmeasure.org"
            }
          }
        ],
        "text": {
          "status": "generated",
          "div": "<div xmlns=\"http://www.w3.org/1999/xhtml\"><table class=\"hl7__eu__lab__report\"><tr><th>Test</th><th>25-Mar-2019</th><th>Reference&#xA0;Range</th><th>Unit</th></tr><tr><td>Triglyceride [Mass/volume] in Serum or Plasma</td><td>145.5</td><td>35 - 175</td><td></td><td>mg/dL</td></tr></table></div>"
        },
        "status": "final",
        "subject": {
          "reference": "urn:uuid:ff49a854-37ca-4520-91d5-414af7db5825",
          "display": "Eileen Taylor"
        },
        "effectiveDateTime": "2019-03-25T05:47:02Z",
        "specimen": {
          "reference": "urn:uuid:53e6a0a9-93a8-4993-b868-1fe74dbf9572"
        }
      }
    },
    {
      "fullUrl": "urn:uuid:1a496832-543e-4d97-a487-c966afea0265",
      "resource": {
        "resourceType": "Observation",
        "id": "1a496832-543e-4d97-a487-c966afea0265",
        "meta": {
          "profile": [
            "http://hl7.eu/fhir/laboratory/StructureDefinition/Observation-resultslab-eu-lab"
          ]
        },
        "performer": [
          {
            "display": "The Central European Lab"
          }
        ],
        "category": [
          {
            "coding": [
              {
                "system": "http://terminology.hl7.org/CodeSystem/observation-category",
                "code": "laboratory"
              }
            ]
          }
        ],
        "code": {
          "coding": [
            {
              "code": "18262-6",
              "system": "http://loinc.org",
              "display": "Cholesterol in LDL [Mass/volume] in Serum or Plasma by Direct assay"
            }
          ],
          "text": "Cholesterol in LDL [Mass/volume] in Serum or Plasma by Direct assay"
        },
        "valueQuantity": {
          "system": "http://unitsofmeasure.org",
          "value": 72,
          "unit": "mg/dL",
          "code": "mg/dL"
        },
        "referenceRange": [
          {
            "low": {
              "value": 0,
              "code": "mg/dL",
              "system": "http://unitsofmeasure.org"
            }
          },
          {
            "high": {
              "value": 190,
              "code": "mg/dL",
              "system": "http://unitsofmeasure.org"
            }
          }
        ],
        "text": {
          "status": "generated",
          "div": "<div xmlns=\"http://www.w3.org/1999/xhtml\"><table class=\"hl7__eu__lab__report\"><tr><th>Test</th><th>25-Mar-2019</th><th>Reference&#xA0;Range</th><th>Unit</th></tr><tr><td>Cholesterol in LDL [Mass/volume] in Serum or Plasma by Direct assay</td><td>72.0</td><td>0 - 190</td><td></td><td>mg/dL</td></tr></table></div>"
        },
        "status": "final",
        "subject": {
          "reference": "urn:uuid:ff49a854-37ca-4520-91d5-414af7db5825",
          "display": "Eileen Taylor"
        },
        "effectiveDateTime": "2019-03-25T05:47:02Z",
        "specimen": {
          "reference": "urn:uuid:53e6a0a9-93a8-4993-b868-1fe74dbf9572"
        }
      }
    },
    {
      "fullUrl": "urn:uuid:632eef85-8a09-484a-8f99-38830c796a6e",
      "resource": {
        "resourceType": "Observation",
        "id": "632eef85-8a09-484a-8f99-38830c796a6e",
        "meta": {
          "profile": [
            "http://hl7.eu/fhir/laboratory/StructureDefinition/Observation-resultslab-eu-lab"
          ]
        },
        "performer": [
          {
            "display": "The Central European Lab"
          }
        ],
        "category": [
          {
            "coding": [
              {
                "system": "http://terminology.hl7.org/CodeSystem/observation-category",
                "code": "laboratory"
              }
            ]
          }
        ],
        "code": {
          "coding": [
            {
              "code": "2085-9",
              "system": "http://loinc.org",
              "display": "Cholesterol in HDL [Mass/volume] in Serum or Plasma"
            }
          ],
          "text": "Cholesterol in HDL [Mass/volume] in Serum or Plasma"
        },
        "valueQuantity": {
          "system": "http://unitsofmeasure.org",
          "value": 46,
          "unit": "mg/dL",
          "code": "mg/dL"
        },
        "referenceRange": [
          {
            "low": {
              "value": 50,
              "code": "mg/dL",
              "system": "http://unitsofmeasure.org"
            }
          },
          {
            "high": {
              "value": 100,
              "code": "mg/dL",
              "system": "http://unitsofmeasure.org"
            }
          }
        ],
        "interpretation": [
          {
            "coding": [
              {
                "code": "L",
                "system": "http://terminology.hl7.org/CodeSystem/v3-ObservationInterpretation",
                "display": "Low"
              }
            ]
          }
        ],
        "text": {
          "status": "generated",
          "div": "<div xmlns=\"http://www.w3.org/1999/xhtml\"><table class=\"hl7__eu__lab__report\"><tr><th>Test</th><th>25-Mar-2019</th><th>Reference&#xA0;Range</th><th>Unit</th></tr><tr><td>Cholesterol in HDL [Mass/volume] in Serum or Plasma</td><td>46.0</td><td>50 - 100</td><td>L</td><td>mg/dL</td></tr></table></div>"
        },
        "status": "final",
        "subject": {
          "reference": "urn:uuid:ff49a854-37ca-4520-91d5-414af7db5825",
          "display": "Eileen Taylor"
        },
        "effectiveDateTime": "2019-03-25T05:47:02Z",
        "specimen": {
          "reference": "urn:uuid:53e6a0a9-93a8-4993-b868-1fe74dbf9572"
        }
      }
    },
    {
      "fullUrl": "urn:uuid:a23418b5-e7f5-4f75-aec2-fd76fa34a28a",
      "resource": {
        "resourceType": "Device",
        "id": "a23418b5-e7f5-4f75-aec2-fd76fa34a28a",
        "deviceName": [
          {
            "name": "SYNDERAI Synthetic Generator",
            "type": "manufacturer-name"
          }
        ],
        "version": [
          {
            "value": "5.0"
          }
        ],
        "text": {
          "status": "generated",
          "div": "<div xmlns=\"http://www.w3.org/1999/xhtml\">SYNDERAI Synthetic Generator v5.0</div>"
        },
        "status": "active\"",
        "distinctIdentifier": "synderai-generator-50",
        "manufacturer": "SYNDERAI Project"
      }
    },
    {
      "fullUrl": "urn:uuid:52178447-585e-48cb-b191-ca7cc33145c3",
      "resource": {
        "resourceType": "Provenance",
        "id": "52178447-585e-48cb-b191-ca7cc33145c3",
        "target": [
          {
            "reference": "Patient/ff49a854-37ca-4520-91d5-414af7db5825"
          },
          {
            "reference": "Bundle/c0388472-ff01-4563-86fb-eeb3de0bea7a"
          },
          {
            "reference": "Composition/8adeeead-52dc-4a05-8165-dd1998b45fee"
          },
          {
            "reference": "PractitionerRole/923a7ca7-a4ff-4ea6-b2ba-6927ee9986f1"
          },
          {
            "reference": "Practitioner/322dfc35-70d1-432a-bc47-b54930575d1a"
          },
          {
            "reference": "PractitionerRole/cdb0a567-5e8f-492d-a6fe-920eb6fc6155"
          },
          {
            "reference": "Organization/81adc48a-a7a8-4221-8176-feffbc2aeb4a"
          }
        ],
        "activity": {
          "text": "Synthetic Example Data Generation"
        },
        "policy": [
          "https://synderai.net/synderai-synthetic-data-policy"
        ],
        "agent": [
          {
            "type": {
              "text": "author"
            },
            "who": {
              "reference": "Device/a23418b5-e7f5-4f75-aec2-fd76fa34a28a"
            }
          }
        ],
        "reason": [
          {
            "text": "Interoperability Testing and Training (non-clinical use)"
          }
        ],
        "text": {
          "status": "generated",
          "div": "<div xmlns=\"http://www.w3.org/1999/xhtml\">Provenance for SYNDERAI Synthetic Example Data Resource</div>"
        },
        "recorded": "2019-03-25T06:47:02Z"
      }
    },
    {
      "fullUrl": "urn:uuid:923a7ca7-a4ff-4ea6-b2ba-6927ee9986f1",
      "resource": {
        "resourceType": "PractitionerRole",
        "id": "923a7ca7-a4ff-4ea6-b2ba-6927ee9986f1",
        "meta": {
          "profile": [
            "http://hl7.eu/fhir/base/StructureDefinition/practitionerRole-eu"
          ]
        },
        "text": {
          "status": "generated",
          "div": "<div xmlns=\"http://www.w3.org/1999/xhtml\">Laboratory Role Id: 923a7ca7-a4ff-4ea6-b2ba-6927ee9986f1</div>"
        },
        "practitioner": {
          "reference": "urn:uuid:322dfc35-70d1-432a-bc47-b54930575d1a"
        }
      }
    },
    {
      "fullUrl": "urn:uuid:322dfc35-70d1-432a-bc47-b54930575d1a",
      "resource": {
        "resourceType": "Practitioner",
        "id": "322dfc35-70d1-432a-bc47-b54930575d1a",
        "meta": {
          "profile": [
            "http://hl7.eu/fhir/base/StructureDefinition/practitioner-eu"
          ]
        },
        "identifier": [
          {
            "assigner": {
              "display": "HL7 Europe"
            },
            "system": "urn:oid:2.16.840.1.113883.2.51.999",
            "value": "e15fa669-75d5-4b91-b78d-82dfdfbdd8ea"
          }
        ],
        "name": [
          {
            "prefix": [
              "dr"
            ],
            "given": [
              "Ex"
            ],
            "family": "Ample"
          }
        ],
        "address": [
          {
            "line": [
              "Laboratoire Central Européenne",
              "Boulevard du Jardin Botanique 32"
            ],
            "postalCode": "1000",
            "city": "Brussels",
            "country": "Belgium"
          }
        ],
        "text": {
          "status": "generated",
          "div": "<div xmlns=\"http://www.w3.org/1999/xhtml\">Laboratory: Laboratoire Central Européenne, 1000 Brussels, Belgium</div>"
        }
      }
    }
  ],
  "type": "document",
  "timestamp": "2019-03-25T06:47:02Z"
}
