{
  "resourceType": "Bundle",
  "id": "fa8f6622-774c-45f6-93b1-cc94a7d9d501",
  "meta": {
    "profile": [
      "http://hl7.eu/fhir/laboratory/StructureDefinition/Bundle-eu-lab"
    ]
  },
  "identifier": {
    "assigner": {
      "display": "HL7 Europe"
    },
    "system": "urn:oid:2.16.840.1.113883.2.51.999",
    "value": "ce9bc00c-ff40-4b03-827a-3a3247ad4e12"
  },
  "entry": [
    {
      "fullUrl": "urn:uuid:b2cfafb0-c07b-4ceb-838f-43fb8e9d5cba",
      "resource": {
        "resourceType": "Composition",
        "id": "b2cfafb0-c07b-4ceb-838f-43fb8e9d5cba",
        "meta": {
          "profile": [
            "http://hl7.eu/fhir/laboratory/StructureDefinition/Composition-eu-lab"
          ]
        },
        "identifier": {
          "assigner": {
            "display": "HL7 Europe"
          },
          "system": "urn:oid:2.16.840.1.113883.2.51.999",
          "value": "756a83f2-3798-43ff-a22d-af1e05cf4ee6"
        },
        "author": [
          {
            "reference": "urn:uuid:659e3780-ba9c-4ac1-a420-c9e0c56a5768"
          }
        ],
        "category": [
          {
            "coding": [
              {
                "code": "26436-6",
                "system": "http://loinc.org",
                "display": "Laboratory studies (set)"
              }
            ]
          }
        ],
        "type": {
          "coding": [
            {
              "code": "11502-2",
              "system": "http://loinc.org",
              "display": "Laboratory report"
            }
          ],
          "text": "Laboratory Report"
        },
        "section": [
          {
            "code": {
              "coding": [
                {
                  "code": "26436-6",
                  "system": "http://loinc.org",
                  "display": "Laboratory studies (set)"
                }
              ],
              "text": "Laboratory studies"
            },
            "section": [
              {
                "code": {
                  "coding": [
                    {
                      "code": "$18719-5",
                      "system": "http://loinc.org",
                      "display": "Chemistry studies (set)"
                    }
                  ],
                  "text": "Chemistry"
                },
                "entry": [
                  {
                    "reference": "urn:uuid:0ea85a5a-048c-411f-ad75-8f26ff763bb5"
                  },
                  {
                    "reference": "urn:uuid:ca7c5f85-c87d-4f3e-81a1-b5e1d6d6c4ea"
                  },
                  {
                    "reference": "urn:uuid:c35fa7fb-a062-4ad3-8d39-5da4e5b6c6f5"
                  },
                  {
                    "reference": "urn:uuid:323c4524-0fd9-44f4-9c05-55e7ad1e33d4"
                  },
                  {
                    "reference": "urn:uuid:b94d302a-b37a-4ad8-b3b0-d88c92849e0d"
                  },
                  {
                    "reference": "urn:uuid:8516677d-cbb4-457b-b14a-7a6047e281f0"
                  },
                  {
                    "reference": "urn:uuid:b4e2d16f-1030-44a4-bf56-974e087c158c"
                  },
                  {
                    "reference": "urn:uuid:49fb80ea-6008-496c-a43a-ab34c9865641"
                  },
                  {
                    "reference": "urn:uuid:07b61f92-07fd-49b0-9200-4085334e8a12"
                  },
                  {
                    "reference": "urn:uuid:1f7d05ba-656f-47c8-9332-7616136f7236"
                  },
                  {
                    "reference": "urn:uuid:ee0cbf4e-988e-4e3d-9dad-697dc1df8483"
                  },
                  {
                    "reference": "urn:uuid:907e01c8-a95b-48df-b161-0b32bb1fa234"
                  },
                  {
                    "reference": "urn:uuid:0ec299a5-e0d9-47fd-baef-799224e7ea15"
                  },
                  {
                    "reference": "urn:uuid:ae456e25-2288-4115-af41-477eaeef6808"
                  },
                  {
                    "reference": "urn:uuid:fb3b469a-01b0-417a-9c00-714ddd5da5ba"
                  },
                  {
                    "reference": "urn:uuid:2eb94c62-e3f4-492f-8460-3a2d32eec526"
                  },
                  {
                    "reference": "urn:uuid:9bd436dd-69d7-46ca-b56b-b5b9136059ee"
                  },
                  {
                    "reference": "urn:uuid:db20d7f3-9d74-42ca-8a8a-cb246a179404"
                  }
                ],
                "text": {
                  "status": "generated",
                  "div": "<div xmlns=\"http://www.w3.org/1999/xhtml\"><h3>Chemistry</h3><table class=\"hl7__eu__lab__report\"><thead><tr><th>Test</th><th>04-JAN-2017</th><th>Reference&#xA0;Range</th><th>Unit</th></tr></thead><tbody><tr><td>Glucose [Mass/volume] in Serum or Plasma</td><td>83.1</td><td>70 - 140</td><td>mg/dL</td></tr><tr><td>Urea nitrogen [Mass/volume] in Serum or Plasma</td><td>9.1</td><td>7 - 20</td><td>mg/dL</td></tr><tr><td>Creatinine [Mass/volume] in Serum or Plasma</td><td><strong>1.9 H</strong></td><td>0.9 - 1.3</td><td>mg/dL</td></tr><tr><td>Calcium [Mass/volume] in Serum or Plasma</td><td>8.9</td><td>8.5 - 10.5</td><td>mg/dL</td></tr><tr><td>Sodium [Moles/volume] in Serum or Plasma</td><td>138.8</td><td>135 - 145</td><td>mmol/L</td></tr><tr><td>Potassium [Moles/volume] in Serum or Plasma</td><td>4.5</td><td>3.5 - 5</td><td>mmol/L</td></tr><tr><td>Chloride [Moles/volume] in Serum or Plasma</td><td><strong>109.2 H</strong></td><td>98 - 108</td><td>mmol/L</td></tr><tr><td>Carbon dioxide, total [Moles/volume] in Serum or Plasma</td><td>26.3</td><td>22 - 29</td><td>mmol/L</td></tr><tr><td>Ketones [Presence] in Urine by Test strip</td><td>Urine ketone test = ++</td><td></td><td></td></tr><tr><td>Hemoglobin A1c/Hemoglobin.total in Blood</td><td><strong>2.9 L</strong></td><td>4.3 - 6.4</td><td>%</td></tr><tr><td>Glucose [Mass/volume] in Blood</td><td>83.1</td><td>70 - 140</td><td>mg/dL</td></tr><tr><td>Urea nitrogen [Mass/volume] in Blood</td><td>9.1</td><td>7 - 20</td><td>mg/dL</td></tr><tr><td>Creatinine [Mass/volume] in Blood</td><td><strong>7.2 H</strong></td><td>0.6 - 1.3</td><td>mg/dL</td></tr><tr><td>Calcium [Mass/volume] in Blood</td><td>8.9</td><td>8.5 - 10.5</td><td>mg/dL</td></tr><tr><td>Sodium [Moles/volume] in Blood</td><td>138.8</td><td>135 - 145</td><td>mmol/L</td></tr><tr><td>Potassium [Moles/volume] in Blood</td><td>4.5</td><td>3.5 - 5.3</td><td>mmol/L</td></tr><tr><td>Chloride [Moles/volume] in Blood</td><td>109.2</td><td>98 - 110</td><td>mmol/L</td></tr><tr><td>Carbon dioxide, total [Moles/volume] in Blood</td><td>26.3</td><td>22 - 29</td><td>mmol/L</td></tr></tbody></table></div>"
                },
                "title": "Chemistry"
              },
              {
                "code": {
                  "coding": [
                    {
                      "code": "$18729-4",
                      "system": "http://loinc.org",
                      "display": "Urinalysis studies (set)"
                    }
                  ],
                  "text": "Urinalysis"
                },
                "entry": [
                  {
                    "reference": "urn:uuid:2984c646-1f64-426d-ba1c-84206cdc8565"
                  },
                  {
                    "reference": "urn:uuid:d4d4b2a1-7c85-46db-b04c-ab005037c5de"
                  },
                  {
                    "reference": "urn:uuid:8355069b-3244-4eb1-b795-18862b11d550"
                  },
                  {
                    "reference": "urn:uuid:7bc6c2e0-7f31-455b-9a05-8099c2ce43e2"
                  },
                  {
                    "reference": "urn:uuid:19240aa0-63df-44e3-8fab-b5e9c7f23cec"
                  },
                  {
                    "reference": "urn:uuid:10ac5342-2e4b-4d14-8059-968102f5c515"
                  },
                  {
                    "reference": "urn:uuid:7889c616-f5b0-4de6-bfad-3b7edc64e37e"
                  },
                  {
                    "reference": "urn:uuid:eeb5572f-2fe1-4612-a241-57fbf288f739"
                  },
                  {
                    "reference": "urn:uuid:337939da-5b39-47d2-912c-a450ca3437b7"
                  },
                  {
                    "reference": "urn:uuid:0dedb2a1-f6fe-4606-83d4-aaa826963be4"
                  },
                  {
                    "reference": "urn:uuid:6c74e16e-1d37-4225-b59b-54586ce7f707"
                  },
                  {
                    "reference": "urn:uuid:64f1569d-713c-4309-9ad0-d8c2d93e0a8e"
                  }
                ],
                "text": {
                  "status": "generated",
                  "div": "<div xmlns=\"http://www.w3.org/1999/xhtml\"><h3>Urinalysis</h3><table class=\"hl7__eu__lab__report\"><thead><tr><th>Test</th><th>04-JAN-2017</th><th>Reference&#xA0;Range</th><th>Unit</th></tr></thead><tbody><tr><td>Glucose [Mass/volume] in Urine by Test strip</td><td><strong>1.7 H</strong></td><td>0 - 0.8</td><td>mg/dL</td></tr><tr><td>Glucose [Presence] in Urine by Test strip</td><td>++</td><td></td><td></td></tr><tr><td>Bilirubin.total [Mass/volume] in Urine by Test strip</td><td>0.4</td><td>0.2 - 1</td><td>mg/dL</td></tr><tr><td>Bilirubin.total [Presence] in Urine by Test strip</td><td>Finding of bilirubin in urine</td><td></td><td></td></tr><tr><td>Ketones [Mass/volume] in Urine by Test strip</td><td>3.9</td><td>0 - 5</td><td>mg/dL</td></tr><tr><td>Specific gravity of Urine by Test strip</td><td><strong>1.0 L</strong></td><td>1.005 - 1.03</td><td>{nominal}</td></tr><tr><td>pH of Urine by Test strip</td><td>5.5</td><td>4.6 - 7</td><td>pH</td></tr><tr><td>Protein [Mass/volume] in Urine by Test strip</td><td><strong>312.3 H</strong></td><td>0 - 150</td><td>mg/dL</td></tr><tr><td>Protein [Presence] in Urine by Test strip</td><td>Urine protein test = ++</td><td></td><td></td></tr><tr><td>Nitrite [Presence] in Urine by Test strip</td><td>Urine nitrite negative</td><td></td><td></td></tr><tr><td>Hemoglobin [Presence] in Urine by Test strip</td><td>Urine blood test = negative</td><td></td><td></td></tr><tr><td>Leukocyte esterase [Presence] in Urine by Test strip</td><td>Urine leukocyte test negative</td><td></td><td></td></tr></tbody></table></div>"
                },
                "title": "Urinalysis"
              },
              {
                "code": {
                  "coding": [
                    {
                      "code": "$LP7846-1",
                      "system": "http://loinc.org",
                      "display": "Specimen information"
                    }
                  ],
                  "text": "Specimen information"
                },
                "entry": [
                  {
                    "reference": "urn:uuid:9b87039c-a16b-47c7-b2b1-c74bcecde915"
                  },
                  {
                    "reference": "urn:uuid:d4c165ac-8fd9-4b66-9d2d-e7c0e272fcbf"
                  },
                  {
                    "reference": "urn:uuid:807bda73-3f24-4d80-9cef-a2b0b9ba43fa"
                  },
                  {
                    "reference": "urn:uuid:90a9e966-179a-44a6-a0c6-abbc3da444d1"
                  }
                ],
                "text": {
                  "status": "generated",
                  "div": "<div xmlns=\"http://www.w3.org/1999/xhtml\"><h3>Specimen information</h3><table class=\"hl7__eu__lab__report\"><thead><tr><th>Test</th><th>04-JAN-2017</th><th>Specimen</th><th></th></tr></thead><tbody><tr><td>Appearance of Urine</td><td>Cloudy urine</td><td>Urine</td><td></td></tr><tr><td>Odor of Urine</td><td>Urine smell ammoniacal</td><td>Urine</td><td></td></tr><tr><td>Clarity of Urine</td><td>Translucent</td><td>Urine</td><td></td></tr><tr><td>Color of Urine</td><td>Brown color</td><td>Urine</td><td></td></tr></tbody></table></div>"
                },
                "title": "Specimen information"
              }
            ],
            "title": "Laboratory Report"
          },
          {
            "text": {
              "status": "generated",
              "div": "<div xmlns=\"http://www.w3.org/1999/xhtml\"><h3>Annotation</h3><table class=\"hl7__eu__lab__report\"><tr><th>Conclusion and Recommendations based on this report and previous findings known to us</th></tr><tr><td>The patient shows markedly elevated creatinine in both serum and blood, indicating significant renal impairment. Urinalysis reveals proteinuria, glucosuria, ketonuria, low specific gravity, and abnormal urine appearance, suggesting possible nephrotic syndrome or diabetic nephropathy, though HbA1c is unexpectedly low. No evidence of urinary tract infection. Immediate nephrology evaluation is recommended for further assessment and management of acute or chronic kidney disease.</td></tr></table></div>"
            },
            "code": {
              "coding": [
                {
                  "system": "http://loinc.org",
                  "code": "48767-8",
                  "display": "Annotation comment"
                }
              ]
            },
            "title": "Annotation comment"
          }
        ],
        "status": "final",
        "subject": {
          "reference": "urn:uuid:2cb67a8c-3fa6-4f5b-a15f-a54704dc7cfa",
          "display": "Θεμιστοκλής Λιναρδάκη"
        },
        "date": "2017-01-04T07:16:00Z",
        "title": "Laboratory Report",
        "confidentiality": "N"
      }
    },
    {
      "fullUrl": "urn:uuid:c014b367-1386-4006-bd22-7247731667ed",
      "resource": {
        "resourceType": "DiagnosticReport",
        "id": "c014b367-1386-4006-bd22-7247731667ed",
        "meta": {
          "profile": [
            "http://hl7.eu/fhir/laboratory/StructureDefinition/DiagnosticReport-eu-lab"
          ]
        },
        "identifier": [
          {
            "assigner": {
              "display": "HL7 Europe"
            },
            "system": "urn:oid:2.16.840.1.113883.2.51.999",
            "value": "0fea0c67-3d9a-4698-a5af-3fc567ad1727"
          }
        ],
        "extension": [
          {
            "url": "http://hl7.org/fhir/5.0/StructureDefinition/extension-DiagnosticReport.composition",
            "valueReference": {
              "reference": "urn:uuid:756a83f2-3798-43ff-a22d-af1e05cf4ee6"
            }
          }
        ],
        "category": [
          {
            "coding": [
              {
                "code": "26436-6",
                "system": "http://loinc.org",
                "display": "Laboratory studies (set)"
              }
            ]
          }
        ],
        "specimen": [
          {
            "reference": "urn:uuid:35959fbc-c9e3-4156-85cf-7d770f0d679e"
          },
          {
            "reference": "urn:uuid:05433377-cf87-4536-83af-fc4decb5c7ed"
          },
          {
            "reference": "urn:uuid:b6150a72-4439-4e88-b0f7-adca672c2adf"
          }
        ],
        "result": [
          {
            "reference": "urn:uuid:0ea85a5a-048c-411f-ad75-8f26ff763bb5"
          },
          {
            "reference": "urn:uuid:ca7c5f85-c87d-4f3e-81a1-b5e1d6d6c4ea"
          },
          {
            "reference": "urn:uuid:c35fa7fb-a062-4ad3-8d39-5da4e5b6c6f5"
          },
          {
            "reference": "urn:uuid:323c4524-0fd9-44f4-9c05-55e7ad1e33d4"
          },
          {
            "reference": "urn:uuid:b94d302a-b37a-4ad8-b3b0-d88c92849e0d"
          },
          {
            "reference": "urn:uuid:8516677d-cbb4-457b-b14a-7a6047e281f0"
          },
          {
            "reference": "urn:uuid:b4e2d16f-1030-44a4-bf56-974e087c158c"
          },
          {
            "reference": "urn:uuid:49fb80ea-6008-496c-a43a-ab34c9865641"
          },
          {
            "reference": "urn:uuid:9b87039c-a16b-47c7-b2b1-c74bcecde915"
          },
          {
            "reference": "urn:uuid:d4c165ac-8fd9-4b66-9d2d-e7c0e272fcbf"
          },
          {
            "reference": "urn:uuid:807bda73-3f24-4d80-9cef-a2b0b9ba43fa"
          },
          {
            "reference": "urn:uuid:90a9e966-179a-44a6-a0c6-abbc3da444d1"
          },
          {
            "reference": "urn:uuid:2984c646-1f64-426d-ba1c-84206cdc8565"
          },
          {
            "reference": "urn:uuid:d4d4b2a1-7c85-46db-b04c-ab005037c5de"
          },
          {
            "reference": "urn:uuid:8355069b-3244-4eb1-b795-18862b11d550"
          },
          {
            "reference": "urn:uuid:7bc6c2e0-7f31-455b-9a05-8099c2ce43e2"
          },
          {
            "reference": "urn:uuid:19240aa0-63df-44e3-8fab-b5e9c7f23cec"
          },
          {
            "reference": "urn:uuid:07b61f92-07fd-49b0-9200-4085334e8a12"
          },
          {
            "reference": "urn:uuid:10ac5342-2e4b-4d14-8059-968102f5c515"
          },
          {
            "reference": "urn:uuid:7889c616-f5b0-4de6-bfad-3b7edc64e37e"
          },
          {
            "reference": "urn:uuid:eeb5572f-2fe1-4612-a241-57fbf288f739"
          },
          {
            "reference": "urn:uuid:337939da-5b39-47d2-912c-a450ca3437b7"
          },
          {
            "reference": "urn:uuid:0dedb2a1-f6fe-4606-83d4-aaa826963be4"
          },
          {
            "reference": "urn:uuid:6c74e16e-1d37-4225-b59b-54586ce7f707"
          },
          {
            "reference": "urn:uuid:64f1569d-713c-4309-9ad0-d8c2d93e0a8e"
          },
          {
            "reference": "urn:uuid:1f7d05ba-656f-47c8-9332-7616136f7236"
          },
          {
            "reference": "urn:uuid:ee0cbf4e-988e-4e3d-9dad-697dc1df8483"
          },
          {
            "reference": "urn:uuid:907e01c8-a95b-48df-b161-0b32bb1fa234"
          },
          {
            "reference": "urn:uuid:0ec299a5-e0d9-47fd-baef-799224e7ea15"
          },
          {
            "reference": "urn:uuid:ae456e25-2288-4115-af41-477eaeef6808"
          },
          {
            "reference": "urn:uuid:fb3b469a-01b0-417a-9c00-714ddd5da5ba"
          },
          {
            "reference": "urn:uuid:2eb94c62-e3f4-492f-8460-3a2d32eec526"
          },
          {
            "reference": "urn:uuid:9bd436dd-69d7-46ca-b56b-b5b9136059ee"
          },
          {
            "reference": "urn:uuid:db20d7f3-9d74-42ca-8a8a-cb246a179404"
          }
        ],
        "status": "registered",
        "code": {
          "coding": [
            {
              "code": "11502-2",
              "system": "http://loinc.org",
              "display": "Laboratory report"
            }
          ]
        },
        "subject": {
          "reference": "urn:uuid:2cb67a8c-3fa6-4f5b-a15f-a54704dc7cfa",
          "display": "Θεμιστοκλής Λιναρδάκη"
        }
      }
    },
    {
      "fullUrl": "urn:uuid:2cb67a8c-3fa6-4f5b-a15f-a54704dc7cfa",
      "resource": {
        "resourceType": "Patient",
        "id": "2cb67a8c-3fa6-4f5b-a15f-a54704dc7cfa",
        "meta": {
          "security": [
            {
              "system": "http://terminology.hl7.org/CodeSystem/v3-ActReason",
              "code": "HTEST"
            },
            {
              "system": "http://terminology.hl7.org/CodeSystem/v3-ActReason",
              "code": "TRAIN"
            }
          ],
          "tag": [
            {
              "system": "https://synderai.net/fhir/CodeSystem/tags",
              "code": "synthetic",
              "display": "SYNDERAI Synthetic data"
            }
          ],
          "profile": [
            "http://hl7.eu/fhir/base/StructureDefinition/patient-eu-core"
          ]
        },
        "identifier": [
          {
            "type": {
              "coding": [
                {
                  "code": "PT",
                  "system": "http://terminology.hl7.org/CodeSystem/v2-0203"
                }
              ]
            },
            "system": "http://ec.europa.eu/identifier/eci",
            "value": "5962-476889-7"
          },
          {
            "type": {
              "coding": [
                {
                  "code": "MR",
                  "system": "http://terminology.hl7.org/CodeSystem/v2-0203"
                }
              ]
            },
            "system": "http://local.setting.eu/identifier",
            "value": "925e2603-2ef9-6bdf-1330-2ebf526636c4"
          }
        ],
        "name": [
          {
            "family": "Λιναρδάκη"
          },
          {
            "given": [
              "Θεμιστοκλής"
            ]
          },
          {
            "text": "Θεμιστοκλής Λιναρδάκη"
          }
        ],
        "address": [
          {
            "line": [
              "Αμαρύνθου 54-58"
            ],
            "use": "home",
            "type": "physical",
            "postalCode": "262 21",
            "city": "Πάτρα",
            "country": "Greece"
          }
        ],
        "telecom": [
          {
            "system": "phone",
            "value": "+302226364480"
          }
        ],
        "extension": [
          {
            "url": "http://hl7.org/fhir/StructureDefinition/patient-nationality",
            "valueCodeableConcept": {
              "coding": [
                {
                  "code": "GR",
                  "system": "http://hl7.org/fhir/ValueSet/country"
                }
              ]
            }
          }
        ],
        "text": {
          "status": "generated",
          "div": "<div xmlns=\"http://www.w3.org/1999/xhtml\"><table class=\"hl7__ips\"><tr><td>Θεμιστοκλής Λιναρδάκη</td><td>male</td><td>21-Jan-1974</td></tr></table></div>"
        },
        "gender": "male",
        "birthDate": "1974-01-21"
      }
    },
    {
      "fullUrl": "urn:uuid:5e0f096b-1b9a-4466-83b8-b6e14eb922f3",
      "resource": {
        "resourceType": "ServiceRequest",
        "id": "5e0f096b-1b9a-4466-83b8-b6e14eb922f3",
        "meta": {
          "profile": [
            "http://hl7.eu/fhir/laboratory/StructureDefinition/ServiceRequest-eu-lab"
          ]
        },
        "identifier": [
          {
            "system": "http://example.org",
            "value": "918f439b-8ebd-4c79-a742-9eba06d1039f"
          }
        ],
        "specimen": [
          {
            "reference": "urn:uuid:35959fbc-c9e3-4156-85cf-7d770f0d679e"
          },
          {
            "reference": "urn:uuid:05433377-cf87-4536-83af-fc4decb5c7ed"
          },
          {
            "reference": "urn:uuid:b6150a72-4439-4e88-b0f7-adca672c2adf"
          }
        ],
        "reasonCode": [
          {
            "coding": [
              {
                "code": "237602007",
                "system": "http://snomed.info/sct",
                "display": "Metabolic syndrome X"
              }
            ]
          },
          {
            "coding": [
              {
                "code": "433144002",
                "system": "http://snomed.info/sct",
                "display": "Chronic kidney disease stage 3"
              }
            ]
          },
          {
            "coding": [
              {
                "code": "157141000119108",
                "system": "http://snomed.info/sct",
                "display": "Proteinuria due to type 2 diabetes mellitus"
              }
            ]
          },
          {
            "coding": [
              {
                "code": "431856006",
                "system": "http://snomed.info/sct",
                "display": "Chronic kidney disease stage 2"
              }
            ]
          },
          {
            "coding": [
              {
                "code": "90781000119102",
                "system": "http://snomed.info/sct",
                "display": "Microalbuminuria due to type 2 diabetes mellitus"
              }
            ]
          },
          {
            "coding": [
              {
                "code": "127013003",
                "system": "http://snomed.info/sct",
                "display": "Disorder of kidney due to diabetes mellitus"
              }
            ]
          },
          {
            "coding": [
              {
                "code": "431855005",
                "system": "http://snomed.info/sct",
                "display": "Chronic kidney disease stage 1"
              }
            ]
          },
          {
            "coding": [
              {
                "code": "59621000",
                "system": "http://snomed.info/sct",
                "display": "Essential hypertension"
              }
            ]
          },
          {
            "coding": [
              {
                "code": "15777000",
                "system": "http://snomed.info/sct",
                "display": "Prediabetes"
              }
            ]
          },
          {
            "coding": [
              {
                "code": "271737000",
                "system": "http://snomed.info/sct",
                "display": "Anemia"
              }
            ]
          }
        ],
        "status": "active",
        "intent": "order",
        "code": {
          "coding": [
            {
              "code": "108252007",
              "system": "http://snomed.info/sct",
              "display": "Laboratory procedure"
            }
          ]
        },
        "subject": {
          "reference": "urn:uuid:2cb67a8c-3fa6-4f5b-a15f-a54704dc7cfa",
          "display": "Θεμιστοκλής Λιναρδάκη"
        },
        "requester": {
          "reference": "urn:uuid:bed7cc3e-1039-4e8f-bfed-cc2974ac7e10"
        }
      }
    },
    {
      "fullUrl": "urn:uuid:bed7cc3e-1039-4e8f-bfed-cc2974ac7e10",
      "resource": {
        "resourceType": "PractitionerRole",
        "id": "bed7cc3e-1039-4e8f-bfed-cc2974ac7e10",
        "meta": {
          "profile": [
            "http://hl7.eu/fhir/base/StructureDefinition/practitionerRole-eu"
          ]
        },
        "text": {
          "status": "generated",
          "div": "<div xmlns=\"http://www.w3.org/1999/xhtml\">Provider Role Id: bed7cc3e-1039-4e8f-bfed-cc2974ac7e10</div>"
        },
        "organization": {
          "reference": "urn:uuid:e6dc87d1-ff0c-4021-b373-3a4e1609accf"
        }
      }
    },
    {
      "fullUrl": "urn:uuid:e6dc87d1-ff0c-4021-b373-3a4e1609accf",
      "resource": {
        "resourceType": "Organization",
        "id": "e6dc87d1-ff0c-4021-b373-3a4e1609accf",
        "meta": {
          "profile": [
            "http://hl7.eu/fhir/base/StructureDefinition/organization-eu"
          ]
        },
        "identifier": [
          {
            "assigner": {
              "display": "HL7 Europe"
            },
            "system": "urn:oid:2.16.840.1.113883.2.51.999",
            "value": "587db2f9-7641-4a52-a957-75642190183a"
          }
        ],
        "address": [
          {
            "line": [
              "211 Odós Filellinon"
            ],
            "city": "Patras",
            "postalCode": "262 21",
            "country": "Greece"
          }
        ],
        "text": {
          "status": "generated",
          "div": "<div xmlns=\"http://www.w3.org/1999/xhtml\">Provider Organization: Dr. Dimitris Economou</div>"
        },
        "name": "Dr. Dimitris Economou"
      }
    },
    {
      "fullUrl": "urn:uuid:35959fbc-c9e3-4156-85cf-7d770f0d679e",
      "resource": {
        "resourceType": "Specimen",
        "id": "35959fbc-c9e3-4156-85cf-7d770f0d679e",
        "meta": {
          "profile": [
            "http://hl7.eu/fhir/laboratory/StructureDefinition/Specimen-eu-lab"
          ]
        },
        "collection": {
          "collectedDateTime": "2017-01-04"
        },
        "text": {
          "status": "generated",
          "div": "<div xmlns=\"http://www.w3.org/1999/xhtml\"><table class=\"hl7__eu__lab__report\"><tr><th>Specimen</th><th>Collection Date</th></tr><tr><td>Acellular blood (serum or plasma) specimen</td><td><span class=\"nb\">04-Jan-2017</span></td></tr></table></div>"
        },
        "type": {
          "coding": [
            {
              "code": "122592007",
              "system": "http://snomed.info/sct",
              "display": "Acellular blood (serum or plasma) specimen"
            }
          ]
        }
      }
    },
    {
      "fullUrl": "urn:uuid:05433377-cf87-4536-83af-fc4decb5c7ed",
      "resource": {
        "resourceType": "Specimen",
        "id": "05433377-cf87-4536-83af-fc4decb5c7ed",
        "meta": {
          "profile": [
            "http://hl7.eu/fhir/laboratory/StructureDefinition/Specimen-eu-lab"
          ]
        },
        "collection": {
          "collectedDateTime": "2017-01-04"
        },
        "text": {
          "status": "generated",
          "div": "<div xmlns=\"http://www.w3.org/1999/xhtml\"><table class=\"hl7__eu__lab__report\"><tr><th>Specimen</th><th>Collection Date</th></tr><tr><td>Urine specimen</td><td><span class=\"nb\">04-Jan-2017</span></td></tr></table></div>"
        },
        "type": {
          "coding": [
            {
              "code": "122575003",
              "system": "http://snomed.info/sct",
              "display": "Urine specimen"
            }
          ]
        }
      }
    },
    {
      "fullUrl": "urn:uuid:b6150a72-4439-4e88-b0f7-adca672c2adf",
      "resource": {
        "resourceType": "Specimen",
        "id": "b6150a72-4439-4e88-b0f7-adca672c2adf",
        "meta": {
          "profile": [
            "http://hl7.eu/fhir/laboratory/StructureDefinition/Specimen-eu-lab"
          ]
        },
        "collection": {
          "collectedDateTime": "2017-01-04"
        },
        "text": {
          "status": "generated",
          "div": "<div xmlns=\"http://www.w3.org/1999/xhtml\"><table class=\"hl7__eu__lab__report\"><tr><th>Specimen</th><th>Collection Date</th></tr><tr><td>Whole blood specimen (specimen)</td><td><span class=\"nb\">04-Jan-2017</span></td></tr></table></div>"
        },
        "type": {
          "coding": [
            {
              "code": "258580003",
              "system": "http://snomed.info/sct",
              "display": "Whole blood specimen (specimen)"
            }
          ]
        }
      }
    },
    {
      "fullUrl": "urn:uuid:0ea85a5a-048c-411f-ad75-8f26ff763bb5",
      "resource": {
        "resourceType": "Observation",
        "id": "0ea85a5a-048c-411f-ad75-8f26ff763bb5",
        "meta": {
          "profile": [
            "http://hl7.eu/fhir/laboratory/StructureDefinition/Observation-resultslab-eu-lab"
          ]
        },
        "performer": [
          {
            "display": "The Central European Lab"
          }
        ],
        "category": [
          {
            "coding": [
              {
                "system": "http://terminology.hl7.org/CodeSystem/observation-category",
                "code": "laboratory"
              }
            ]
          }
        ],
        "code": {
          "coding": [
            {
              "code": "2345-7",
              "system": "http://loinc.org",
              "display": "Glucose [Mass/volume] in Serum or Plasma"
            }
          ],
          "text": "Glucose [Mass/volume] in Serum or Plasma"
        },
        "valueQuantity": {
          "system": "http://unitsofmeasure.org",
          "value": 83.1,
          "unit": "mg/dL",
          "code": "mg/dL"
        },
        "referenceRange": [
          {
            "low": {
              "value": 70,
              "code": "mg/dL",
              "system": "http://unitsofmeasure.org"
            }
          },
          {
            "high": {
              "value": 140,
              "code": "mg/dL",
              "system": "http://unitsofmeasure.org"
            }
          }
        ],
        "text": {
          "status": "generated",
          "div": "<div xmlns=\"http://www.w3.org/1999/xhtml\"><table class=\"hl7__eu__lab__report\"><tr><th>Test</th><th>04-Jan-2017</th><th>Reference&#xA0;Range</th><th>Unit</th></tr><tr><td>Glucose [Mass/volume] in Serum or Plasma</td><td>83.1</td><td>70 - 140</td><td></td><td>mg/dL</td></tr></table></div>"
        },
        "status": "final",
        "subject": {
          "reference": "urn:uuid:2cb67a8c-3fa6-4f5b-a15f-a54704dc7cfa",
          "display": "Θεμιστοκλής Λιναρδάκη"
        },
        "effectiveDateTime": "2017-01-04T06:16:00Z",
        "specimen": {
          "reference": "urn:uuid:35959fbc-c9e3-4156-85cf-7d770f0d679e"
        }
      }
    },
    {
      "fullUrl": "urn:uuid:ca7c5f85-c87d-4f3e-81a1-b5e1d6d6c4ea",
      "resource": {
        "resourceType": "Observation",
        "id": "ca7c5f85-c87d-4f3e-81a1-b5e1d6d6c4ea",
        "meta": {
          "profile": [
            "http://hl7.eu/fhir/laboratory/StructureDefinition/Observation-resultslab-eu-lab"
          ]
        },
        "performer": [
          {
            "display": "The Central European Lab"
          }
        ],
        "category": [
          {
            "coding": [
              {
                "system": "http://terminology.hl7.org/CodeSystem/observation-category",
                "code": "laboratory"
              }
            ]
          }
        ],
        "code": {
          "coding": [
            {
              "code": "3094-0",
              "system": "http://loinc.org",
              "display": "Urea nitrogen [Mass/volume] in Serum or Plasma"
            }
          ],
          "text": "Urea nitrogen [Mass/volume] in Serum or Plasma"
        },
        "valueQuantity": {
          "system": "http://unitsofmeasure.org",
          "value": 9.1,
          "unit": "mg/dL",
          "code": "mg/dL"
        },
        "referenceRange": [
          {
            "low": {
              "value": 7,
              "code": "mg/dL",
              "system": "http://unitsofmeasure.org"
            }
          },
          {
            "high": {
              "value": 20,
              "code": "mg/dL",
              "system": "http://unitsofmeasure.org"
            }
          }
        ],
        "text": {
          "status": "generated",
          "div": "<div xmlns=\"http://www.w3.org/1999/xhtml\"><table class=\"hl7__eu__lab__report\"><tr><th>Test</th><th>04-Jan-2017</th><th>Reference&#xA0;Range</th><th>Unit</th></tr><tr><td>Urea nitrogen [Mass/volume] in Serum or Plasma</td><td>9.1</td><td>7 - 20</td><td></td><td>mg/dL</td></tr></table></div>"
        },
        "status": "final",
        "subject": {
          "reference": "urn:uuid:2cb67a8c-3fa6-4f5b-a15f-a54704dc7cfa",
          "display": "Θεμιστοκλής Λιναρδάκη"
        },
        "effectiveDateTime": "2017-01-04T06:16:00Z",
        "specimen": {
          "reference": "urn:uuid:35959fbc-c9e3-4156-85cf-7d770f0d679e"
        }
      }
    },
    {
      "fullUrl": "urn:uuid:c35fa7fb-a062-4ad3-8d39-5da4e5b6c6f5",
      "resource": {
        "resourceType": "Observation",
        "id": "c35fa7fb-a062-4ad3-8d39-5da4e5b6c6f5",
        "meta": {
          "profile": [
            "http://hl7.eu/fhir/laboratory/StructureDefinition/Observation-resultslab-eu-lab"
          ]
        },
        "performer": [
          {
            "display": "The Central European Lab"
          }
        ],
        "category": [
          {
            "coding": [
              {
                "system": "http://terminology.hl7.org/CodeSystem/observation-category",
                "code": "laboratory"
              }
            ]
          }
        ],
        "code": {
          "coding": [
            {
              "code": "2160-0",
              "system": "http://loinc.org",
              "display": "Creatinine [Mass/volume] in Serum or Plasma"
            }
          ],
          "text": "Creatinine [Mass/volume] in Serum or Plasma"
        },
        "valueQuantity": {
          "system": "http://unitsofmeasure.org",
          "value": 1.9,
          "unit": "mg/dL",
          "code": "mg/dL"
        },
        "referenceRange": [
          {
            "low": {
              "value": 0.9,
              "code": "mg/dL",
              "system": "http://unitsofmeasure.org"
            }
          },
          {
            "high": {
              "value": 1.3,
              "code": "mg/dL",
              "system": "http://unitsofmeasure.org"
            }
          }
        ],
        "interpretation": [
          {
            "coding": [
              {
                "code": "H",
                "system": "http://terminology.hl7.org/CodeSystem/v3-ObservationInterpretation",
                "display": "High"
              }
            ]
          }
        ],
        "text": {
          "status": "generated",
          "div": "<div xmlns=\"http://www.w3.org/1999/xhtml\"><table class=\"hl7__eu__lab__report\"><tr><th>Test</th><th>04-Jan-2017</th><th>Reference&#xA0;Range</th><th>Unit</th></tr><tr><td>Creatinine [Mass/volume] in Serum or Plasma</td><td>1.9</td><td>0.9 - 1.3</td><td>H</td><td>mg/dL</td></tr></table></div>"
        },
        "status": "final",
        "subject": {
          "reference": "urn:uuid:2cb67a8c-3fa6-4f5b-a15f-a54704dc7cfa",
          "display": "Θεμιστοκλής Λιναρδάκη"
        },
        "effectiveDateTime": "2017-01-04T06:16:00Z",
        "specimen": {
          "reference": "urn:uuid:35959fbc-c9e3-4156-85cf-7d770f0d679e"
        }
      }
    },
    {
      "fullUrl": "urn:uuid:323c4524-0fd9-44f4-9c05-55e7ad1e33d4",
      "resource": {
        "resourceType": "Observation",
        "id": "323c4524-0fd9-44f4-9c05-55e7ad1e33d4",
        "meta": {
          "profile": [
            "http://hl7.eu/fhir/laboratory/StructureDefinition/Observation-resultslab-eu-lab"
          ]
        },
        "performer": [
          {
            "display": "The Central European Lab"
          }
        ],
        "category": [
          {
            "coding": [
              {
                "system": "http://terminology.hl7.org/CodeSystem/observation-category",
                "code": "laboratory"
              }
            ]
          }
        ],
        "code": {
          "coding": [
            {
              "code": "17861-6",
              "system": "http://loinc.org",
              "display": "Calcium [Mass/volume] in Serum or Plasma"
            }
          ],
          "text": "Calcium [Mass/volume] in Serum or Plasma"
        },
        "valueQuantity": {
          "system": "http://unitsofmeasure.org",
          "value": 8.9,
          "unit": "mg/dL",
          "code": "mg/dL"
        },
        "referenceRange": [
          {
            "low": {
              "value": 8.5,
              "code": "mg/dL",
              "system": "http://unitsofmeasure.org"
            }
          },
          {
            "high": {
              "value": 10.5,
              "code": "mg/dL",
              "system": "http://unitsofmeasure.org"
            }
          }
        ],
        "text": {
          "status": "generated",
          "div": "<div xmlns=\"http://www.w3.org/1999/xhtml\"><table class=\"hl7__eu__lab__report\"><tr><th>Test</th><th>04-Jan-2017</th><th>Reference&#xA0;Range</th><th>Unit</th></tr><tr><td>Calcium [Mass/volume] in Serum or Plasma</td><td>8.9</td><td>8.5 - 10.5</td><td></td><td>mg/dL</td></tr></table></div>"
        },
        "status": "final",
        "subject": {
          "reference": "urn:uuid:2cb67a8c-3fa6-4f5b-a15f-a54704dc7cfa",
          "display": "Θεμιστοκλής Λιναρδάκη"
        },
        "effectiveDateTime": "2017-01-04T06:16:00Z",
        "specimen": {
          "reference": "urn:uuid:35959fbc-c9e3-4156-85cf-7d770f0d679e"
        }
      }
    },
    {
      "fullUrl": "urn:uuid:b94d302a-b37a-4ad8-b3b0-d88c92849e0d",
      "resource": {
        "resourceType": "Observation",
        "id": "b94d302a-b37a-4ad8-b3b0-d88c92849e0d",
        "meta": {
          "profile": [
            "http://hl7.eu/fhir/laboratory/StructureDefinition/Observation-resultslab-eu-lab"
          ]
        },
        "performer": [
          {
            "display": "The Central European Lab"
          }
        ],
        "category": [
          {
            "coding": [
              {
                "system": "http://terminology.hl7.org/CodeSystem/observation-category",
                "code": "laboratory"
              }
            ]
          }
        ],
        "code": {
          "coding": [
            {
              "code": "2951-2",
              "system": "http://loinc.org",
              "display": "Sodium [Moles/volume] in Serum or Plasma"
            }
          ],
          "text": "Sodium [Moles/volume] in Serum or Plasma"
        },
        "valueQuantity": {
          "system": "http://unitsofmeasure.org",
          "value": 138.8,
          "unit": "mmol/L",
          "code": "mmol/L"
        },
        "referenceRange": [
          {
            "low": {
              "value": 135,
              "code": "mmol/L",
              "system": "http://unitsofmeasure.org"
            }
          },
          {
            "high": {
              "value": 145,
              "code": "mmol/L",
              "system": "http://unitsofmeasure.org"
            }
          }
        ],
        "text": {
          "status": "generated",
          "div": "<div xmlns=\"http://www.w3.org/1999/xhtml\"><table class=\"hl7__eu__lab__report\"><tr><th>Test</th><th>04-Jan-2017</th><th>Reference&#xA0;Range</th><th>Unit</th></tr><tr><td>Sodium [Moles/volume] in Serum or Plasma</td><td>138.8</td><td>135 - 145</td><td></td><td>mmol/L</td></tr></table></div>"
        },
        "status": "final",
        "subject": {
          "reference": "urn:uuid:2cb67a8c-3fa6-4f5b-a15f-a54704dc7cfa",
          "display": "Θεμιστοκλής Λιναρδάκη"
        },
        "effectiveDateTime": "2017-01-04T06:16:00Z",
        "specimen": {
          "reference": "urn:uuid:35959fbc-c9e3-4156-85cf-7d770f0d679e"
        }
      }
    },
    {
      "fullUrl": "urn:uuid:8516677d-cbb4-457b-b14a-7a6047e281f0",
      "resource": {
        "resourceType": "Observation",
        "id": "8516677d-cbb4-457b-b14a-7a6047e281f0",
        "meta": {
          "profile": [
            "http://hl7.eu/fhir/laboratory/StructureDefinition/Observation-resultslab-eu-lab"
          ]
        },
        "performer": [
          {
            "display": "The Central European Lab"
          }
        ],
        "category": [
          {
            "coding": [
              {
                "system": "http://terminology.hl7.org/CodeSystem/observation-category",
                "code": "laboratory"
              }
            ]
          }
        ],
        "code": {
          "coding": [
            {
              "code": "2823-3",
              "system": "http://loinc.org",
              "display": "Potassium [Moles/volume] in Serum or Plasma"
            }
          ],
          "text": "Potassium [Moles/volume] in Serum or Plasma"
        },
        "valueQuantity": {
          "system": "http://unitsofmeasure.org",
          "value": 4.5,
          "unit": "mmol/L",
          "code": "mmol/L"
        },
        "referenceRange": [
          {
            "low": {
              "value": 3.5,
              "code": "mmol/L",
              "system": "http://unitsofmeasure.org"
            }
          },
          {
            "high": {
              "value": 5,
              "code": "mmol/L",
              "system": "http://unitsofmeasure.org"
            }
          }
        ],
        "text": {
          "status": "generated",
          "div": "<div xmlns=\"http://www.w3.org/1999/xhtml\"><table class=\"hl7__eu__lab__report\"><tr><th>Test</th><th>04-Jan-2017</th><th>Reference&#xA0;Range</th><th>Unit</th></tr><tr><td>Potassium [Moles/volume] in Serum or Plasma</td><td>4.5</td><td>3.5 - 5</td><td></td><td>mmol/L</td></tr></table></div>"
        },
        "status": "final",
        "subject": {
          "reference": "urn:uuid:2cb67a8c-3fa6-4f5b-a15f-a54704dc7cfa",
          "display": "Θεμιστοκλής Λιναρδάκη"
        },
        "effectiveDateTime": "2017-01-04T06:16:00Z",
        "specimen": {
          "reference": "urn:uuid:35959fbc-c9e3-4156-85cf-7d770f0d679e"
        }
      }
    },
    {
      "fullUrl": "urn:uuid:b4e2d16f-1030-44a4-bf56-974e087c158c",
      "resource": {
        "resourceType": "Observation",
        "id": "b4e2d16f-1030-44a4-bf56-974e087c158c",
        "meta": {
          "profile": [
            "http://hl7.eu/fhir/laboratory/StructureDefinition/Observation-resultslab-eu-lab"
          ]
        },
        "performer": [
          {
            "display": "The Central European Lab"
          }
        ],
        "category": [
          {
            "coding": [
              {
                "system": "http://terminology.hl7.org/CodeSystem/observation-category",
                "code": "laboratory"
              }
            ]
          }
        ],
        "code": {
          "coding": [
            {
              "code": "2075-0",
              "system": "http://loinc.org",
              "display": "Chloride [Moles/volume] in Serum or Plasma"
            }
          ],
          "text": "Chloride [Moles/volume] in Serum or Plasma"
        },
        "valueQuantity": {
          "system": "http://unitsofmeasure.org",
          "value": 109.2,
          "unit": "mmol/L",
          "code": "mmol/L"
        },
        "referenceRange": [
          {
            "low": {
              "value": 98,
              "code": "mmol/L",
              "system": "http://unitsofmeasure.org"
            }
          },
          {
            "high": {
              "value": 108,
              "code": "mmol/L",
              "system": "http://unitsofmeasure.org"
            }
          }
        ],
        "interpretation": [
          {
            "coding": [
              {
                "code": "H",
                "system": "http://terminology.hl7.org/CodeSystem/v3-ObservationInterpretation",
                "display": "High"
              }
            ]
          }
        ],
        "text": {
          "status": "generated",
          "div": "<div xmlns=\"http://www.w3.org/1999/xhtml\"><table class=\"hl7__eu__lab__report\"><tr><th>Test</th><th>04-Jan-2017</th><th>Reference&#xA0;Range</th><th>Unit</th></tr><tr><td>Chloride [Moles/volume] in Serum or Plasma</td><td>109.2</td><td>98 - 108</td><td>H</td><td>mmol/L</td></tr></table></div>"
        },
        "status": "final",
        "subject": {
          "reference": "urn:uuid:2cb67a8c-3fa6-4f5b-a15f-a54704dc7cfa",
          "display": "Θεμιστοκλής Λιναρδάκη"
        },
        "effectiveDateTime": "2017-01-04T06:16:00Z",
        "specimen": {
          "reference": "urn:uuid:35959fbc-c9e3-4156-85cf-7d770f0d679e"
        }
      }
    },
    {
      "fullUrl": "urn:uuid:49fb80ea-6008-496c-a43a-ab34c9865641",
      "resource": {
        "resourceType": "Observation",
        "id": "49fb80ea-6008-496c-a43a-ab34c9865641",
        "meta": {
          "profile": [
            "http://hl7.eu/fhir/laboratory/StructureDefinition/Observation-resultslab-eu-lab"
          ]
        },
        "performer": [
          {
            "display": "The Central European Lab"
          }
        ],
        "category": [
          {
            "coding": [
              {
                "system": "http://terminology.hl7.org/CodeSystem/observation-category",
                "code": "laboratory"
              }
            ]
          }
        ],
        "code": {
          "coding": [
            {
              "code": "2028-9",
              "system": "http://loinc.org",
              "display": "Carbon dioxide, total [Moles/volume] in Serum or Plasma"
            }
          ],
          "text": "Carbon dioxide, total [Moles/volume] in Serum or Plasma"
        },
        "valueQuantity": {
          "system": "http://unitsofmeasure.org",
          "value": 26.3,
          "unit": "mmol/L",
          "code": "mmol/L"
        },
        "referenceRange": [
          {
            "low": {
              "value": 22,
              "code": "mmol/L",
              "system": "http://unitsofmeasure.org"
            }
          },
          {
            "high": {
              "value": 29,
              "code": "mmol/L",
              "system": "http://unitsofmeasure.org"
            }
          }
        ],
        "text": {
          "status": "generated",
          "div": "<div xmlns=\"http://www.w3.org/1999/xhtml\"><table class=\"hl7__eu__lab__report\"><tr><th>Test</th><th>04-Jan-2017</th><th>Reference&#xA0;Range</th><th>Unit</th></tr><tr><td>Carbon dioxide, total [Moles/volume] in Serum or Plasma</td><td>26.3</td><td>22 - 29</td><td></td><td>mmol/L</td></tr></table></div>"
        },
        "status": "final",
        "subject": {
          "reference": "urn:uuid:2cb67a8c-3fa6-4f5b-a15f-a54704dc7cfa",
          "display": "Θεμιστοκλής Λιναρδάκη"
        },
        "effectiveDateTime": "2017-01-04T06:16:00Z",
        "specimen": {
          "reference": "urn:uuid:35959fbc-c9e3-4156-85cf-7d770f0d679e"
        }
      }
    },
    {
      "fullUrl": "urn:uuid:9b87039c-a16b-47c7-b2b1-c74bcecde915",
      "resource": {
        "resourceType": "Observation",
        "id": "9b87039c-a16b-47c7-b2b1-c74bcecde915",
        "meta": {
          "profile": [
            "http://hl7.eu/fhir/laboratory/StructureDefinition/Observation-resultslab-eu-lab"
          ]
        },
        "performer": [
          {
            "display": "The Central European Lab"
          }
        ],
        "category": [
          {
            "coding": [
              {
                "system": "http://terminology.hl7.org/CodeSystem/observation-category",
                "code": "laboratory"
              }
            ]
          }
        ],
        "code": {
          "coding": [
            {
              "code": "5767-9",
              "system": "http://loinc.org",
              "display": "Appearance of Urine"
            }
          ],
          "text": "Appearance of Urine"
        },
        "text": {
          "status": "generated",
          "div": "<div xmlns=\"http://www.w3.org/1999/xhtml\"><table class=\"hl7__eu__lab__report\"><tr><th>Test</th><th>04-Jan-2017</th><th>Reference&#xA0;Range</th><th>Unit</th></tr><tr><td>Appearance of Urine</td></tr></table></div>"
        },
        "status": "final",
        "subject": {
          "reference": "urn:uuid:2cb67a8c-3fa6-4f5b-a15f-a54704dc7cfa",
          "display": "Θεμιστοκλής Λιναρδάκη"
        },
        "effectiveDateTime": "2017-01-04T06:16:00Z",
        "specimen": {
          "reference": "urn:uuid:05433377-cf87-4536-83af-fc4decb5c7ed"
        }
      }
    },
    {
      "fullUrl": "urn:uuid:d4c165ac-8fd9-4b66-9d2d-e7c0e272fcbf",
      "resource": {
        "resourceType": "Observation",
        "id": "d4c165ac-8fd9-4b66-9d2d-e7c0e272fcbf",
        "meta": {
          "profile": [
            "http://hl7.eu/fhir/laboratory/StructureDefinition/Observation-resultslab-eu-lab"
          ]
        },
        "performer": [
          {
            "display": "The Central European Lab"
          }
        ],
        "category": [
          {
            "coding": [
              {
                "system": "http://terminology.hl7.org/CodeSystem/observation-category",
                "code": "laboratory"
              }
            ]
          }
        ],
        "code": {
          "coding": [
            {
              "code": "34533-0",
              "system": "http://loinc.org",
              "display": "Odor of Urine"
            }
          ],
          "text": "Odor of Urine"
        },
        "text": {
          "status": "generated",
          "div": "<div xmlns=\"http://www.w3.org/1999/xhtml\"><table class=\"hl7__eu__lab__report\"><tr><th>Test</th><th>04-Jan-2017</th><th>Reference&#xA0;Range</th><th>Unit</th></tr><tr><td>Odor of Urine</td></tr></table></div>"
        },
        "status": "final",
        "subject": {
          "reference": "urn:uuid:2cb67a8c-3fa6-4f5b-a15f-a54704dc7cfa",
          "display": "Θεμιστοκλής Λιναρδάκη"
        },
        "effectiveDateTime": "2017-01-04T06:16:00Z",
        "specimen": {
          "reference": "urn:uuid:05433377-cf87-4536-83af-fc4decb5c7ed"
        }
      }
    },
    {
      "fullUrl": "urn:uuid:807bda73-3f24-4d80-9cef-a2b0b9ba43fa",
      "resource": {
        "resourceType": "Observation",
        "id": "807bda73-3f24-4d80-9cef-a2b0b9ba43fa",
        "meta": {
          "profile": [
            "http://hl7.eu/fhir/laboratory/StructureDefinition/Observation-resultslab-eu-lab"
          ]
        },
        "performer": [
          {
            "display": "The Central European Lab"
          }
        ],
        "category": [
          {
            "coding": [
              {
                "system": "http://terminology.hl7.org/CodeSystem/observation-category",
                "code": "laboratory"
              }
            ]
          }
        ],
        "code": {
          "coding": [
            {
              "code": "32167-9",
              "system": "http://loinc.org",
              "display": "Clarity of Urine"
            }
          ],
          "text": "Clarity of Urine"
        },
        "text": {
          "status": "generated",
          "div": "<div xmlns=\"http://www.w3.org/1999/xhtml\"><table class=\"hl7__eu__lab__report\"><tr><th>Test</th><th>04-Jan-2017</th><th>Reference&#xA0;Range</th><th>Unit</th></tr><tr><td>Clarity of Urine</td></tr></table></div>"
        },
        "status": "final",
        "subject": {
          "reference": "urn:uuid:2cb67a8c-3fa6-4f5b-a15f-a54704dc7cfa",
          "display": "Θεμιστοκλής Λιναρδάκη"
        },
        "effectiveDateTime": "2017-01-04T06:16:00Z",
        "specimen": {
          "reference": "urn:uuid:05433377-cf87-4536-83af-fc4decb5c7ed"
        }
      }
    },
    {
      "fullUrl": "urn:uuid:90a9e966-179a-44a6-a0c6-abbc3da444d1",
      "resource": {
        "resourceType": "Observation",
        "id": "90a9e966-179a-44a6-a0c6-abbc3da444d1",
        "meta": {
          "profile": [
            "http://hl7.eu/fhir/laboratory/StructureDefinition/Observation-resultslab-eu-lab"
          ]
        },
        "performer": [
          {
            "display": "The Central European Lab"
          }
        ],
        "category": [
          {
            "coding": [
              {
                "system": "http://terminology.hl7.org/CodeSystem/observation-category",
                "code": "laboratory"
              }
            ]
          }
        ],
        "code": {
          "coding": [
            {
              "code": "5778-6",
              "system": "http://loinc.org",
              "display": "Color of Urine"
            }
          ],
          "text": "Color of Urine"
        },
        "text": {
          "status": "generated",
          "div": "<div xmlns=\"http://www.w3.org/1999/xhtml\"><table class=\"hl7__eu__lab__report\"><tr><th>Test</th><th>04-Jan-2017</th><th>Reference&#xA0;Range</th><th>Unit</th></tr><tr><td>Color of Urine</td></tr></table></div>"
        },
        "status": "final",
        "subject": {
          "reference": "urn:uuid:2cb67a8c-3fa6-4f5b-a15f-a54704dc7cfa",
          "display": "Θεμιστοκλής Λιναρδάκη"
        },
        "effectiveDateTime": "2017-01-04T06:16:00Z",
        "specimen": {
          "reference": "urn:uuid:05433377-cf87-4536-83af-fc4decb5c7ed"
        }
      }
    },
    {
      "fullUrl": "urn:uuid:2984c646-1f64-426d-ba1c-84206cdc8565",
      "resource": {
        "resourceType": "Observation",
        "id": "2984c646-1f64-426d-ba1c-84206cdc8565",
        "meta": {
          "profile": [
            "http://hl7.eu/fhir/laboratory/StructureDefinition/Observation-resultslab-eu-lab"
          ]
        },
        "performer": [
          {
            "display": "The Central European Lab"
          }
        ],
        "category": [
          {
            "coding": [
              {
                "system": "http://terminology.hl7.org/CodeSystem/observation-category",
                "code": "laboratory"
              }
            ]
          }
        ],
        "code": {
          "coding": [
            {
              "code": "5792-7",
              "system": "http://loinc.org",
              "display": "Glucose [Mass/volume] in Urine by Test strip"
            }
          ],
          "text": "Glucose [Mass/volume] in Urine by Test strip"
        },
        "valueQuantity": {
          "system": "http://unitsofmeasure.org",
          "value": 1.7,
          "unit": "mg/dL",
          "code": "mg/dL"
        },
        "referenceRange": [
          {
            "low": {
              "value": 0,
              "code": "mg/dL",
              "system": "http://unitsofmeasure.org"
            }
          },
          {
            "high": {
              "value": 0.8,
              "code": "mg/dL",
              "system": "http://unitsofmeasure.org"
            }
          }
        ],
        "interpretation": [
          {
            "coding": [
              {
                "code": "H",
                "system": "http://terminology.hl7.org/CodeSystem/v3-ObservationInterpretation",
                "display": "High"
              }
            ]
          }
        ],
        "text": {
          "status": "generated",
          "div": "<div xmlns=\"http://www.w3.org/1999/xhtml\"><table class=\"hl7__eu__lab__report\"><tr><th>Test</th><th>04-Jan-2017</th><th>Reference&#xA0;Range</th><th>Unit</th></tr><tr><td>Glucose [Mass/volume] in Urine by Test strip</td><td>1.7</td><td>0 - 0.8</td><td>H</td><td>mg/dL</td></tr></table></div>"
        },
        "status": "final",
        "subject": {
          "reference": "urn:uuid:2cb67a8c-3fa6-4f5b-a15f-a54704dc7cfa",
          "display": "Θεμιστοκλής Λιναρδάκη"
        },
        "effectiveDateTime": "2017-01-04T06:16:00Z",
        "specimen": {
          "reference": "urn:uuid:05433377-cf87-4536-83af-fc4decb5c7ed"
        }
      }
    },
    {
      "fullUrl": "urn:uuid:d4d4b2a1-7c85-46db-b04c-ab005037c5de",
      "resource": {
        "resourceType": "Observation",
        "id": "d4d4b2a1-7c85-46db-b04c-ab005037c5de",
        "meta": {
          "profile": [
            "http://hl7.eu/fhir/laboratory/StructureDefinition/Observation-resultslab-eu-lab"
          ]
        },
        "performer": [
          {
            "display": "The Central European Lab"
          }
        ],
        "category": [
          {
            "coding": [
              {
                "system": "http://terminology.hl7.org/CodeSystem/observation-category",
                "code": "laboratory"
              }
            ]
          }
        ],
        "code": {
          "coding": [
            {
              "code": "25428-4",
              "system": "http://loinc.org",
              "display": "Glucose [Presence] in Urine by Test strip"
            }
          ],
          "text": "Glucose [Presence] in Urine by Test strip"
        },
        "text": {
          "status": "generated",
          "div": "<div xmlns=\"http://www.w3.org/1999/xhtml\"><table class=\"hl7__eu__lab__report\"><tr><th>Test</th><th>04-Jan-2017</th><th>Reference&#xA0;Range</th><th>Unit</th></tr><tr><td>Glucose [Presence] in Urine by Test strip</td></tr></table></div>"
        },
        "status": "final",
        "subject": {
          "reference": "urn:uuid:2cb67a8c-3fa6-4f5b-a15f-a54704dc7cfa",
          "display": "Θεμιστοκλής Λιναρδάκη"
        },
        "effectiveDateTime": "2017-01-04T06:16:00Z",
        "specimen": {
          "reference": "urn:uuid:05433377-cf87-4536-83af-fc4decb5c7ed"
        }
      }
    },
    {
      "fullUrl": "urn:uuid:8355069b-3244-4eb1-b795-18862b11d550",
      "resource": {
        "resourceType": "Observation",
        "id": "8355069b-3244-4eb1-b795-18862b11d550",
        "meta": {
          "profile": [
            "http://hl7.eu/fhir/laboratory/StructureDefinition/Observation-resultslab-eu-lab"
          ]
        },
        "performer": [
          {
            "display": "The Central European Lab"
          }
        ],
        "category": [
          {
            "coding": [
              {
                "system": "http://terminology.hl7.org/CodeSystem/observation-category",
                "code": "laboratory"
              }
            ]
          }
        ],
        "code": {
          "coding": [
            {
              "code": "20505-4",
              "system": "http://loinc.org",
              "display": "Bilirubin.total [Mass/volume] in Urine by Test strip"
            }
          ],
          "text": "Bilirubin.total [Mass/volume] in Urine by Test strip"
        },
        "valueQuantity": {
          "system": "http://unitsofmeasure.org",
          "value": 0.4,
          "unit": "mg/dL",
          "code": "mg/dL"
        },
        "referenceRange": [
          {
            "low": {
              "value": 0.2,
              "code": "mg/dL",
              "system": "http://unitsofmeasure.org"
            }
          },
          {
            "high": {
              "value": 1,
              "code": "mg/dL",
              "system": "http://unitsofmeasure.org"
            }
          }
        ],
        "text": {
          "status": "generated",
          "div": "<div xmlns=\"http://www.w3.org/1999/xhtml\"><table class=\"hl7__eu__lab__report\"><tr><th>Test</th><th>04-Jan-2017</th><th>Reference&#xA0;Range</th><th>Unit</th></tr><tr><td>Bilirubin.total [Mass/volume] in Urine by Test strip</td><td>0.4</td><td>0.2 - 1</td><td></td><td>mg/dL</td></tr></table></div>"
        },
        "status": "final",
        "subject": {
          "reference": "urn:uuid:2cb67a8c-3fa6-4f5b-a15f-a54704dc7cfa",
          "display": "Θεμιστοκλής Λιναρδάκη"
        },
        "effectiveDateTime": "2017-01-04T06:16:00Z",
        "specimen": {
          "reference": "urn:uuid:05433377-cf87-4536-83af-fc4decb5c7ed"
        }
      }
    },
    {
      "fullUrl": "urn:uuid:7bc6c2e0-7f31-455b-9a05-8099c2ce43e2",
      "resource": {
        "resourceType": "Observation",
        "id": "7bc6c2e0-7f31-455b-9a05-8099c2ce43e2",
        "meta": {
          "profile": [
            "http://hl7.eu/fhir/laboratory/StructureDefinition/Observation-resultslab-eu-lab"
          ]
        },
        "performer": [
          {
            "display": "The Central European Lab"
          }
        ],
        "category": [
          {
            "coding": [
              {
                "system": "http://terminology.hl7.org/CodeSystem/observation-category",
                "code": "laboratory"
              }
            ]
          }
        ],
        "code": {
          "coding": [
            {
              "code": "5770-3",
              "system": "http://loinc.org",
              "display": "Bilirubin.total [Presence] in Urine by Test strip"
            }
          ],
          "text": "Bilirubin.total [Presence] in Urine by Test strip"
        },
        "text": {
          "status": "generated",
          "div": "<div xmlns=\"http://www.w3.org/1999/xhtml\"><table class=\"hl7__eu__lab__report\"><tr><th>Test</th><th>04-Jan-2017</th><th>Reference&#xA0;Range</th><th>Unit</th></tr><tr><td>Bilirubin.total [Presence] in Urine by Test strip</td></tr></table></div>"
        },
        "status": "final",
        "subject": {
          "reference": "urn:uuid:2cb67a8c-3fa6-4f5b-a15f-a54704dc7cfa",
          "display": "Θεμιστοκλής Λιναρδάκη"
        },
        "effectiveDateTime": "2017-01-04T06:16:00Z",
        "specimen": {
          "reference": "urn:uuid:05433377-cf87-4536-83af-fc4decb5c7ed"
        }
      }
    },
    {
      "fullUrl": "urn:uuid:19240aa0-63df-44e3-8fab-b5e9c7f23cec",
      "resource": {
        "resourceType": "Observation",
        "id": "19240aa0-63df-44e3-8fab-b5e9c7f23cec",
        "meta": {
          "profile": [
            "http://hl7.eu/fhir/laboratory/StructureDefinition/Observation-resultslab-eu-lab"
          ]
        },
        "performer": [
          {
            "display": "The Central European Lab"
          }
        ],
        "category": [
          {
            "coding": [
              {
                "system": "http://terminology.hl7.org/CodeSystem/observation-category",
                "code": "laboratory"
              }
            ]
          }
        ],
        "code": {
          "coding": [
            {
              "code": "5797-6",
              "system": "http://loinc.org",
              "display": "Ketones [Mass/volume] in Urine by Test strip"
            }
          ],
          "text": "Ketones [Mass/volume] in Urine by Test strip"
        },
        "valueQuantity": {
          "system": "http://unitsofmeasure.org",
          "value": 3.9,
          "unit": "mg/dL",
          "code": "mg/dL"
        },
        "referenceRange": [
          {
            "low": {
              "value": 0,
              "code": "mg/dL",
              "system": "http://unitsofmeasure.org"
            }
          },
          {
            "high": {
              "value": 5,
              "code": "mg/dL",
              "system": "http://unitsofmeasure.org"
            }
          }
        ],
        "text": {
          "status": "generated",
          "div": "<div xmlns=\"http://www.w3.org/1999/xhtml\"><table class=\"hl7__eu__lab__report\"><tr><th>Test</th><th>04-Jan-2017</th><th>Reference&#xA0;Range</th><th>Unit</th></tr><tr><td>Ketones [Mass/volume] in Urine by Test strip</td><td>3.9</td><td>0 - 5</td><td></td><td>mg/dL</td></tr></table></div>"
        },
        "status": "final",
        "subject": {
          "reference": "urn:uuid:2cb67a8c-3fa6-4f5b-a15f-a54704dc7cfa",
          "display": "Θεμιστοκλής Λιναρδάκη"
        },
        "effectiveDateTime": "2017-01-04T06:16:00Z",
        "specimen": {
          "reference": "urn:uuid:05433377-cf87-4536-83af-fc4decb5c7ed"
        }
      }
    },
    {
      "fullUrl": "urn:uuid:07b61f92-07fd-49b0-9200-4085334e8a12",
      "resource": {
        "resourceType": "Observation",
        "id": "07b61f92-07fd-49b0-9200-4085334e8a12",
        "meta": {
          "profile": [
            "http://hl7.eu/fhir/laboratory/StructureDefinition/Observation-resultslab-eu-lab"
          ]
        },
        "performer": [
          {
            "display": "The Central European Lab"
          }
        ],
        "category": [
          {
            "coding": [
              {
                "system": "http://terminology.hl7.org/CodeSystem/observation-category",
                "code": "laboratory"
              }
            ]
          }
        ],
        "code": {
          "coding": [
            {
              "code": "2514-8",
              "system": "http://loinc.org",
              "display": "Ketones [Presence] in Urine by Test strip"
            }
          ],
          "text": "Ketones [Presence] in Urine by Test strip"
        },
        "text": {
          "status": "generated",
          "div": "<div xmlns=\"http://www.w3.org/1999/xhtml\"><table class=\"hl7__eu__lab__report\"><tr><th>Test</th><th>04-Jan-2017</th><th>Reference&#xA0;Range</th><th>Unit</th></tr><tr><td>Ketones [Presence] in Urine by Test strip</td></tr></table></div>"
        },
        "status": "final",
        "subject": {
          "reference": "urn:uuid:2cb67a8c-3fa6-4f5b-a15f-a54704dc7cfa",
          "display": "Θεμιστοκλής Λιναρδάκη"
        },
        "effectiveDateTime": "2017-01-04T06:16:00Z",
        "specimen": {
          "reference": "urn:uuid:05433377-cf87-4536-83af-fc4decb5c7ed"
        }
      }
    },
    {
      "fullUrl": "urn:uuid:10ac5342-2e4b-4d14-8059-968102f5c515",
      "resource": {
        "resourceType": "Observation",
        "id": "10ac5342-2e4b-4d14-8059-968102f5c515",
        "meta": {
          "profile": [
            "http://hl7.eu/fhir/laboratory/StructureDefinition/Observation-resultslab-eu-lab"
          ]
        },
        "performer": [
          {
            "display": "The Central European Lab"
          }
        ],
        "category": [
          {
            "coding": [
              {
                "system": "http://terminology.hl7.org/CodeSystem/observation-category",
                "code": "laboratory"
              }
            ]
          }
        ],
        "code": {
          "coding": [
            {
              "code": "5811-5",
              "system": "http://loinc.org",
              "display": "Specific gravity of Urine by Test strip"
            }
          ],
          "text": "Specific gravity of Urine by Test strip"
        },
        "valueQuantity": {
          "system": "http://unitsofmeasure.org",
          "value": 1,
          "unit": "{nominal}",
          "code": "{nominal}"
        },
        "referenceRange": [
          {
            "low": {
              "value": 1.005,
              "code": "g/mL",
              "system": "http://unitsofmeasure.org"
            }
          },
          {
            "high": {
              "value": 1.03,
              "code": "g/mL",
              "system": "http://unitsofmeasure.org"
            }
          }
        ],
        "interpretation": [
          {
            "coding": [
              {
                "code": "L",
                "system": "http://terminology.hl7.org/CodeSystem/v3-ObservationInterpretation",
                "display": "Low"
              }
            ]
          }
        ],
        "text": {
          "status": "generated",
          "div": "<div xmlns=\"http://www.w3.org/1999/xhtml\"><table class=\"hl7__eu__lab__report\"><tr><th>Test</th><th>04-Jan-2017</th><th>Reference&#xA0;Range</th><th>Unit</th></tr><tr><td>Specific gravity of Urine by Test strip</td><td>1.0</td><td>1.005 - 1.03</td><td>L</td><td>{nominal}</td></tr></table></div>"
        },
        "status": "final",
        "subject": {
          "reference": "urn:uuid:2cb67a8c-3fa6-4f5b-a15f-a54704dc7cfa",
          "display": "Θεμιστοκλής Λιναρδάκη"
        },
        "effectiveDateTime": "2017-01-04T06:16:00Z",
        "specimen": {
          "reference": "urn:uuid:05433377-cf87-4536-83af-fc4decb5c7ed"
        }
      }
    },
    {
      "fullUrl": "urn:uuid:7889c616-f5b0-4de6-bfad-3b7edc64e37e",
      "resource": {
        "resourceType": "Observation",
        "id": "7889c616-f5b0-4de6-bfad-3b7edc64e37e",
        "meta": {
          "profile": [
            "http://hl7.eu/fhir/laboratory/StructureDefinition/Observation-resultslab-eu-lab"
          ]
        },
        "performer": [
          {
            "display": "The Central European Lab"
          }
        ],
        "category": [
          {
            "coding": [
              {
                "system": "http://terminology.hl7.org/CodeSystem/observation-category",
                "code": "laboratory"
              }
            ]
          }
        ],
        "code": {
          "coding": [
            {
              "code": "5803-2",
              "system": "http://loinc.org",
              "display": "pH of Urine by Test strip"
            }
          ],
          "text": "pH of Urine by Test strip"
        },
        "valueQuantity": {
          "system": "http://unitsofmeasure.org",
          "value": 5.5,
          "unit": "pH",
          "code": "pH"
        },
        "referenceRange": [
          {
            "low": {
              "value": 4.6,
              "code": "pH",
              "system": "http://unitsofmeasure.org"
            }
          },
          {
            "high": {
              "value": 7,
              "code": "pH",
              "system": "http://unitsofmeasure.org"
            }
          }
        ],
        "text": {
          "status": "generated",
          "div": "<div xmlns=\"http://www.w3.org/1999/xhtml\"><table class=\"hl7__eu__lab__report\"><tr><th>Test</th><th>04-Jan-2017</th><th>Reference&#xA0;Range</th><th>Unit</th></tr><tr><td>pH of Urine by Test strip</td><td>5.5</td><td>4.6 - 7</td><td></td><td>pH</td></tr></table></div>"
        },
        "status": "final",
        "subject": {
          "reference": "urn:uuid:2cb67a8c-3fa6-4f5b-a15f-a54704dc7cfa",
          "display": "Θεμιστοκλής Λιναρδάκη"
        },
        "effectiveDateTime": "2017-01-04T06:16:00Z",
        "specimen": {
          "reference": "urn:uuid:05433377-cf87-4536-83af-fc4decb5c7ed"
        }
      }
    },
    {
      "fullUrl": "urn:uuid:eeb5572f-2fe1-4612-a241-57fbf288f739",
      "resource": {
        "resourceType": "Observation",
        "id": "eeb5572f-2fe1-4612-a241-57fbf288f739",
        "meta": {
          "profile": [
            "http://hl7.eu/fhir/laboratory/StructureDefinition/Observation-resultslab-eu-lab"
          ]
        },
        "performer": [
          {
            "display": "The Central European Lab"
          }
        ],
        "category": [
          {
            "coding": [
              {
                "system": "http://terminology.hl7.org/CodeSystem/observation-category",
                "code": "laboratory"
              }
            ]
          }
        ],
        "code": {
          "coding": [
            {
              "code": "5804-0",
              "system": "http://loinc.org",
              "display": "Protein [Mass/volume] in Urine by Test strip"
            }
          ],
          "text": "Protein [Mass/volume] in Urine by Test strip"
        },
        "valueQuantity": {
          "system": "http://unitsofmeasure.org",
          "value": 312.3,
          "unit": "mg/dL",
          "code": "mg/dL"
        },
        "referenceRange": [
          {
            "low": {
              "value": 0,
              "code": "mg/dL",
              "system": "http://unitsofmeasure.org"
            }
          },
          {
            "high": {
              "value": 150,
              "code": "mg/dL",
              "system": "http://unitsofmeasure.org"
            }
          }
        ],
        "interpretation": [
          {
            "coding": [
              {
                "code": "H",
                "system": "http://terminology.hl7.org/CodeSystem/v3-ObservationInterpretation",
                "display": "High"
              }
            ]
          }
        ],
        "text": {
          "status": "generated",
          "div": "<div xmlns=\"http://www.w3.org/1999/xhtml\"><table class=\"hl7__eu__lab__report\"><tr><th>Test</th><th>04-Jan-2017</th><th>Reference&#xA0;Range</th><th>Unit</th></tr><tr><td>Protein [Mass/volume] in Urine by Test strip</td><td>312.3</td><td>0 - 150</td><td>H</td><td>mg/dL</td></tr></table></div>"
        },
        "status": "final",
        "subject": {
          "reference": "urn:uuid:2cb67a8c-3fa6-4f5b-a15f-a54704dc7cfa",
          "display": "Θεμιστοκλής Λιναρδάκη"
        },
        "effectiveDateTime": "2017-01-04T06:16:00Z",
        "specimen": {
          "reference": "urn:uuid:05433377-cf87-4536-83af-fc4decb5c7ed"
        }
      }
    },
    {
      "fullUrl": "urn:uuid:337939da-5b39-47d2-912c-a450ca3437b7",
      "resource": {
        "resourceType": "Observation",
        "id": "337939da-5b39-47d2-912c-a450ca3437b7",
        "meta": {
          "profile": [
            "http://hl7.eu/fhir/laboratory/StructureDefinition/Observation-resultslab-eu-lab"
          ]
        },
        "performer": [
          {
            "display": "The Central European Lab"
          }
        ],
        "category": [
          {
            "coding": [
              {
                "system": "http://terminology.hl7.org/CodeSystem/observation-category",
                "code": "laboratory"
              }
            ]
          }
        ],
        "code": {
          "coding": [
            {
              "code": "20454-5",
              "system": "http://loinc.org",
              "display": "Protein [Presence] in Urine by Test strip"
            }
          ],
          "text": "Protein [Presence] in Urine by Test strip"
        },
        "text": {
          "status": "generated",
          "div": "<div xmlns=\"http://www.w3.org/1999/xhtml\"><table class=\"hl7__eu__lab__report\"><tr><th>Test</th><th>04-Jan-2017</th><th>Reference&#xA0;Range</th><th>Unit</th></tr><tr><td>Protein [Presence] in Urine by Test strip</td></tr></table></div>"
        },
        "status": "final",
        "subject": {
          "reference": "urn:uuid:2cb67a8c-3fa6-4f5b-a15f-a54704dc7cfa",
          "display": "Θεμιστοκλής Λιναρδάκη"
        },
        "effectiveDateTime": "2017-01-04T06:16:00Z",
        "specimen": {
          "reference": "urn:uuid:05433377-cf87-4536-83af-fc4decb5c7ed"
        }
      }
    },
    {
      "fullUrl": "urn:uuid:0dedb2a1-f6fe-4606-83d4-aaa826963be4",
      "resource": {
        "resourceType": "Observation",
        "id": "0dedb2a1-f6fe-4606-83d4-aaa826963be4",
        "meta": {
          "profile": [
            "http://hl7.eu/fhir/laboratory/StructureDefinition/Observation-resultslab-eu-lab"
          ]
        },
        "performer": [
          {
            "display": "The Central European Lab"
          }
        ],
        "category": [
          {
            "coding": [
              {
                "system": "http://terminology.hl7.org/CodeSystem/observation-category",
                "code": "laboratory"
              }
            ]
          }
        ],
        "code": {
          "coding": [
            {
              "code": "5802-4",
              "system": "http://loinc.org",
              "display": "Nitrite [Presence] in Urine by Test strip"
            }
          ],
          "text": "Nitrite [Presence] in Urine by Test strip"
        },
        "text": {
          "status": "generated",
          "div": "<div xmlns=\"http://www.w3.org/1999/xhtml\"><table class=\"hl7__eu__lab__report\"><tr><th>Test</th><th>04-Jan-2017</th><th>Reference&#xA0;Range</th><th>Unit</th></tr><tr><td>Nitrite [Presence] in Urine by Test strip</td></tr></table></div>"
        },
        "status": "final",
        "subject": {
          "reference": "urn:uuid:2cb67a8c-3fa6-4f5b-a15f-a54704dc7cfa",
          "display": "Θεμιστοκλής Λιναρδάκη"
        },
        "effectiveDateTime": "2017-01-04T06:16:00Z",
        "specimen": {
          "reference": "urn:uuid:05433377-cf87-4536-83af-fc4decb5c7ed"
        }
      }
    },
    {
      "fullUrl": "urn:uuid:6c74e16e-1d37-4225-b59b-54586ce7f707",
      "resource": {
        "resourceType": "Observation",
        "id": "6c74e16e-1d37-4225-b59b-54586ce7f707",
        "meta": {
          "profile": [
            "http://hl7.eu/fhir/laboratory/StructureDefinition/Observation-resultslab-eu-lab"
          ]
        },
        "performer": [
          {
            "display": "The Central European Lab"
          }
        ],
        "category": [
          {
            "coding": [
              {
                "system": "http://terminology.hl7.org/CodeSystem/observation-category",
                "code": "laboratory"
              }
            ]
          }
        ],
        "code": {
          "coding": [
            {
              "code": "5794-3",
              "system": "http://loinc.org",
              "display": "Hemoglobin [Presence] in Urine by Test strip"
            }
          ],
          "text": "Hemoglobin [Presence] in Urine by Test strip"
        },
        "text": {
          "status": "generated",
          "div": "<div xmlns=\"http://www.w3.org/1999/xhtml\"><table class=\"hl7__eu__lab__report\"><tr><th>Test</th><th>04-Jan-2017</th><th>Reference&#xA0;Range</th><th>Unit</th></tr><tr><td>Hemoglobin [Presence] in Urine by Test strip</td></tr></table></div>"
        },
        "status": "final",
        "subject": {
          "reference": "urn:uuid:2cb67a8c-3fa6-4f5b-a15f-a54704dc7cfa",
          "display": "Θεμιστοκλής Λιναρδάκη"
        },
        "effectiveDateTime": "2017-01-04T06:16:00Z",
        "specimen": {
          "reference": "urn:uuid:05433377-cf87-4536-83af-fc4decb5c7ed"
        }
      }
    },
    {
      "fullUrl": "urn:uuid:64f1569d-713c-4309-9ad0-d8c2d93e0a8e",
      "resource": {
        "resourceType": "Observation",
        "id": "64f1569d-713c-4309-9ad0-d8c2d93e0a8e",
        "meta": {
          "profile": [
            "http://hl7.eu/fhir/laboratory/StructureDefinition/Observation-resultslab-eu-lab"
          ]
        },
        "performer": [
          {
            "display": "The Central European Lab"
          }
        ],
        "category": [
          {
            "coding": [
              {
                "system": "http://terminology.hl7.org/CodeSystem/observation-category",
                "code": "laboratory"
              }
            ]
          }
        ],
        "code": {
          "coding": [
            {
              "code": "5799-2",
              "system": "http://loinc.org",
              "display": "Leukocyte esterase [Presence] in Urine by Test strip"
            }
          ],
          "text": "Leukocyte esterase [Presence] in Urine by Test strip"
        },
        "text": {
          "status": "generated",
          "div": "<div xmlns=\"http://www.w3.org/1999/xhtml\"><table class=\"hl7__eu__lab__report\"><tr><th>Test</th><th>04-Jan-2017</th><th>Reference&#xA0;Range</th><th>Unit</th></tr><tr><td>Leukocyte esterase [Presence] in Urine by Test strip</td></tr></table></div>"
        },
        "status": "final",
        "subject": {
          "reference": "urn:uuid:2cb67a8c-3fa6-4f5b-a15f-a54704dc7cfa",
          "display": "Θεμιστοκλής Λιναρδάκη"
        },
        "effectiveDateTime": "2017-01-04T06:16:00Z",
        "specimen": {
          "reference": "urn:uuid:05433377-cf87-4536-83af-fc4decb5c7ed"
        }
      }
    },
    {
      "fullUrl": "urn:uuid:1f7d05ba-656f-47c8-9332-7616136f7236",
      "resource": {
        "resourceType": "Observation",
        "id": "1f7d05ba-656f-47c8-9332-7616136f7236",
        "meta": {
          "profile": [
            "http://hl7.eu/fhir/laboratory/StructureDefinition/Observation-resultslab-eu-lab"
          ]
        },
        "performer": [
          {
            "display": "The Central European Lab"
          }
        ],
        "category": [
          {
            "coding": [
              {
                "system": "http://terminology.hl7.org/CodeSystem/observation-category",
                "code": "laboratory"
              }
            ]
          }
        ],
        "code": {
          "coding": [
            {
              "code": "4548-4",
              "system": "http://loinc.org",
              "display": "Hemoglobin A1c/Hemoglobin.total in Blood"
            }
          ],
          "text": "Hemoglobin A1c/Hemoglobin.total in Blood"
        },
        "valueQuantity": {
          "system": "http://unitsofmeasure.org",
          "value": 2.9,
          "unit": "%",
          "code": "%"
        },
        "referenceRange": [
          {
            "low": {
              "value": 4.3,
              "code": "%",
              "system": "http://unitsofmeasure.org"
            }
          },
          {
            "high": {
              "value": 6.4,
              "code": "%",
              "system": "http://unitsofmeasure.org"
            }
          }
        ],
        "interpretation": [
          {
            "coding": [
              {
                "code": "L",
                "system": "http://terminology.hl7.org/CodeSystem/v3-ObservationInterpretation",
                "display": "Low"
              }
            ]
          }
        ],
        "text": {
          "status": "generated",
          "div": "<div xmlns=\"http://www.w3.org/1999/xhtml\"><table class=\"hl7__eu__lab__report\"><tr><th>Test</th><th>04-Jan-2017</th><th>Reference&#xA0;Range</th><th>Unit</th></tr><tr><td>Hemoglobin A1c/Hemoglobin.total in Blood</td><td>2.9</td><td>4.3 - 6.4</td><td>L</td><td>%</td></tr></table></div>"
        },
        "status": "final",
        "subject": {
          "reference": "urn:uuid:2cb67a8c-3fa6-4f5b-a15f-a54704dc7cfa",
          "display": "Θεμιστοκλής Λιναρδάκη"
        },
        "effectiveDateTime": "2017-01-04T06:16:00Z",
        "specimen": {
          "reference": "urn:uuid:b6150a72-4439-4e88-b0f7-adca672c2adf"
        }
      }
    },
    {
      "fullUrl": "urn:uuid:ee0cbf4e-988e-4e3d-9dad-697dc1df8483",
      "resource": {
        "resourceType": "Observation",
        "id": "ee0cbf4e-988e-4e3d-9dad-697dc1df8483",
        "meta": {
          "profile": [
            "http://hl7.eu/fhir/laboratory/StructureDefinition/Observation-resultslab-eu-lab"
          ]
        },
        "performer": [
          {
            "display": "The Central European Lab"
          }
        ],
        "category": [
          {
            "coding": [
              {
                "system": "http://terminology.hl7.org/CodeSystem/observation-category",
                "code": "laboratory"
              }
            ]
          }
        ],
        "code": {
          "coding": [
            {
              "code": "2339-0",
              "system": "http://loinc.org",
              "display": "Glucose [Mass/volume] in Blood"
            }
          ],
          "text": "Glucose [Mass/volume] in Blood"
        },
        "valueQuantity": {
          "system": "http://unitsofmeasure.org",
          "value": 83.1,
          "unit": "mg/dL",
          "code": "mg/dL"
        },
        "referenceRange": [
          {
            "low": {
              "value": 70,
              "code": "mg/dL",
              "system": "http://unitsofmeasure.org"
            }
          },
          {
            "high": {
              "value": 140,
              "code": "mg/dL",
              "system": "http://unitsofmeasure.org"
            }
          }
        ],
        "text": {
          "status": "generated",
          "div": "<div xmlns=\"http://www.w3.org/1999/xhtml\"><table class=\"hl7__eu__lab__report\"><tr><th>Test</th><th>04-Jan-2017</th><th>Reference&#xA0;Range</th><th>Unit</th></tr><tr><td>Glucose [Mass/volume] in Blood</td><td>83.1</td><td>70 - 140</td><td></td><td>mg/dL</td></tr></table></div>"
        },
        "status": "final",
        "subject": {
          "reference": "urn:uuid:2cb67a8c-3fa6-4f5b-a15f-a54704dc7cfa",
          "display": "Θεμιστοκλής Λιναρδάκη"
        },
        "effectiveDateTime": "2017-01-04T06:16:00Z",
        "specimen": {
          "reference": "urn:uuid:b6150a72-4439-4e88-b0f7-adca672c2adf"
        }
      }
    },
    {
      "fullUrl": "urn:uuid:907e01c8-a95b-48df-b161-0b32bb1fa234",
      "resource": {
        "resourceType": "Observation",
        "id": "907e01c8-a95b-48df-b161-0b32bb1fa234",
        "meta": {
          "profile": [
            "http://hl7.eu/fhir/laboratory/StructureDefinition/Observation-resultslab-eu-lab"
          ]
        },
        "performer": [
          {
            "display": "The Central European Lab"
          }
        ],
        "category": [
          {
            "coding": [
              {
                "system": "http://terminology.hl7.org/CodeSystem/observation-category",
                "code": "laboratory"
              }
            ]
          }
        ],
        "code": {
          "coding": [
            {
              "code": "6299-2",
              "system": "http://loinc.org",
              "display": "Urea nitrogen [Mass/volume] in Blood"
            }
          ],
          "text": "Urea nitrogen [Mass/volume] in Blood"
        },
        "valueQuantity": {
          "system": "http://unitsofmeasure.org",
          "value": 9.1,
          "unit": "mg/dL",
          "code": "mg/dL"
        },
        "referenceRange": [
          {
            "low": {
              "value": 7,
              "code": "mg/dL",
              "system": "http://unitsofmeasure.org"
            }
          },
          {
            "high": {
              "value": 20,
              "code": "mg/dL",
              "system": "http://unitsofmeasure.org"
            }
          }
        ],
        "text": {
          "status": "generated",
          "div": "<div xmlns=\"http://www.w3.org/1999/xhtml\"><table class=\"hl7__eu__lab__report\"><tr><th>Test</th><th>04-Jan-2017</th><th>Reference&#xA0;Range</th><th>Unit</th></tr><tr><td>Urea nitrogen [Mass/volume] in Blood</td><td>9.1</td><td>7 - 20</td><td></td><td>mg/dL</td></tr></table></div>"
        },
        "status": "final",
        "subject": {
          "reference": "urn:uuid:2cb67a8c-3fa6-4f5b-a15f-a54704dc7cfa",
          "display": "Θεμιστοκλής Λιναρδάκη"
        },
        "effectiveDateTime": "2017-01-04T06:16:00Z",
        "specimen": {
          "reference": "urn:uuid:b6150a72-4439-4e88-b0f7-adca672c2adf"
        }
      }
    },
    {
      "fullUrl": "urn:uuid:0ec299a5-e0d9-47fd-baef-799224e7ea15",
      "resource": {
        "resourceType": "Observation",
        "id": "0ec299a5-e0d9-47fd-baef-799224e7ea15",
        "meta": {
          "profile": [
            "http://hl7.eu/fhir/laboratory/StructureDefinition/Observation-resultslab-eu-lab"
          ]
        },
        "performer": [
          {
            "display": "The Central European Lab"
          }
        ],
        "category": [
          {
            "coding": [
              {
                "system": "http://terminology.hl7.org/CodeSystem/observation-category",
                "code": "laboratory"
              }
            ]
          }
        ],
        "code": {
          "coding": [
            {
              "code": "38483-4",
              "system": "http://loinc.org",
              "display": "Creatinine [Mass/volume] in Blood"
            }
          ],
          "text": "Creatinine [Mass/volume] in Blood"
        },
        "valueQuantity": {
          "system": "http://unitsofmeasure.org",
          "value": 7.2,
          "unit": "mg/dL",
          "code": "mg/dL"
        },
        "referenceRange": [
          {
            "low": {
              "value": 0.6,
              "code": "mg/dL",
              "system": "http://unitsofmeasure.org"
            }
          },
          {
            "high": {
              "value": 1.3,
              "code": "mg/dL",
              "system": "http://unitsofmeasure.org"
            }
          }
        ],
        "interpretation": [
          {
            "coding": [
              {
                "code": "H",
                "system": "http://terminology.hl7.org/CodeSystem/v3-ObservationInterpretation",
                "display": "High"
              }
            ]
          }
        ],
        "text": {
          "status": "generated",
          "div": "<div xmlns=\"http://www.w3.org/1999/xhtml\"><table class=\"hl7__eu__lab__report\"><tr><th>Test</th><th>04-Jan-2017</th><th>Reference&#xA0;Range</th><th>Unit</th></tr><tr><td>Creatinine [Mass/volume] in Blood</td><td>7.2</td><td>0.6 - 1.3</td><td>H</td><td>mg/dL</td></tr></table></div>"
        },
        "status": "final",
        "subject": {
          "reference": "urn:uuid:2cb67a8c-3fa6-4f5b-a15f-a54704dc7cfa",
          "display": "Θεμιστοκλής Λιναρδάκη"
        },
        "effectiveDateTime": "2017-01-04T06:16:00Z",
        "specimen": {
          "reference": "urn:uuid:b6150a72-4439-4e88-b0f7-adca672c2adf"
        }
      }
    },
    {
      "fullUrl": "urn:uuid:ae456e25-2288-4115-af41-477eaeef6808",
      "resource": {
        "resourceType": "Observation",
        "id": "ae456e25-2288-4115-af41-477eaeef6808",
        "meta": {
          "profile": [
            "http://hl7.eu/fhir/laboratory/StructureDefinition/Observation-resultslab-eu-lab"
          ]
        },
        "performer": [
          {
            "display": "The Central European Lab"
          }
        ],
        "category": [
          {
            "coding": [
              {
                "system": "http://terminology.hl7.org/CodeSystem/observation-category",
                "code": "laboratory"
              }
            ]
          }
        ],
        "code": {
          "coding": [
            {
              "code": "49765-1",
              "system": "http://loinc.org",
              "display": "Calcium [Mass/volume] in Blood"
            }
          ],
          "text": "Calcium [Mass/volume] in Blood"
        },
        "valueQuantity": {
          "system": "http://unitsofmeasure.org",
          "value": 8.9,
          "unit": "mg/dL",
          "code": "mg/dL"
        },
        "referenceRange": [
          {
            "low": {
              "value": 8.5,
              "code": "mg/dL",
              "system": "http://unitsofmeasure.org"
            }
          },
          {
            "high": {
              "value": 10.5,
              "code": "mg/dL",
              "system": "http://unitsofmeasure.org"
            }
          }
        ],
        "text": {
          "status": "generated",
          "div": "<div xmlns=\"http://www.w3.org/1999/xhtml\"><table class=\"hl7__eu__lab__report\"><tr><th>Test</th><th>04-Jan-2017</th><th>Reference&#xA0;Range</th><th>Unit</th></tr><tr><td>Calcium [Mass/volume] in Blood</td><td>8.9</td><td>8.5 - 10.5</td><td></td><td>mg/dL</td></tr></table></div>"
        },
        "status": "final",
        "subject": {
          "reference": "urn:uuid:2cb67a8c-3fa6-4f5b-a15f-a54704dc7cfa",
          "display": "Θεμιστοκλής Λιναρδάκη"
        },
        "effectiveDateTime": "2017-01-04T06:16:00Z",
        "specimen": {
          "reference": "urn:uuid:b6150a72-4439-4e88-b0f7-adca672c2adf"
        }
      }
    },
    {
      "fullUrl": "urn:uuid:fb3b469a-01b0-417a-9c00-714ddd5da5ba",
      "resource": {
        "resourceType": "Observation",
        "id": "fb3b469a-01b0-417a-9c00-714ddd5da5ba",
        "meta": {
          "profile": [
            "http://hl7.eu/fhir/laboratory/StructureDefinition/Observation-resultslab-eu-lab"
          ]
        },
        "performer": [
          {
            "display": "The Central European Lab"
          }
        ],
        "category": [
          {
            "coding": [
              {
                "system": "http://terminology.hl7.org/CodeSystem/observation-category",
                "code": "laboratory"
              }
            ]
          }
        ],
        "code": {
          "coding": [
            {
              "code": "2947-0",
              "system": "http://loinc.org",
              "display": "Sodium [Moles/volume] in Blood"
            }
          ],
          "text": "Sodium [Moles/volume] in Blood"
        },
        "valueQuantity": {
          "system": "http://unitsofmeasure.org",
          "value": 138.8,
          "unit": "mmol/L",
          "code": "mmol/L"
        },
        "referenceRange": [
          {
            "low": {
              "value": 135,
              "code": "mmol/L",
              "system": "http://unitsofmeasure.org"
            }
          },
          {
            "high": {
              "value": 145,
              "code": "mmol/L",
              "system": "http://unitsofmeasure.org"
            }
          }
        ],
        "text": {
          "status": "generated",
          "div": "<div xmlns=\"http://www.w3.org/1999/xhtml\"><table class=\"hl7__eu__lab__report\"><tr><th>Test</th><th>04-Jan-2017</th><th>Reference&#xA0;Range</th><th>Unit</th></tr><tr><td>Sodium [Moles/volume] in Blood</td><td>138.8</td><td>135 - 145</td><td></td><td>mmol/L</td></tr></table></div>"
        },
        "status": "final",
        "subject": {
          "reference": "urn:uuid:2cb67a8c-3fa6-4f5b-a15f-a54704dc7cfa",
          "display": "Θεμιστοκλής Λιναρδάκη"
        },
        "effectiveDateTime": "2017-01-04T06:16:00Z",
        "specimen": {
          "reference": "urn:uuid:b6150a72-4439-4e88-b0f7-adca672c2adf"
        }
      }
    },
    {
      "fullUrl": "urn:uuid:2eb94c62-e3f4-492f-8460-3a2d32eec526",
      "resource": {
        "resourceType": "Observation",
        "id": "2eb94c62-e3f4-492f-8460-3a2d32eec526",
        "meta": {
          "profile": [
            "http://hl7.eu/fhir/laboratory/StructureDefinition/Observation-resultslab-eu-lab"
          ]
        },
        "performer": [
          {
            "display": "The Central European Lab"
          }
        ],
        "category": [
          {
            "coding": [
              {
                "system": "http://terminology.hl7.org/CodeSystem/observation-category",
                "code": "laboratory"
              }
            ]
          }
        ],
        "code": {
          "coding": [
            {
              "code": "6298-4",
              "system": "http://loinc.org",
              "display": "Potassium [Moles/volume] in Blood"
            }
          ],
          "text": "Potassium [Moles/volume] in Blood"
        },
        "valueQuantity": {
          "system": "http://unitsofmeasure.org",
          "value": 4.5,
          "unit": "mmol/L",
          "code": "mmol/L"
        },
        "referenceRange": [
          {
            "low": {
              "value": 3.5,
              "code": "mmol/L",
              "system": "http://unitsofmeasure.org"
            }
          },
          {
            "high": {
              "value": 5.3,
              "code": "mmol/L",
              "system": "http://unitsofmeasure.org"
            }
          }
        ],
        "text": {
          "status": "generated",
          "div": "<div xmlns=\"http://www.w3.org/1999/xhtml\"><table class=\"hl7__eu__lab__report\"><tr><th>Test</th><th>04-Jan-2017</th><th>Reference&#xA0;Range</th><th>Unit</th></tr><tr><td>Potassium [Moles/volume] in Blood</td><td>4.5</td><td>3.5 - 5.3</td><td></td><td>mmol/L</td></tr></table></div>"
        },
        "status": "final",
        "subject": {
          "reference": "urn:uuid:2cb67a8c-3fa6-4f5b-a15f-a54704dc7cfa",
          "display": "Θεμιστοκλής Λιναρδάκη"
        },
        "effectiveDateTime": "2017-01-04T06:16:00Z",
        "specimen": {
          "reference": "urn:uuid:b6150a72-4439-4e88-b0f7-adca672c2adf"
        }
      }
    },
    {
      "fullUrl": "urn:uuid:9bd436dd-69d7-46ca-b56b-b5b9136059ee",
      "resource": {
        "resourceType": "Observation",
        "id": "9bd436dd-69d7-46ca-b56b-b5b9136059ee",
        "meta": {
          "profile": [
            "http://hl7.eu/fhir/laboratory/StructureDefinition/Observation-resultslab-eu-lab"
          ]
        },
        "performer": [
          {
            "display": "The Central European Lab"
          }
        ],
        "category": [
          {
            "coding": [
              {
                "system": "http://terminology.hl7.org/CodeSystem/observation-category",
                "code": "laboratory"
              }
            ]
          }
        ],
        "code": {
          "coding": [
            {
              "code": "2069-3",
              "system": "http://loinc.org",
              "display": "Chloride [Moles/volume] in Blood"
            }
          ],
          "text": "Chloride [Moles/volume] in Blood"
        },
        "valueQuantity": {
          "system": "http://unitsofmeasure.org",
          "value": 109.2,
          "unit": "mmol/L",
          "code": "mmol/L"
        },
        "referenceRange": [
          {
            "low": {
              "value": 98,
              "code": "mmol/L",
              "system": "http://unitsofmeasure.org"
            }
          },
          {
            "high": {
              "value": 110,
              "code": "mmol/L",
              "system": "http://unitsofmeasure.org"
            }
          }
        ],
        "text": {
          "status": "generated",
          "div": "<div xmlns=\"http://www.w3.org/1999/xhtml\"><table class=\"hl7__eu__lab__report\"><tr><th>Test</th><th>04-Jan-2017</th><th>Reference&#xA0;Range</th><th>Unit</th></tr><tr><td>Chloride [Moles/volume] in Blood</td><td>109.2</td><td>98 - 110</td><td></td><td>mmol/L</td></tr></table></div>"
        },
        "status": "final",
        "subject": {
          "reference": "urn:uuid:2cb67a8c-3fa6-4f5b-a15f-a54704dc7cfa",
          "display": "Θεμιστοκλής Λιναρδάκη"
        },
        "effectiveDateTime": "2017-01-04T06:16:00Z",
        "specimen": {
          "reference": "urn:uuid:b6150a72-4439-4e88-b0f7-adca672c2adf"
        }
      }
    },
    {
      "fullUrl": "urn:uuid:db20d7f3-9d74-42ca-8a8a-cb246a179404",
      "resource": {
        "resourceType": "Observation",
        "id": "db20d7f3-9d74-42ca-8a8a-cb246a179404",
        "meta": {
          "profile": [
            "http://hl7.eu/fhir/laboratory/StructureDefinition/Observation-resultslab-eu-lab"
          ]
        },
        "performer": [
          {
            "display": "The Central European Lab"
          }
        ],
        "category": [
          {
            "coding": [
              {
                "system": "http://terminology.hl7.org/CodeSystem/observation-category",
                "code": "laboratory"
              }
            ]
          }
        ],
        "code": {
          "coding": [
            {
              "code": "20565-8",
              "system": "http://loinc.org",
              "display": "Carbon dioxide, total [Moles/volume] in Blood"
            }
          ],
          "text": "Carbon dioxide, total [Moles/volume] in Blood"
        },
        "valueQuantity": {
          "system": "http://unitsofmeasure.org",
          "value": 26.3,
          "unit": "mmol/L",
          "code": "mmol/L"
        },
        "referenceRange": [
          {
            "low": {
              "value": 22,
              "code": "mmol/L",
              "system": "http://unitsofmeasure.org"
            }
          },
          {
            "high": {
              "value": 29,
              "code": "mmol/L",
              "system": "http://unitsofmeasure.org"
            }
          }
        ],
        "text": {
          "status": "generated",
          "div": "<div xmlns=\"http://www.w3.org/1999/xhtml\"><table class=\"hl7__eu__lab__report\"><tr><th>Test</th><th>04-Jan-2017</th><th>Reference&#xA0;Range</th><th>Unit</th></tr><tr><td>Carbon dioxide, total [Moles/volume] in Blood</td><td>26.3</td><td>22 - 29</td><td></td><td>mmol/L</td></tr></table></div>"
        },
        "status": "final",
        "subject": {
          "reference": "urn:uuid:2cb67a8c-3fa6-4f5b-a15f-a54704dc7cfa",
          "display": "Θεμιστοκλής Λιναρδάκη"
        },
        "effectiveDateTime": "2017-01-04T06:16:00Z",
        "specimen": {
          "reference": "urn:uuid:b6150a72-4439-4e88-b0f7-adca672c2adf"
        }
      }
    },
    {
      "fullUrl": "urn:uuid:f382a1b3-875a-4553-abed-3c862000607d",
      "resource": {
        "resourceType": "Device",
        "id": "f382a1b3-875a-4553-abed-3c862000607d",
        "deviceName": [
          {
            "name": "SYNDERAI Synthetic Generator",
            "type": "manufacturer-name"
          }
        ],
        "version": [
          {
            "value": "5.0"
          }
        ],
        "text": {
          "status": "generated",
          "div": "<div xmlns=\"http://www.w3.org/1999/xhtml\">SYNDERAI Synthetic Generator v5.0</div>"
        },
        "status": "active\"",
        "distinctIdentifier": "synderai-generator-50",
        "manufacturer": "SYNDERAI Project"
      }
    },
    {
      "fullUrl": "urn:uuid:795994c5-9c59-4891-9bfb-d7dcebf42fe2",
      "resource": {
        "resourceType": "Provenance",
        "id": "795994c5-9c59-4891-9bfb-d7dcebf42fe2",
        "target": [
          {
            "reference": "Patient/2cb67a8c-3fa6-4f5b-a15f-a54704dc7cfa"
          },
          {
            "reference": "Bundle/fa8f6622-774c-45f6-93b1-cc94a7d9d501"
          },
          {
            "reference": "Composition/b2cfafb0-c07b-4ceb-838f-43fb8e9d5cba"
          },
          {
            "reference": "PractitionerRole/659e3780-ba9c-4ac1-a420-c9e0c56a5768"
          },
          {
            "reference": "Practitioner/dee1a92c-bab5-487f-ae5d-7956bcf5788b"
          },
          {
            "reference": "PractitionerRole/bed7cc3e-1039-4e8f-bfed-cc2974ac7e10"
          },
          {
            "reference": "Organization/e6dc87d1-ff0c-4021-b373-3a4e1609accf"
          }
        ],
        "activity": {
          "text": "Synthetic Example Data Generation"
        },
        "policy": [
          "https://synderai.net/synderai-synthetic-data-policy"
        ],
        "agent": [
          {
            "type": {
              "text": "author"
            },
            "who": {
              "reference": "Device/f382a1b3-875a-4553-abed-3c862000607d"
            }
          }
        ],
        "reason": [
          {
            "text": "Interoperability Testing and Training (non-clinical use)"
          }
        ],
        "text": {
          "status": "generated",
          "div": "<div xmlns=\"http://www.w3.org/1999/xhtml\">Provenance for SYNDERAI Synthetic Example Data Resource</div>"
        },
        "recorded": "2017-01-04T07:16:00Z"
      }
    },
    {
      "fullUrl": "urn:uuid:659e3780-ba9c-4ac1-a420-c9e0c56a5768",
      "resource": {
        "resourceType": "PractitionerRole",
        "id": "659e3780-ba9c-4ac1-a420-c9e0c56a5768",
        "meta": {
          "profile": [
            "http://hl7.eu/fhir/base/StructureDefinition/practitionerRole-eu"
          ]
        },
        "text": {
          "status": "generated",
          "div": "<div xmlns=\"http://www.w3.org/1999/xhtml\">Laboratory Role Id: 659e3780-ba9c-4ac1-a420-c9e0c56a5768</div>"
        },
        "practitioner": {
          "reference": "urn:uuid:dee1a92c-bab5-487f-ae5d-7956bcf5788b"
        }
      }
    },
    {
      "fullUrl": "urn:uuid:dee1a92c-bab5-487f-ae5d-7956bcf5788b",
      "resource": {
        "resourceType": "Practitioner",
        "id": "dee1a92c-bab5-487f-ae5d-7956bcf5788b",
        "meta": {
          "profile": [
            "http://hl7.eu/fhir/base/StructureDefinition/practitioner-eu"
          ]
        },
        "identifier": [
          {
            "assigner": {
              "display": "HL7 Europe"
            },
            "system": "urn:oid:2.16.840.1.113883.2.51.999",
            "value": "ace9eb14-b255-42ad-a91f-e9e4a7c60a54"
          }
        ],
        "name": [
          {
            "prefix": [
              "dr"
            ],
            "given": [
              "Ex"
            ],
            "family": "Ample"
          }
        ],
        "address": [
          {
            "line": [
              "Laboratoire Central Européenne",
              "Boulevard du Jardin Botanique 32"
            ],
            "postalCode": "1000",
            "city": "Brussels",
            "country": "Belgium"
          }
        ],
        "text": {
          "status": "generated",
          "div": "<div xmlns=\"http://www.w3.org/1999/xhtml\">Laboratory: Laboratoire Central Européenne, 1000 Brussels, Belgium</div>"
        }
      }
    }
  ],
  "type": "document",
  "timestamp": "2017-01-04T07:16:00Z"
}
