{
  "resourceType": "Bundle",
  "id": "ab698466-85a7-45b9-8250-cbac45686c6c",
  "meta": {
    "profile": [
      "http://hl7.eu/fhir/laboratory/StructureDefinition/Bundle-eu-lab"
    ]
  },
  "identifier": {
    "assigner": {
      "display": "HL7 Europe"
    },
    "system": "urn:oid:2.16.840.1.113883.2.51.999",
    "value": "f8818f75-f20b-4d96-99f5-93607c4ffe06"
  },
  "entry": [
    {
      "fullUrl": "urn:uuid:463e7e34-32f3-4503-9e17-db9095864437",
      "resource": {
        "resourceType": "Composition",
        "id": "463e7e34-32f3-4503-9e17-db9095864437",
        "meta": {
          "profile": [
            "http://hl7.eu/fhir/laboratory/StructureDefinition/Composition-eu-lab"
          ]
        },
        "identifier": {
          "assigner": {
            "display": "HL7 Europe"
          },
          "system": "urn:oid:2.16.840.1.113883.2.51.999",
          "value": "27b783b2-be8f-44db-8dcc-6be7a5e1dc0a"
        },
        "author": [
          {
            "reference": "urn:uuid:3e6ebe1f-194a-4e96-9638-933ee3dd5043"
          }
        ],
        "category": [
          {
            "coding": [
              {
                "code": "26436-6",
                "system": "http://loinc.org",
                "display": "Laboratory studies (set)"
              }
            ]
          }
        ],
        "type": {
          "coding": [
            {
              "code": "11502-2",
              "system": "http://loinc.org",
              "display": "Laboratory report"
            }
          ],
          "text": "Laboratory Report"
        },
        "section": [
          {
            "code": {
              "coding": [
                {
                  "code": "26436-6",
                  "system": "http://loinc.org",
                  "display": "Laboratory studies (set)"
                }
              ],
              "text": "Laboratory studies"
            },
            "section": [
              {
                "code": {
                  "coding": [
                    {
                      "code": "$18719-5",
                      "system": "http://loinc.org",
                      "display": "Chemistry studies (set)"
                    }
                  ],
                  "text": "Chemistry"
                },
                "entry": [
                  {
                    "reference": "urn:uuid:74a802d7-b269-495c-b052-2d64cd675eef"
                  },
                  {
                    "reference": "urn:uuid:e854b141-ed94-4bd3-9c35-64c60a74da00"
                  },
                  {
                    "reference": "urn:uuid:375d0169-cbe5-43ee-9a28-8b131a018abd"
                  },
                  {
                    "reference": "urn:uuid:cf94a47e-6082-4092-99ac-52071fe146d4"
                  },
                  {
                    "reference": "urn:uuid:f4ae5575-78ff-4014-863e-867066da093f"
                  },
                  {
                    "reference": "urn:uuid:dcbb2782-c507-439c-9751-40c0d974c25e"
                  },
                  {
                    "reference": "urn:uuid:2d1e5ec0-68be-41bf-af9c-788c19a259cc"
                  },
                  {
                    "reference": "urn:uuid:4ad53775-938e-4277-934c-4597c17e6f86"
                  },
                  {
                    "reference": "urn:uuid:b74fa663-742e-4932-ac00-a0a217e95673"
                  }
                ],
                "text": {
                  "status": "generated",
                  "div": "<div xmlns=\"http://www.w3.org/1999/xhtml\"><h3>Chemistry</h3><table class=\"hl7__eu__lab__report\"><thead><tr><th>Test</th><th>28-NOV-2017</th><th>Reference&#xA0;Range</th><th>Unit</th></tr></thead><tbody><tr><td>Hemoglobin A1c/Hemoglobin.total in Blood</td><td><strong>6.0 H</strong></td><td>4.8 - 5.7</td><td>%</td></tr><tr><td>Glucose [Mass/volume] in Blood</td><td>94.8</td><td>70 - 99</td><td>mg/dL</td></tr><tr><td>Urea nitrogen [Mass/volume] in Blood</td><td>14.9</td><td>7 - 20</td><td>mg/dL</td></tr><tr><td>Creatinine [Mass/volume] in Blood</td><td><strong>1.2 H</strong></td><td>0.6 - 1.1</td><td>mg/dL</td></tr><tr><td>Calcium [Mass/volume] in Blood</td><td>9.0</td><td>8.5 - 10.5</td><td>mg/dL</td></tr><tr><td>Sodium [Moles/volume] in Blood</td><td>136.9</td><td>135 - 145</td><td>mmol/L</td></tr><tr><td>Potassium [Moles/volume] in Blood</td><td>4.2</td><td>3.5 - 5.3</td><td>mmol/L</td></tr><tr><td>Chloride [Moles/volume] in Blood</td><td>105.4</td><td>98 - 114</td><td>mmol/L</td></tr><tr><td>Carbon dioxide, total [Moles/volume] in Blood</td><td>22.2</td><td>22 - 29</td><td>mmol/L</td></tr></tbody></table></div>"
                },
                "title": "Chemistry"
              }
            ],
            "title": "Laboratory Report"
          },
          {
            "text": {
              "status": "generated",
              "div": "<div xmlns=\"http://www.w3.org/1999/xhtml\"><h3>Annotation</h3><table class=\"hl7__eu__lab__report\"><tr><th>Conclusion and Recommendations based on this report and previous findings known to us</th></tr><tr><td>The patient shows mildly elevated HbA1c, indicating impaired glucose metabolism or possible prediabetes. Creatinine is slightly above normal, which may suggest reduced renal function and warrants monitoring. All other parameters are within normal limits. Recommend follow-up for glycemic control and renal function assessment.</td></tr></table></div>"
            },
            "code": {
              "coding": [
                {
                  "system": "http://loinc.org",
                  "code": "48767-8",
                  "display": "Annotation comment"
                }
              ]
            },
            "title": "Annotation comment"
          }
        ],
        "status": "final",
        "subject": {
          "reference": "urn:uuid:4f0820d3-ecab-425e-80c9-92a5d7e037d0",
          "display": "Aniela Sacharczuk"
        },
        "date": "2017-11-28T06:26:59Z",
        "title": "Laboratory Report",
        "confidentiality": "N"
      }
    },
    {
      "fullUrl": "urn:uuid:3128187e-f438-4546-93d8-2ef9078772f4",
      "resource": {
        "resourceType": "DiagnosticReport",
        "id": "3128187e-f438-4546-93d8-2ef9078772f4",
        "meta": {
          "profile": [
            "http://hl7.eu/fhir/laboratory/StructureDefinition/DiagnosticReport-eu-lab"
          ]
        },
        "identifier": [
          {
            "assigner": {
              "display": "HL7 Europe"
            },
            "system": "urn:oid:2.16.840.1.113883.2.51.999",
            "value": "3613d937-e3e5-4ec8-84d5-e1f25f155b93"
          }
        ],
        "extension": [
          {
            "url": "http://hl7.org/fhir/5.0/StructureDefinition/extension-DiagnosticReport.composition",
            "valueReference": {
              "reference": "urn:uuid:27b783b2-be8f-44db-8dcc-6be7a5e1dc0a"
            }
          }
        ],
        "category": [
          {
            "coding": [
              {
                "code": "26436-6",
                "system": "http://loinc.org",
                "display": "Laboratory studies (set)"
              }
            ]
          }
        ],
        "specimen": [
          {
            "reference": "urn:uuid:7c8c5e10-754e-4f0b-895d-06ed13f14c86"
          }
        ],
        "result": [
          {
            "reference": "urn:uuid:74a802d7-b269-495c-b052-2d64cd675eef"
          },
          {
            "reference": "urn:uuid:e854b141-ed94-4bd3-9c35-64c60a74da00"
          },
          {
            "reference": "urn:uuid:375d0169-cbe5-43ee-9a28-8b131a018abd"
          },
          {
            "reference": "urn:uuid:cf94a47e-6082-4092-99ac-52071fe146d4"
          },
          {
            "reference": "urn:uuid:f4ae5575-78ff-4014-863e-867066da093f"
          },
          {
            "reference": "urn:uuid:dcbb2782-c507-439c-9751-40c0d974c25e"
          },
          {
            "reference": "urn:uuid:2d1e5ec0-68be-41bf-af9c-788c19a259cc"
          },
          {
            "reference": "urn:uuid:4ad53775-938e-4277-934c-4597c17e6f86"
          },
          {
            "reference": "urn:uuid:b74fa663-742e-4932-ac00-a0a217e95673"
          }
        ],
        "status": "registered",
        "code": {
          "coding": [
            {
              "code": "11502-2",
              "system": "http://loinc.org",
              "display": "Laboratory report"
            }
          ]
        },
        "subject": {
          "reference": "urn:uuid:4f0820d3-ecab-425e-80c9-92a5d7e037d0",
          "display": "Aniela Sacharczuk"
        }
      }
    },
    {
      "fullUrl": "urn:uuid:4f0820d3-ecab-425e-80c9-92a5d7e037d0",
      "resource": {
        "resourceType": "Patient",
        "id": "4f0820d3-ecab-425e-80c9-92a5d7e037d0",
        "meta": {
          "security": [
            {
              "system": "http://terminology.hl7.org/CodeSystem/v3-ActReason",
              "code": "HTEST"
            },
            {
              "system": "http://terminology.hl7.org/CodeSystem/v3-ActReason",
              "code": "TRAIN"
            }
          ],
          "tag": [
            {
              "system": "https://synderai.net/fhir/CodeSystem/tags",
              "code": "synthetic",
              "display": "SYNDERAI Synthetic data"
            }
          ],
          "profile": [
            "http://hl7.eu/fhir/base/StructureDefinition/patient-eu-core"
          ]
        },
        "identifier": [
          {
            "type": {
              "coding": [
                {
                  "code": "PT",
                  "system": "http://terminology.hl7.org/CodeSystem/v2-0203"
                }
              ]
            },
            "system": "http://ec.europa.eu/identifier/eci",
            "value": "3843-787162-7"
          },
          {
            "type": {
              "coding": [
                {
                  "code": "MR",
                  "system": "http://terminology.hl7.org/CodeSystem/v2-0203"
                }
              ]
            },
            "system": "http://local.setting.eu/identifier",
            "value": "cd2e7aac-e2c0-8306-b862-9ed4c443c8b5"
          }
        ],
        "name": [
          {
            "family": "Sacharczuk"
          },
          {
            "given": [
              "Aniela"
            ]
          },
          {
            "text": "Aniela Sacharczuk"
          }
        ],
        "address": [
          {
            "line": [
              "plac Szpitalna 13"
            ],
            "use": "home",
            "type": "physical",
            "postalCode": "27-600",
            "city": "Sandomierz",
            "country": "Poland"
          }
        ],
        "telecom": [
          {
            "system": "phone",
            "value": "+48 536 227 035"
          }
        ],
        "extension": [
          {
            "url": "http://hl7.org/fhir/StructureDefinition/patient-nationality",
            "valueCodeableConcept": {
              "coding": [
                {
                  "code": "PL",
                  "system": "http://hl7.org/fhir/ValueSet/country"
                }
              ]
            }
          }
        ],
        "text": {
          "status": "generated",
          "div": "<div xmlns=\"http://www.w3.org/1999/xhtml\"><table class=\"hl7__ips\"><tr><td>Aniela Sacharczuk</td><td>female</td><td>02-Nov-1970</td></tr></table></div>"
        },
        "gender": "female",
        "birthDate": "1970-11-02"
      }
    },
    {
      "fullUrl": "urn:uuid:22d6f206-d9d5-4a5d-b4b5-73c4132d4834",
      "resource": {
        "resourceType": "ServiceRequest",
        "id": "22d6f206-d9d5-4a5d-b4b5-73c4132d4834",
        "meta": {
          "profile": [
            "http://hl7.eu/fhir/laboratory/StructureDefinition/ServiceRequest-eu-lab"
          ]
        },
        "identifier": [
          {
            "system": "http://example.org",
            "value": "886566d3-2ba3-4cb9-8809-381d241c9382"
          }
        ],
        "specimen": [
          {
            "reference": "urn:uuid:7c8c5e10-754e-4f0b-895d-06ed13f14c86"
          }
        ],
        "reasonCode": [
          {
            "coding": [
              {
                "code": "237602007",
                "system": "http://snomed.info/sct",
                "display": "Metabolic syndrome X"
              }
            ]
          },
          {
            "coding": [
              {
                "code": "15777000",
                "system": "http://snomed.info/sct",
                "display": "Prediabetes"
              }
            ]
          },
          {
            "coding": [
              {
                "code": "59621000",
                "system": "http://snomed.info/sct",
                "display": "Essential hypertension"
              }
            ]
          }
        ],
        "status": "active",
        "intent": "order",
        "code": {
          "coding": [
            {
              "code": "108252007",
              "system": "http://snomed.info/sct",
              "display": "Laboratory procedure"
            }
          ]
        },
        "subject": {
          "reference": "urn:uuid:4f0820d3-ecab-425e-80c9-92a5d7e037d0",
          "display": "Aniela Sacharczuk"
        },
        "requester": {
          "reference": "urn:uuid:9dfd1fe6-959a-446a-a34b-41ef3683fcdb"
        }
      }
    },
    {
      "fullUrl": "urn:uuid:9dfd1fe6-959a-446a-a34b-41ef3683fcdb",
      "resource": {
        "resourceType": "PractitionerRole",
        "id": "9dfd1fe6-959a-446a-a34b-41ef3683fcdb",
        "meta": {
          "profile": [
            "http://hl7.eu/fhir/base/StructureDefinition/practitionerRole-eu"
          ]
        },
        "text": {
          "status": "generated",
          "div": "<div xmlns=\"http://www.w3.org/1999/xhtml\">Provider Role Id: 9dfd1fe6-959a-446a-a34b-41ef3683fcdb</div>"
        },
        "organization": {
          "reference": "urn:uuid:af34baba-1e7c-426e-8287-c184a0da9aa4"
        }
      }
    },
    {
      "fullUrl": "urn:uuid:af34baba-1e7c-426e-8287-c184a0da9aa4",
      "resource": {
        "resourceType": "Organization",
        "id": "af34baba-1e7c-426e-8287-c184a0da9aa4",
        "meta": {
          "profile": [
            "http://hl7.eu/fhir/base/StructureDefinition/organization-eu"
          ]
        },
        "identifier": [
          {
            "assigner": {
              "display": "HL7 Europe"
            },
            "system": "urn:oid:2.16.840.1.113883.2.51.999",
            "value": "5dbca571-201b-498c-91dc-02317ff6611b"
          }
        ],
        "address": [
          {
            "line": [
              "Józefa Piłsudskiego 17"
            ],
            "city": "Gorzyce",
            "postalCode": "39-432",
            "country": "Poland"
          }
        ],
        "text": {
          "status": "generated",
          "div": "<div xmlns=\"http://www.w3.org/1999/xhtml\">Provider Organization: Ośrodek Zdrowia</div>"
        },
        "name": "Ośrodek Zdrowia"
      }
    },
    {
      "fullUrl": "urn:uuid:7c8c5e10-754e-4f0b-895d-06ed13f14c86",
      "resource": {
        "resourceType": "Specimen",
        "id": "7c8c5e10-754e-4f0b-895d-06ed13f14c86",
        "meta": {
          "profile": [
            "http://hl7.eu/fhir/laboratory/StructureDefinition/Specimen-eu-lab"
          ]
        },
        "collection": {
          "collectedDateTime": "2017-11-28"
        },
        "text": {
          "status": "generated",
          "div": "<div xmlns=\"http://www.w3.org/1999/xhtml\"><table class=\"hl7__eu__lab__report\"><tr><th>Specimen</th><th>Collection Date</th></tr><tr><td>Whole blood specimen (specimen)</td><td><span class=\"nb\">28-Nov-2017</span></td></tr></table></div>"
        },
        "type": {
          "coding": [
            {
              "code": "258580003",
              "system": "http://snomed.info/sct",
              "display": "Whole blood specimen (specimen)"
            }
          ]
        }
      }
    },
    {
      "fullUrl": "urn:uuid:74a802d7-b269-495c-b052-2d64cd675eef",
      "resource": {
        "resourceType": "Observation",
        "id": "74a802d7-b269-495c-b052-2d64cd675eef",
        "meta": {
          "profile": [
            "http://hl7.eu/fhir/laboratory/StructureDefinition/Observation-resultslab-eu-lab"
          ]
        },
        "performer": [
          {
            "display": "The Central European Lab"
          }
        ],
        "category": [
          {
            "coding": [
              {
                "system": "http://terminology.hl7.org/CodeSystem/observation-category",
                "code": "laboratory"
              }
            ]
          }
        ],
        "code": {
          "coding": [
            {
              "code": "4548-4",
              "system": "http://loinc.org",
              "display": "Hemoglobin A1c/Hemoglobin.total in Blood"
            }
          ],
          "text": "Hemoglobin A1c/Hemoglobin.total in Blood"
        },
        "valueQuantity": {
          "system": "http://unitsofmeasure.org",
          "value": 6,
          "unit": "%",
          "code": "%"
        },
        "referenceRange": [
          {
            "low": {
              "value": 4.8,
              "code": "%",
              "system": "http://unitsofmeasure.org"
            }
          },
          {
            "high": {
              "value": 5.7,
              "code": "%",
              "system": "http://unitsofmeasure.org"
            }
          }
        ],
        "interpretation": [
          {
            "coding": [
              {
                "code": "H",
                "system": "http://terminology.hl7.org/CodeSystem/v3-ObservationInterpretation",
                "display": "High"
              }
            ]
          }
        ],
        "text": {
          "status": "generated",
          "div": "<div xmlns=\"http://www.w3.org/1999/xhtml\"><table class=\"hl7__eu__lab__report\"><tr><th>Test</th><th>28-Nov-2017</th><th>Reference&#xA0;Range</th><th>Unit</th></tr><tr><td>Hemoglobin A1c/Hemoglobin.total in Blood</td><td>6.0</td><td>4.8 - 5.7</td><td>H</td><td>%</td></tr></table></div>"
        },
        "status": "final",
        "subject": {
          "reference": "urn:uuid:4f0820d3-ecab-425e-80c9-92a5d7e037d0",
          "display": "Aniela Sacharczuk"
        },
        "effectiveDateTime": "2017-11-28T05:26:59Z",
        "specimen": {
          "reference": "urn:uuid:7c8c5e10-754e-4f0b-895d-06ed13f14c86"
        }
      }
    },
    {
      "fullUrl": "urn:uuid:e854b141-ed94-4bd3-9c35-64c60a74da00",
      "resource": {
        "resourceType": "Observation",
        "id": "e854b141-ed94-4bd3-9c35-64c60a74da00",
        "meta": {
          "profile": [
            "http://hl7.eu/fhir/laboratory/StructureDefinition/Observation-resultslab-eu-lab"
          ]
        },
        "performer": [
          {
            "display": "The Central European Lab"
          }
        ],
        "category": [
          {
            "coding": [
              {
                "system": "http://terminology.hl7.org/CodeSystem/observation-category",
                "code": "laboratory"
              }
            ]
          }
        ],
        "code": {
          "coding": [
            {
              "code": "2339-0",
              "system": "http://loinc.org",
              "display": "Glucose [Mass/volume] in Blood"
            }
          ],
          "text": "Glucose [Mass/volume] in Blood"
        },
        "valueQuantity": {
          "system": "http://unitsofmeasure.org",
          "value": 94.8,
          "unit": "mg/dL",
          "code": "mg/dL"
        },
        "referenceRange": [
          {
            "low": {
              "value": 70,
              "code": "mg/dL",
              "system": "http://unitsofmeasure.org"
            }
          },
          {
            "high": {
              "value": 99,
              "code": "mg/dL",
              "system": "http://unitsofmeasure.org"
            }
          }
        ],
        "text": {
          "status": "generated",
          "div": "<div xmlns=\"http://www.w3.org/1999/xhtml\"><table class=\"hl7__eu__lab__report\"><tr><th>Test</th><th>28-Nov-2017</th><th>Reference&#xA0;Range</th><th>Unit</th></tr><tr><td>Glucose [Mass/volume] in Blood</td><td>94.8</td><td>70 - 99</td><td></td><td>mg/dL</td></tr></table></div>"
        },
        "status": "final",
        "subject": {
          "reference": "urn:uuid:4f0820d3-ecab-425e-80c9-92a5d7e037d0",
          "display": "Aniela Sacharczuk"
        },
        "effectiveDateTime": "2017-11-28T05:26:59Z",
        "specimen": {
          "reference": "urn:uuid:7c8c5e10-754e-4f0b-895d-06ed13f14c86"
        }
      }
    },
    {
      "fullUrl": "urn:uuid:375d0169-cbe5-43ee-9a28-8b131a018abd",
      "resource": {
        "resourceType": "Observation",
        "id": "375d0169-cbe5-43ee-9a28-8b131a018abd",
        "meta": {
          "profile": [
            "http://hl7.eu/fhir/laboratory/StructureDefinition/Observation-resultslab-eu-lab"
          ]
        },
        "performer": [
          {
            "display": "The Central European Lab"
          }
        ],
        "category": [
          {
            "coding": [
              {
                "system": "http://terminology.hl7.org/CodeSystem/observation-category",
                "code": "laboratory"
              }
            ]
          }
        ],
        "code": {
          "coding": [
            {
              "code": "6299-2",
              "system": "http://loinc.org",
              "display": "Urea nitrogen [Mass/volume] in Blood"
            }
          ],
          "text": "Urea nitrogen [Mass/volume] in Blood"
        },
        "valueQuantity": {
          "system": "http://unitsofmeasure.org",
          "value": 14.9,
          "unit": "mg/dL",
          "code": "mg/dL"
        },
        "referenceRange": [
          {
            "low": {
              "value": 7,
              "code": "mg/dL",
              "system": "http://unitsofmeasure.org"
            }
          },
          {
            "high": {
              "value": 20,
              "code": "mg/dL",
              "system": "http://unitsofmeasure.org"
            }
          }
        ],
        "text": {
          "status": "generated",
          "div": "<div xmlns=\"http://www.w3.org/1999/xhtml\"><table class=\"hl7__eu__lab__report\"><tr><th>Test</th><th>28-Nov-2017</th><th>Reference&#xA0;Range</th><th>Unit</th></tr><tr><td>Urea nitrogen [Mass/volume] in Blood</td><td>14.9</td><td>7 - 20</td><td></td><td>mg/dL</td></tr></table></div>"
        },
        "status": "final",
        "subject": {
          "reference": "urn:uuid:4f0820d3-ecab-425e-80c9-92a5d7e037d0",
          "display": "Aniela Sacharczuk"
        },
        "effectiveDateTime": "2017-11-28T05:26:59Z",
        "specimen": {
          "reference": "urn:uuid:7c8c5e10-754e-4f0b-895d-06ed13f14c86"
        }
      }
    },
    {
      "fullUrl": "urn:uuid:cf94a47e-6082-4092-99ac-52071fe146d4",
      "resource": {
        "resourceType": "Observation",
        "id": "cf94a47e-6082-4092-99ac-52071fe146d4",
        "meta": {
          "profile": [
            "http://hl7.eu/fhir/laboratory/StructureDefinition/Observation-resultslab-eu-lab"
          ]
        },
        "performer": [
          {
            "display": "The Central European Lab"
          }
        ],
        "category": [
          {
            "coding": [
              {
                "system": "http://terminology.hl7.org/CodeSystem/observation-category",
                "code": "laboratory"
              }
            ]
          }
        ],
        "code": {
          "coding": [
            {
              "code": "38483-4",
              "system": "http://loinc.org",
              "display": "Creatinine [Mass/volume] in Blood"
            }
          ],
          "text": "Creatinine [Mass/volume] in Blood"
        },
        "valueQuantity": {
          "system": "http://unitsofmeasure.org",
          "value": 1.2,
          "unit": "mg/dL",
          "code": "mg/dL"
        },
        "referenceRange": [
          {
            "low": {
              "value": 0.6,
              "code": "mg/dL",
              "system": "http://unitsofmeasure.org"
            }
          },
          {
            "high": {
              "value": 1.1,
              "code": "mg/dL",
              "system": "http://unitsofmeasure.org"
            }
          }
        ],
        "interpretation": [
          {
            "coding": [
              {
                "code": "H",
                "system": "http://terminology.hl7.org/CodeSystem/v3-ObservationInterpretation",
                "display": "High"
              }
            ]
          }
        ],
        "text": {
          "status": "generated",
          "div": "<div xmlns=\"http://www.w3.org/1999/xhtml\"><table class=\"hl7__eu__lab__report\"><tr><th>Test</th><th>28-Nov-2017</th><th>Reference&#xA0;Range</th><th>Unit</th></tr><tr><td>Creatinine [Mass/volume] in Blood</td><td>1.2</td><td>0.6 - 1.1</td><td>H</td><td>mg/dL</td></tr></table></div>"
        },
        "status": "final",
        "subject": {
          "reference": "urn:uuid:4f0820d3-ecab-425e-80c9-92a5d7e037d0",
          "display": "Aniela Sacharczuk"
        },
        "effectiveDateTime": "2017-11-28T05:26:59Z",
        "specimen": {
          "reference": "urn:uuid:7c8c5e10-754e-4f0b-895d-06ed13f14c86"
        }
      }
    },
    {
      "fullUrl": "urn:uuid:f4ae5575-78ff-4014-863e-867066da093f",
      "resource": {
        "resourceType": "Observation",
        "id": "f4ae5575-78ff-4014-863e-867066da093f",
        "meta": {
          "profile": [
            "http://hl7.eu/fhir/laboratory/StructureDefinition/Observation-resultslab-eu-lab"
          ]
        },
        "performer": [
          {
            "display": "The Central European Lab"
          }
        ],
        "category": [
          {
            "coding": [
              {
                "system": "http://terminology.hl7.org/CodeSystem/observation-category",
                "code": "laboratory"
              }
            ]
          }
        ],
        "code": {
          "coding": [
            {
              "code": "49765-1",
              "system": "http://loinc.org",
              "display": "Calcium [Mass/volume] in Blood"
            }
          ],
          "text": "Calcium [Mass/volume] in Blood"
        },
        "valueQuantity": {
          "system": "http://unitsofmeasure.org",
          "value": 9,
          "unit": "mg/dL",
          "code": "mg/dL"
        },
        "referenceRange": [
          {
            "low": {
              "value": 8.5,
              "code": "mg/dL",
              "system": "http://unitsofmeasure.org"
            }
          },
          {
            "high": {
              "value": 10.5,
              "code": "mg/dL",
              "system": "http://unitsofmeasure.org"
            }
          }
        ],
        "text": {
          "status": "generated",
          "div": "<div xmlns=\"http://www.w3.org/1999/xhtml\"><table class=\"hl7__eu__lab__report\"><tr><th>Test</th><th>28-Nov-2017</th><th>Reference&#xA0;Range</th><th>Unit</th></tr><tr><td>Calcium [Mass/volume] in Blood</td><td>9.0</td><td>8.5 - 10.5</td><td></td><td>mg/dL</td></tr></table></div>"
        },
        "status": "final",
        "subject": {
          "reference": "urn:uuid:4f0820d3-ecab-425e-80c9-92a5d7e037d0",
          "display": "Aniela Sacharczuk"
        },
        "effectiveDateTime": "2017-11-28T05:26:59Z",
        "specimen": {
          "reference": "urn:uuid:7c8c5e10-754e-4f0b-895d-06ed13f14c86"
        }
      }
    },
    {
      "fullUrl": "urn:uuid:dcbb2782-c507-439c-9751-40c0d974c25e",
      "resource": {
        "resourceType": "Observation",
        "id": "dcbb2782-c507-439c-9751-40c0d974c25e",
        "meta": {
          "profile": [
            "http://hl7.eu/fhir/laboratory/StructureDefinition/Observation-resultslab-eu-lab"
          ]
        },
        "performer": [
          {
            "display": "The Central European Lab"
          }
        ],
        "category": [
          {
            "coding": [
              {
                "system": "http://terminology.hl7.org/CodeSystem/observation-category",
                "code": "laboratory"
              }
            ]
          }
        ],
        "code": {
          "coding": [
            {
              "code": "2947-0",
              "system": "http://loinc.org",
              "display": "Sodium [Moles/volume] in Blood"
            }
          ],
          "text": "Sodium [Moles/volume] in Blood"
        },
        "valueQuantity": {
          "system": "http://unitsofmeasure.org",
          "value": 136.9,
          "unit": "mmol/L",
          "code": "mmol/L"
        },
        "referenceRange": [
          {
            "low": {
              "value": 135,
              "code": "mmol/L",
              "system": "http://unitsofmeasure.org"
            }
          },
          {
            "high": {
              "value": 145,
              "code": "mmol/L",
              "system": "http://unitsofmeasure.org"
            }
          }
        ],
        "text": {
          "status": "generated",
          "div": "<div xmlns=\"http://www.w3.org/1999/xhtml\"><table class=\"hl7__eu__lab__report\"><tr><th>Test</th><th>28-Nov-2017</th><th>Reference&#xA0;Range</th><th>Unit</th></tr><tr><td>Sodium [Moles/volume] in Blood</td><td>136.9</td><td>135 - 145</td><td></td><td>mmol/L</td></tr></table></div>"
        },
        "status": "final",
        "subject": {
          "reference": "urn:uuid:4f0820d3-ecab-425e-80c9-92a5d7e037d0",
          "display": "Aniela Sacharczuk"
        },
        "effectiveDateTime": "2017-11-28T05:26:59Z",
        "specimen": {
          "reference": "urn:uuid:7c8c5e10-754e-4f0b-895d-06ed13f14c86"
        }
      }
    },
    {
      "fullUrl": "urn:uuid:2d1e5ec0-68be-41bf-af9c-788c19a259cc",
      "resource": {
        "resourceType": "Observation",
        "id": "2d1e5ec0-68be-41bf-af9c-788c19a259cc",
        "meta": {
          "profile": [
            "http://hl7.eu/fhir/laboratory/StructureDefinition/Observation-resultslab-eu-lab"
          ]
        },
        "performer": [
          {
            "display": "The Central European Lab"
          }
        ],
        "category": [
          {
            "coding": [
              {
                "system": "http://terminology.hl7.org/CodeSystem/observation-category",
                "code": "laboratory"
              }
            ]
          }
        ],
        "code": {
          "coding": [
            {
              "code": "6298-4",
              "system": "http://loinc.org",
              "display": "Potassium [Moles/volume] in Blood"
            }
          ],
          "text": "Potassium [Moles/volume] in Blood"
        },
        "valueQuantity": {
          "system": "http://unitsofmeasure.org",
          "value": 4.2,
          "unit": "mmol/L",
          "code": "mmol/L"
        },
        "referenceRange": [
          {
            "low": {
              "value": 3.5,
              "code": "mmol/L",
              "system": "http://unitsofmeasure.org"
            }
          },
          {
            "high": {
              "value": 5.3,
              "code": "mmol/L",
              "system": "http://unitsofmeasure.org"
            }
          }
        ],
        "text": {
          "status": "generated",
          "div": "<div xmlns=\"http://www.w3.org/1999/xhtml\"><table class=\"hl7__eu__lab__report\"><tr><th>Test</th><th>28-Nov-2017</th><th>Reference&#xA0;Range</th><th>Unit</th></tr><tr><td>Potassium [Moles/volume] in Blood</td><td>4.2</td><td>3.5 - 5.3</td><td></td><td>mmol/L</td></tr></table></div>"
        },
        "status": "final",
        "subject": {
          "reference": "urn:uuid:4f0820d3-ecab-425e-80c9-92a5d7e037d0",
          "display": "Aniela Sacharczuk"
        },
        "effectiveDateTime": "2017-11-28T05:26:59Z",
        "specimen": {
          "reference": "urn:uuid:7c8c5e10-754e-4f0b-895d-06ed13f14c86"
        }
      }
    },
    {
      "fullUrl": "urn:uuid:4ad53775-938e-4277-934c-4597c17e6f86",
      "resource": {
        "resourceType": "Observation",
        "id": "4ad53775-938e-4277-934c-4597c17e6f86",
        "meta": {
          "profile": [
            "http://hl7.eu/fhir/laboratory/StructureDefinition/Observation-resultslab-eu-lab"
          ]
        },
        "performer": [
          {
            "display": "The Central European Lab"
          }
        ],
        "category": [
          {
            "coding": [
              {
                "system": "http://terminology.hl7.org/CodeSystem/observation-category",
                "code": "laboratory"
              }
            ]
          }
        ],
        "code": {
          "coding": [
            {
              "code": "2069-3",
              "system": "http://loinc.org",
              "display": "Chloride [Moles/volume] in Blood"
            }
          ],
          "text": "Chloride [Moles/volume] in Blood"
        },
        "valueQuantity": {
          "system": "http://unitsofmeasure.org",
          "value": 105.4,
          "unit": "mmol/L",
          "code": "mmol/L"
        },
        "referenceRange": [
          {
            "low": {
              "value": 98,
              "code": "mmol/L",
              "system": "http://unitsofmeasure.org"
            }
          },
          {
            "high": {
              "value": 114,
              "code": "mmol/L",
              "system": "http://unitsofmeasure.org"
            }
          }
        ],
        "text": {
          "status": "generated",
          "div": "<div xmlns=\"http://www.w3.org/1999/xhtml\"><table class=\"hl7__eu__lab__report\"><tr><th>Test</th><th>28-Nov-2017</th><th>Reference&#xA0;Range</th><th>Unit</th></tr><tr><td>Chloride [Moles/volume] in Blood</td><td>105.4</td><td>98 - 114</td><td></td><td>mmol/L</td></tr></table></div>"
        },
        "status": "final",
        "subject": {
          "reference": "urn:uuid:4f0820d3-ecab-425e-80c9-92a5d7e037d0",
          "display": "Aniela Sacharczuk"
        },
        "effectiveDateTime": "2017-11-28T05:26:59Z",
        "specimen": {
          "reference": "urn:uuid:7c8c5e10-754e-4f0b-895d-06ed13f14c86"
        }
      }
    },
    {
      "fullUrl": "urn:uuid:b74fa663-742e-4932-ac00-a0a217e95673",
      "resource": {
        "resourceType": "Observation",
        "id": "b74fa663-742e-4932-ac00-a0a217e95673",
        "meta": {
          "profile": [
            "http://hl7.eu/fhir/laboratory/StructureDefinition/Observation-resultslab-eu-lab"
          ]
        },
        "performer": [
          {
            "display": "The Central European Lab"
          }
        ],
        "category": [
          {
            "coding": [
              {
                "system": "http://terminology.hl7.org/CodeSystem/observation-category",
                "code": "laboratory"
              }
            ]
          }
        ],
        "code": {
          "coding": [
            {
              "code": "20565-8",
              "system": "http://loinc.org",
              "display": "Carbon dioxide, total [Moles/volume] in Blood"
            }
          ],
          "text": "Carbon dioxide, total [Moles/volume] in Blood"
        },
        "valueQuantity": {
          "system": "http://unitsofmeasure.org",
          "value": 22.2,
          "unit": "mmol/L",
          "code": "mmol/L"
        },
        "referenceRange": [
          {
            "low": {
              "value": 22,
              "code": "mmol/L",
              "system": "http://unitsofmeasure.org"
            }
          },
          {
            "high": {
              "value": 29,
              "code": "mmol/L",
              "system": "http://unitsofmeasure.org"
            }
          }
        ],
        "text": {
          "status": "generated",
          "div": "<div xmlns=\"http://www.w3.org/1999/xhtml\"><table class=\"hl7__eu__lab__report\"><tr><th>Test</th><th>28-Nov-2017</th><th>Reference&#xA0;Range</th><th>Unit</th></tr><tr><td>Carbon dioxide, total [Moles/volume] in Blood</td><td>22.2</td><td>22 - 29</td><td></td><td>mmol/L</td></tr></table></div>"
        },
        "status": "final",
        "subject": {
          "reference": "urn:uuid:4f0820d3-ecab-425e-80c9-92a5d7e037d0",
          "display": "Aniela Sacharczuk"
        },
        "effectiveDateTime": "2017-11-28T05:26:59Z",
        "specimen": {
          "reference": "urn:uuid:7c8c5e10-754e-4f0b-895d-06ed13f14c86"
        }
      }
    },
    {
      "fullUrl": "urn:uuid:1ccde4a7-3b46-4a2d-a142-a4efb70335e8",
      "resource": {
        "resourceType": "Device",
        "id": "1ccde4a7-3b46-4a2d-a142-a4efb70335e8",
        "deviceName": [
          {
            "name": "SYNDERAI Synthetic Generator",
            "type": "manufacturer-name"
          }
        ],
        "version": [
          {
            "value": "5.0"
          }
        ],
        "text": {
          "status": "generated",
          "div": "<div xmlns=\"http://www.w3.org/1999/xhtml\">SYNDERAI Synthetic Generator v5.0</div>"
        },
        "status": "active\"",
        "distinctIdentifier": "synderai-generator-50",
        "manufacturer": "SYNDERAI Project"
      }
    },
    {
      "fullUrl": "urn:uuid:2ea419a4-6cf7-44a4-9d77-f78fe1423782",
      "resource": {
        "resourceType": "Provenance",
        "id": "2ea419a4-6cf7-44a4-9d77-f78fe1423782",
        "target": [
          {
            "reference": "Patient/4f0820d3-ecab-425e-80c9-92a5d7e037d0"
          },
          {
            "reference": "Bundle/ab698466-85a7-45b9-8250-cbac45686c6c"
          },
          {
            "reference": "Composition/463e7e34-32f3-4503-9e17-db9095864437"
          },
          {
            "reference": "PractitionerRole/3e6ebe1f-194a-4e96-9638-933ee3dd5043"
          },
          {
            "reference": "Practitioner/de80d1c0-bad8-45ab-9d95-242aa5f251c0"
          },
          {
            "reference": "PractitionerRole/9dfd1fe6-959a-446a-a34b-41ef3683fcdb"
          },
          {
            "reference": "Organization/af34baba-1e7c-426e-8287-c184a0da9aa4"
          }
        ],
        "activity": {
          "text": "Synthetic Example Data Generation"
        },
        "policy": [
          "https://synderai.net/synderai-synthetic-data-policy"
        ],
        "agent": [
          {
            "type": {
              "text": "author"
            },
            "who": {
              "reference": "Device/1ccde4a7-3b46-4a2d-a142-a4efb70335e8"
            }
          }
        ],
        "reason": [
          {
            "text": "Interoperability Testing and Training (non-clinical use)"
          }
        ],
        "text": {
          "status": "generated",
          "div": "<div xmlns=\"http://www.w3.org/1999/xhtml\">Provenance for SYNDERAI Synthetic Example Data Resource</div>"
        },
        "recorded": "2017-11-28T06:26:59Z"
      }
    },
    {
      "fullUrl": "urn:uuid:3e6ebe1f-194a-4e96-9638-933ee3dd5043",
      "resource": {
        "resourceType": "PractitionerRole",
        "id": "3e6ebe1f-194a-4e96-9638-933ee3dd5043",
        "meta": {
          "profile": [
            "http://hl7.eu/fhir/base/StructureDefinition/practitionerRole-eu"
          ]
        },
        "text": {
          "status": "generated",
          "div": "<div xmlns=\"http://www.w3.org/1999/xhtml\">Laboratory Role Id: 3e6ebe1f-194a-4e96-9638-933ee3dd5043</div>"
        },
        "practitioner": {
          "reference": "urn:uuid:de80d1c0-bad8-45ab-9d95-242aa5f251c0"
        }
      }
    },
    {
      "fullUrl": "urn:uuid:de80d1c0-bad8-45ab-9d95-242aa5f251c0",
      "resource": {
        "resourceType": "Practitioner",
        "id": "de80d1c0-bad8-45ab-9d95-242aa5f251c0",
        "meta": {
          "profile": [
            "http://hl7.eu/fhir/base/StructureDefinition/practitioner-eu"
          ]
        },
        "identifier": [
          {
            "assigner": {
              "display": "HL7 Europe"
            },
            "system": "urn:oid:2.16.840.1.113883.2.51.999",
            "value": "77a5c034-8405-4576-9661-cf7a26a48976"
          }
        ],
        "name": [
          {
            "prefix": [
              "dr"
            ],
            "given": [
              "Ex"
            ],
            "family": "Ample"
          }
        ],
        "address": [
          {
            "line": [
              "Laboratoire Central Européenne",
              "Boulevard du Jardin Botanique 32"
            ],
            "postalCode": "1000",
            "city": "Brussels",
            "country": "Belgium"
          }
        ],
        "text": {
          "status": "generated",
          "div": "<div xmlns=\"http://www.w3.org/1999/xhtml\">Laboratory: Laboratoire Central Européenne, 1000 Brussels, Belgium</div>"
        }
      }
    }
  ],
  "type": "document",
  "timestamp": "2017-11-28T06:26:59Z"
}
