{
  "resourceType": "Bundle",
  "id": "146c9773-f2d0-4999-8a77-bb762540b19a",
  "meta": {
    "profile": [
      "http://hl7.eu/fhir/laboratory/StructureDefinition/Bundle-eu-lab"
    ]
  },
  "identifier": {
    "assigner": {
      "display": "HL7 Europe"
    },
    "system": "urn:oid:2.16.840.1.113883.2.51.999",
    "value": "3975d209-a166-4b79-8189-d3f1ed773f48"
  },
  "entry": [
    {
      "fullUrl": "urn:uuid:db034b7d-0fe3-40a0-ba97-628a4fa6282f",
      "resource": {
        "resourceType": "Composition",
        "id": "db034b7d-0fe3-40a0-ba97-628a4fa6282f",
        "meta": {
          "profile": [
            "http://hl7.eu/fhir/laboratory/StructureDefinition/Composition-eu-lab"
          ]
        },
        "identifier": {
          "assigner": {
            "display": "HL7 Europe"
          },
          "system": "urn:oid:2.16.840.1.113883.2.51.999",
          "value": "ce3268e5-6794-4607-b3d6-b3661885d087"
        },
        "author": [
          {
            "reference": "urn:uuid:ab0dfe52-beb6-453e-9248-a28df684470b"
          }
        ],
        "category": [
          {
            "coding": [
              {
                "code": "26436-6",
                "system": "http://loinc.org",
                "display": "Laboratory studies (set)"
              }
            ]
          }
        ],
        "type": {
          "coding": [
            {
              "code": "11502-2",
              "system": "http://loinc.org",
              "display": "Laboratory report"
            }
          ],
          "text": "Laboratory Report"
        },
        "section": [
          {
            "code": {
              "coding": [
                {
                  "code": "26436-6",
                  "system": "http://loinc.org",
                  "display": "Laboratory studies (set)"
                }
              ],
              "text": "Laboratory studies"
            },
            "section": [
              {
                "code": {
                  "coding": [
                    {
                      "code": "$18719-5",
                      "system": "http://loinc.org",
                      "display": "Chemistry studies (set)"
                    }
                  ],
                  "text": "Chemistry"
                },
                "entry": [
                  {
                    "reference": "urn:uuid:72e7bd47-8922-415c-b7c0-021c257ead53"
                  },
                  {
                    "reference": "urn:uuid:bd09f006-4b9f-4a08-b945-032ade6050fc"
                  },
                  {
                    "reference": "urn:uuid:598786ae-8d7c-4328-82b7-fb8e0908b4c1"
                  },
                  {
                    "reference": "urn:uuid:1850280f-dbe3-44a1-b907-76b8a993f892"
                  }
                ],
                "text": {
                  "status": "generated",
                  "div": "<div xmlns=\"http://www.w3.org/1999/xhtml\"><h3>Chemistry</h3><table class=\"hl7__eu__lab__report\"><thead><tr><th>Test</th><th>16-JAN-2022</th><th>Reference&#xA0;Range</th><th>Unit</th></tr></thead><tbody><tr><td>Cholesterol [Mass/volume] in Serum or Plasma</td><td><strong>236.9 H</strong></td><td>125 - 200</td><td>mg/dL</td></tr><tr><td>Triglyceride [Mass/volume] in Serum or Plasma</td><td>146.8</td><td>0 - 150</td><td>mg/dL</td></tr><tr><td>Cholesterol in LDL [Mass/volume] in Serum or Plasma by Direct assay</td><td><strong>185.6 H</strong></td><td>0 - 130</td><td>mg/dL</td></tr><tr><td>Cholesterol in HDL [Mass/volume] in Serum or Plasma</td><td><strong>21.9 L</strong></td><td>40 - 160</td><td>mg/dL</td></tr></tbody></table></div>"
                },
                "title": "Chemistry"
              }
            ],
            "title": "Laboratory Report"
          },
          {
            "text": {
              "status": "generated",
              "div": "<div xmlns=\"http://www.w3.org/1999/xhtml\"><h3>Annotation</h3><table class=\"hl7__eu__lab__report\"><tr><th>Conclusion and Recommendations based on this report and previous findings known to us</th></tr><tr><td>The patient shows dyslipidemia with elevated total and LDL cholesterol, and markedly low HDL cholesterol. These findings indicate increased cardiovascular risk. Clinical correlation and consideration of lifestyle modification and/or lipid-lowering therapy are recommended.</td></tr></table></div>"
            },
            "code": {
              "coding": [
                {
                  "system": "http://loinc.org",
                  "code": "48767-8",
                  "display": "Annotation comment"
                }
              ]
            },
            "title": "Annotation comment"
          }
        ],
        "status": "final",
        "subject": {
          "reference": "urn:uuid:7b8c443f-d356-44ec-b4a2-86d8e63d25a9",
          "display": "Jason Forster"
        },
        "date": "2022-01-16T11:37:02Z",
        "title": "Laboratory Report",
        "confidentiality": "N"
      }
    },
    {
      "fullUrl": "urn:uuid:34fe7d87-7818-4393-b7e0-8c89d7a6db06",
      "resource": {
        "resourceType": "DiagnosticReport",
        "id": "34fe7d87-7818-4393-b7e0-8c89d7a6db06",
        "meta": {
          "profile": [
            "http://hl7.eu/fhir/laboratory/StructureDefinition/DiagnosticReport-eu-lab"
          ]
        },
        "identifier": [
          {
            "assigner": {
              "display": "HL7 Europe"
            },
            "system": "urn:oid:2.16.840.1.113883.2.51.999",
            "value": "984a18de-ab91-4992-8e3e-e6e38f4d95d3"
          }
        ],
        "extension": [
          {
            "url": "http://hl7.org/fhir/5.0/StructureDefinition/extension-DiagnosticReport.composition",
            "valueReference": {
              "reference": "urn:uuid:ce3268e5-6794-4607-b3d6-b3661885d087"
            }
          }
        ],
        "category": [
          {
            "coding": [
              {
                "code": "26436-6",
                "system": "http://loinc.org",
                "display": "Laboratory studies (set)"
              }
            ]
          }
        ],
        "specimen": [
          {
            "reference": "urn:uuid:9ccf5017-43aa-46d8-b0ae-87c49facfb42"
          }
        ],
        "result": [
          {
            "reference": "urn:uuid:72e7bd47-8922-415c-b7c0-021c257ead53"
          },
          {
            "reference": "urn:uuid:bd09f006-4b9f-4a08-b945-032ade6050fc"
          },
          {
            "reference": "urn:uuid:598786ae-8d7c-4328-82b7-fb8e0908b4c1"
          },
          {
            "reference": "urn:uuid:1850280f-dbe3-44a1-b907-76b8a993f892"
          }
        ],
        "status": "registered",
        "code": {
          "coding": [
            {
              "code": "11502-2",
              "system": "http://loinc.org",
              "display": "Laboratory report"
            }
          ]
        },
        "subject": {
          "reference": "urn:uuid:7b8c443f-d356-44ec-b4a2-86d8e63d25a9",
          "display": "Jason Forster"
        }
      }
    },
    {
      "fullUrl": "urn:uuid:7b8c443f-d356-44ec-b4a2-86d8e63d25a9",
      "resource": {
        "resourceType": "Patient",
        "id": "7b8c443f-d356-44ec-b4a2-86d8e63d25a9",
        "meta": {
          "security": [
            {
              "system": "http://terminology.hl7.org/CodeSystem/v3-ActReason",
              "code": "HTEST"
            },
            {
              "system": "http://terminology.hl7.org/CodeSystem/v3-ActReason",
              "code": "TRAIN"
            }
          ],
          "tag": [
            {
              "system": "https://synderai.net/fhir/CodeSystem/tags",
              "code": "synthetic",
              "display": "SYNDERAI Synthetic data"
            }
          ],
          "profile": [
            "http://hl7.eu/fhir/base/StructureDefinition/patient-eu-core"
          ]
        },
        "identifier": [
          {
            "type": {
              "coding": [
                {
                  "code": "PT",
                  "system": "http://terminology.hl7.org/CodeSystem/v2-0203"
                }
              ]
            },
            "system": "http://ec.europa.eu/identifier/eci",
            "value": "2238-744377-7"
          },
          {
            "type": {
              "coding": [
                {
                  "code": "MR",
                  "system": "http://terminology.hl7.org/CodeSystem/v2-0203"
                }
              ]
            },
            "system": "http://local.setting.eu/identifier",
            "value": "dc5e9b59-86bb-95c9-eab3-9675ec81c274"
          }
        ],
        "name": [
          {
            "family": "Forster"
          },
          {
            "given": [
              "Jason"
            ]
          },
          {
            "text": "Jason Forster"
          }
        ],
        "address": [
          {
            "line": [
              "437 Martin trail"
            ],
            "use": "home",
            "type": "physical",
            "postalCode": "M20",
            "city": "Heatherville",
            "country": "United Kingdom"
          }
        ],
        "telecom": [
          {
            "system": "phone",
            "value": "01632960273"
          }
        ],
        "extension": [
          {
            "url": "http://hl7.org/fhir/StructureDefinition/patient-nationality",
            "valueCodeableConcept": {
              "coding": [
                {
                  "code": "GB",
                  "system": "http://hl7.org/fhir/ValueSet/country"
                }
              ]
            }
          }
        ],
        "text": {
          "status": "generated",
          "div": "<div xmlns=\"http://www.w3.org/1999/xhtml\"><table class=\"hl7__ips\"><tr><td>Jason Forster</td><td>male</td><td>10-Mar-1983</td></tr></table></div>"
        },
        "gender": "male",
        "birthDate": "1983-03-10"
      }
    },
    {
      "fullUrl": "urn:uuid:1dd6860a-93a2-41b9-8397-6132afa270b2",
      "resource": {
        "resourceType": "ServiceRequest",
        "id": "1dd6860a-93a2-41b9-8397-6132afa270b2",
        "meta": {
          "profile": [
            "http://hl7.eu/fhir/laboratory/StructureDefinition/ServiceRequest-eu-lab"
          ]
        },
        "identifier": [
          {
            "system": "http://example.org",
            "value": "73822cce-da7a-44f7-9c67-b643b6974c97"
          }
        ],
        "specimen": [
          {
            "reference": "urn:uuid:9ccf5017-43aa-46d8-b0ae-87c49facfb42"
          }
        ],
        "reasonCode": [
          {
            "coding": [
              {
                "code": "15777000",
                "system": "http://snomed.info/sct",
                "display": "Prediabetes"
              }
            ]
          },
          {
            "coding": [
              {
                "code": "239873007",
                "system": "http://snomed.info/sct",
                "display": "Osteoarthritis of knee"
              }
            ]
          }
        ],
        "status": "active",
        "intent": "order",
        "code": {
          "coding": [
            {
              "code": "108252007",
              "system": "http://snomed.info/sct",
              "display": "Laboratory procedure"
            }
          ]
        },
        "subject": {
          "reference": "urn:uuid:7b8c443f-d356-44ec-b4a2-86d8e63d25a9",
          "display": "Jason Forster"
        },
        "requester": {
          "reference": "urn:uuid:5069c631-4eda-47b9-8c1d-95ee840bd5ef"
        }
      }
    },
    {
      "fullUrl": "urn:uuid:5069c631-4eda-47b9-8c1d-95ee840bd5ef",
      "resource": {
        "resourceType": "PractitionerRole",
        "id": "5069c631-4eda-47b9-8c1d-95ee840bd5ef",
        "meta": {
          "profile": [
            "http://hl7.eu/fhir/base/StructureDefinition/practitionerRole-eu"
          ]
        },
        "text": {
          "status": "generated",
          "div": "<div xmlns=\"http://www.w3.org/1999/xhtml\">Provider Role Id: 5069c631-4eda-47b9-8c1d-95ee840bd5ef</div>"
        },
        "organization": {
          "reference": "urn:uuid:911d4ba5-d787-4f0b-8a2e-434b1a37674d"
        }
      }
    },
    {
      "fullUrl": "urn:uuid:911d4ba5-d787-4f0b-8a2e-434b1a37674d",
      "resource": {
        "resourceType": "Organization",
        "id": "911d4ba5-d787-4f0b-8a2e-434b1a37674d",
        "meta": {
          "profile": [
            "http://hl7.eu/fhir/base/StructureDefinition/organization-eu"
          ]
        },
        "identifier": [
          {
            "assigner": {
              "display": "HL7 Europe"
            },
            "system": "urn:oid:2.16.840.1.113883.2.51.999",
            "value": "4c3d7bcf-12f5-4b1f-8d1b-b33eee2cfd38"
          }
        ],
        "address": [
          {
            "line": [
              "City Road 204"
            ],
            "city": "Manchester",
            "postalCode": "M3 3",
            "country": "United Kingdom"
          }
        ],
        "text": {
          "status": "generated",
          "div": "<div xmlns=\"http://www.w3.org/1999/xhtml\">Provider Organization: Cornbrook Medical Practice</div>"
        },
        "name": "Cornbrook Medical Practice"
      }
    },
    {
      "fullUrl": "urn:uuid:9ccf5017-43aa-46d8-b0ae-87c49facfb42",
      "resource": {
        "resourceType": "Specimen",
        "id": "9ccf5017-43aa-46d8-b0ae-87c49facfb42",
        "meta": {
          "profile": [
            "http://hl7.eu/fhir/laboratory/StructureDefinition/Specimen-eu-lab"
          ]
        },
        "collection": {
          "collectedDateTime": "2022-01-16"
        },
        "text": {
          "status": "generated",
          "div": "<div xmlns=\"http://www.w3.org/1999/xhtml\"><table class=\"hl7__eu__lab__report\"><tr><th>Specimen</th><th>Collection Date</th></tr><tr><td>Acellular blood (serum or plasma) specimen</td><td><span class=\"nb\">16-Jan-2022</span></td></tr></table></div>"
        },
        "type": {
          "coding": [
            {
              "code": "122592007",
              "system": "http://snomed.info/sct",
              "display": "Acellular blood (serum or plasma) specimen"
            }
          ]
        }
      }
    },
    {
      "fullUrl": "urn:uuid:72e7bd47-8922-415c-b7c0-021c257ead53",
      "resource": {
        "resourceType": "Observation",
        "id": "72e7bd47-8922-415c-b7c0-021c257ead53",
        "meta": {
          "profile": [
            "http://hl7.eu/fhir/laboratory/StructureDefinition/Observation-resultslab-eu-lab"
          ]
        },
        "performer": [
          {
            "display": "The Central European Lab"
          }
        ],
        "category": [
          {
            "coding": [
              {
                "system": "http://terminology.hl7.org/CodeSystem/observation-category",
                "code": "laboratory"
              }
            ]
          }
        ],
        "code": {
          "coding": [
            {
              "code": "2093-3",
              "system": "http://loinc.org",
              "display": "Cholesterol [Mass/volume] in Serum or Plasma"
            }
          ],
          "text": "Cholesterol [Mass/volume] in Serum or Plasma"
        },
        "valueQuantity": {
          "system": "http://unitsofmeasure.org",
          "value": 236.9,
          "unit": "mg/dL",
          "code": "mg/dL"
        },
        "referenceRange": [
          {
            "low": {
              "value": 125,
              "code": "mg/dL",
              "system": "http://unitsofmeasure.org"
            }
          },
          {
            "high": {
              "value": 200,
              "code": "mg/dL",
              "system": "http://unitsofmeasure.org"
            }
          }
        ],
        "interpretation": [
          {
            "coding": [
              {
                "code": "H",
                "system": "http://terminology.hl7.org/CodeSystem/v3-ObservationInterpretation",
                "display": "High"
              }
            ]
          }
        ],
        "text": {
          "status": "generated",
          "div": "<div xmlns=\"http://www.w3.org/1999/xhtml\"><table class=\"hl7__eu__lab__report\"><tr><th>Test</th><th>16-Jan-2022</th><th>Reference&#xA0;Range</th><th>Unit</th></tr><tr><td>Cholesterol [Mass/volume] in Serum or Plasma</td><td>236.9</td><td>125 - 200</td><td>H</td><td>mg/dL</td></tr></table></div>"
        },
        "status": "final",
        "subject": {
          "reference": "urn:uuid:7b8c443f-d356-44ec-b4a2-86d8e63d25a9",
          "display": "Jason Forster"
        },
        "effectiveDateTime": "2022-01-16T10:37:02Z",
        "specimen": {
          "reference": "urn:uuid:9ccf5017-43aa-46d8-b0ae-87c49facfb42"
        }
      }
    },
    {
      "fullUrl": "urn:uuid:bd09f006-4b9f-4a08-b945-032ade6050fc",
      "resource": {
        "resourceType": "Observation",
        "id": "bd09f006-4b9f-4a08-b945-032ade6050fc",
        "meta": {
          "profile": [
            "http://hl7.eu/fhir/laboratory/StructureDefinition/Observation-resultslab-eu-lab"
          ]
        },
        "performer": [
          {
            "display": "The Central European Lab"
          }
        ],
        "category": [
          {
            "coding": [
              {
                "system": "http://terminology.hl7.org/CodeSystem/observation-category",
                "code": "laboratory"
              }
            ]
          }
        ],
        "code": {
          "coding": [
            {
              "code": "2571-8",
              "system": "http://loinc.org",
              "display": "Triglyceride [Mass/volume] in Serum or Plasma"
            }
          ],
          "text": "Triglyceride [Mass/volume] in Serum or Plasma"
        },
        "valueQuantity": {
          "system": "http://unitsofmeasure.org",
          "value": 146.8,
          "unit": "mg/dL",
          "code": "mg/dL"
        },
        "referenceRange": [
          {
            "low": {
              "value": 0,
              "code": "mg/dL",
              "system": "http://unitsofmeasure.org"
            }
          },
          {
            "high": {
              "value": 150,
              "code": "mg/dL",
              "system": "http://unitsofmeasure.org"
            }
          }
        ],
        "text": {
          "status": "generated",
          "div": "<div xmlns=\"http://www.w3.org/1999/xhtml\"><table class=\"hl7__eu__lab__report\"><tr><th>Test</th><th>16-Jan-2022</th><th>Reference&#xA0;Range</th><th>Unit</th></tr><tr><td>Triglyceride [Mass/volume] in Serum or Plasma</td><td>146.8</td><td>0 - 150</td><td></td><td>mg/dL</td></tr></table></div>"
        },
        "status": "final",
        "subject": {
          "reference": "urn:uuid:7b8c443f-d356-44ec-b4a2-86d8e63d25a9",
          "display": "Jason Forster"
        },
        "effectiveDateTime": "2022-01-16T10:37:02Z",
        "specimen": {
          "reference": "urn:uuid:9ccf5017-43aa-46d8-b0ae-87c49facfb42"
        }
      }
    },
    {
      "fullUrl": "urn:uuid:598786ae-8d7c-4328-82b7-fb8e0908b4c1",
      "resource": {
        "resourceType": "Observation",
        "id": "598786ae-8d7c-4328-82b7-fb8e0908b4c1",
        "meta": {
          "profile": [
            "http://hl7.eu/fhir/laboratory/StructureDefinition/Observation-resultslab-eu-lab"
          ]
        },
        "performer": [
          {
            "display": "The Central European Lab"
          }
        ],
        "category": [
          {
            "coding": [
              {
                "system": "http://terminology.hl7.org/CodeSystem/observation-category",
                "code": "laboratory"
              }
            ]
          }
        ],
        "code": {
          "coding": [
            {
              "code": "18262-6",
              "system": "http://loinc.org",
              "display": "Cholesterol in LDL [Mass/volume] in Serum or Plasma by Direct assay"
            }
          ],
          "text": "Cholesterol in LDL [Mass/volume] in Serum or Plasma by Direct assay"
        },
        "valueQuantity": {
          "system": "http://unitsofmeasure.org",
          "value": 185.6,
          "unit": "mg/dL",
          "code": "mg/dL"
        },
        "referenceRange": [
          {
            "low": {
              "value": 0,
              "code": "mg/dL",
              "system": "http://unitsofmeasure.org"
            }
          },
          {
            "high": {
              "value": 130,
              "code": "mg/dL",
              "system": "http://unitsofmeasure.org"
            }
          }
        ],
        "interpretation": [
          {
            "coding": [
              {
                "code": "H",
                "system": "http://terminology.hl7.org/CodeSystem/v3-ObservationInterpretation",
                "display": "High"
              }
            ]
          }
        ],
        "text": {
          "status": "generated",
          "div": "<div xmlns=\"http://www.w3.org/1999/xhtml\"><table class=\"hl7__eu__lab__report\"><tr><th>Test</th><th>16-Jan-2022</th><th>Reference&#xA0;Range</th><th>Unit</th></tr><tr><td>Cholesterol in LDL [Mass/volume] in Serum or Plasma by Direct assay</td><td>185.6</td><td>0 - 130</td><td>H</td><td>mg/dL</td></tr></table></div>"
        },
        "status": "final",
        "subject": {
          "reference": "urn:uuid:7b8c443f-d356-44ec-b4a2-86d8e63d25a9",
          "display": "Jason Forster"
        },
        "effectiveDateTime": "2022-01-16T10:37:02Z",
        "specimen": {
          "reference": "urn:uuid:9ccf5017-43aa-46d8-b0ae-87c49facfb42"
        }
      }
    },
    {
      "fullUrl": "urn:uuid:1850280f-dbe3-44a1-b907-76b8a993f892",
      "resource": {
        "resourceType": "Observation",
        "id": "1850280f-dbe3-44a1-b907-76b8a993f892",
        "meta": {
          "profile": [
            "http://hl7.eu/fhir/laboratory/StructureDefinition/Observation-resultslab-eu-lab"
          ]
        },
        "performer": [
          {
            "display": "The Central European Lab"
          }
        ],
        "category": [
          {
            "coding": [
              {
                "system": "http://terminology.hl7.org/CodeSystem/observation-category",
                "code": "laboratory"
              }
            ]
          }
        ],
        "code": {
          "coding": [
            {
              "code": "2085-9",
              "system": "http://loinc.org",
              "display": "Cholesterol in HDL [Mass/volume] in Serum or Plasma"
            }
          ],
          "text": "Cholesterol in HDL [Mass/volume] in Serum or Plasma"
        },
        "valueQuantity": {
          "system": "http://unitsofmeasure.org",
          "value": 21.9,
          "unit": "mg/dL",
          "code": "mg/dL"
        },
        "referenceRange": [
          {
            "low": {
              "value": 40,
              "code": "mg/dL",
              "system": "http://unitsofmeasure.org"
            }
          },
          {
            "high": {
              "value": 160,
              "code": "mg/dL",
              "system": "http://unitsofmeasure.org"
            }
          }
        ],
        "interpretation": [
          {
            "coding": [
              {
                "code": "L",
                "system": "http://terminology.hl7.org/CodeSystem/v3-ObservationInterpretation",
                "display": "Low"
              }
            ]
          }
        ],
        "text": {
          "status": "generated",
          "div": "<div xmlns=\"http://www.w3.org/1999/xhtml\"><table class=\"hl7__eu__lab__report\"><tr><th>Test</th><th>16-Jan-2022</th><th>Reference&#xA0;Range</th><th>Unit</th></tr><tr><td>Cholesterol in HDL [Mass/volume] in Serum or Plasma</td><td>21.9</td><td>40 - 160</td><td>L</td><td>mg/dL</td></tr></table></div>"
        },
        "status": "final",
        "subject": {
          "reference": "urn:uuid:7b8c443f-d356-44ec-b4a2-86d8e63d25a9",
          "display": "Jason Forster"
        },
        "effectiveDateTime": "2022-01-16T10:37:02Z",
        "specimen": {
          "reference": "urn:uuid:9ccf5017-43aa-46d8-b0ae-87c49facfb42"
        }
      }
    },
    {
      "fullUrl": "urn:uuid:a9b78a2d-d54c-4d6e-9813-10150139a3bf",
      "resource": {
        "resourceType": "Device",
        "id": "a9b78a2d-d54c-4d6e-9813-10150139a3bf",
        "deviceName": [
          {
            "name": "SYNDERAI Synthetic Generator",
            "type": "manufacturer-name"
          }
        ],
        "version": [
          {
            "value": "5.0"
          }
        ],
        "text": {
          "status": "generated",
          "div": "<div xmlns=\"http://www.w3.org/1999/xhtml\">SYNDERAI Synthetic Generator v5.0</div>"
        },
        "status": "active\"",
        "distinctIdentifier": "synderai-generator-50",
        "manufacturer": "SYNDERAI Project"
      }
    },
    {
      "fullUrl": "urn:uuid:29a57cee-0a91-4df4-861b-5427318262f0",
      "resource": {
        "resourceType": "Provenance",
        "id": "29a57cee-0a91-4df4-861b-5427318262f0",
        "target": [
          {
            "reference": "Patient/7b8c443f-d356-44ec-b4a2-86d8e63d25a9"
          },
          {
            "reference": "Bundle/146c9773-f2d0-4999-8a77-bb762540b19a"
          },
          {
            "reference": "Composition/db034b7d-0fe3-40a0-ba97-628a4fa6282f"
          },
          {
            "reference": "PractitionerRole/ab0dfe52-beb6-453e-9248-a28df684470b"
          },
          {
            "reference": "Practitioner/cf664af9-0d8e-466d-953e-17c4fe1cffbd"
          },
          {
            "reference": "PractitionerRole/5069c631-4eda-47b9-8c1d-95ee840bd5ef"
          },
          {
            "reference": "Organization/911d4ba5-d787-4f0b-8a2e-434b1a37674d"
          }
        ],
        "activity": {
          "text": "Synthetic Example Data Generation"
        },
        "policy": [
          "https://synderai.net/synderai-synthetic-data-policy"
        ],
        "agent": [
          {
            "type": {
              "text": "author"
            },
            "who": {
              "reference": "Device/a9b78a2d-d54c-4d6e-9813-10150139a3bf"
            }
          }
        ],
        "reason": [
          {
            "text": "Interoperability Testing and Training (non-clinical use)"
          }
        ],
        "text": {
          "status": "generated",
          "div": "<div xmlns=\"http://www.w3.org/1999/xhtml\">Provenance for SYNDERAI Synthetic Example Data Resource</div>"
        },
        "recorded": "2022-01-16T11:37:02Z"
      }
    },
    {
      "fullUrl": "urn:uuid:ab0dfe52-beb6-453e-9248-a28df684470b",
      "resource": {
        "resourceType": "PractitionerRole",
        "id": "ab0dfe52-beb6-453e-9248-a28df684470b",
        "meta": {
          "profile": [
            "http://hl7.eu/fhir/base/StructureDefinition/practitionerRole-eu"
          ]
        },
        "text": {
          "status": "generated",
          "div": "<div xmlns=\"http://www.w3.org/1999/xhtml\">Laboratory Role Id: ab0dfe52-beb6-453e-9248-a28df684470b</div>"
        },
        "practitioner": {
          "reference": "urn:uuid:cf664af9-0d8e-466d-953e-17c4fe1cffbd"
        }
      }
    },
    {
      "fullUrl": "urn:uuid:cf664af9-0d8e-466d-953e-17c4fe1cffbd",
      "resource": {
        "resourceType": "Practitioner",
        "id": "cf664af9-0d8e-466d-953e-17c4fe1cffbd",
        "meta": {
          "profile": [
            "http://hl7.eu/fhir/base/StructureDefinition/practitioner-eu"
          ]
        },
        "identifier": [
          {
            "assigner": {
              "display": "HL7 Europe"
            },
            "system": "urn:oid:2.16.840.1.113883.2.51.999",
            "value": "dc219c1c-c48f-4134-b64c-ccea51340a48"
          }
        ],
        "name": [
          {
            "prefix": [
              "dr"
            ],
            "given": [
              "Ex"
            ],
            "family": "Ample"
          }
        ],
        "address": [
          {
            "line": [
              "Laboratoire Central Européenne",
              "Boulevard du Jardin Botanique 32"
            ],
            "postalCode": "1000",
            "city": "Brussels",
            "country": "Belgium"
          }
        ],
        "text": {
          "status": "generated",
          "div": "<div xmlns=\"http://www.w3.org/1999/xhtml\">Laboratory: Laboratoire Central Européenne, 1000 Brussels, Belgium</div>"
        }
      }
    }
  ],
  "type": "document",
  "timestamp": "2022-01-16T11:37:02Z"
}
