{
  "resourceType": "Bundle",
  "id": "38488791-ec41-4593-a519-c830a2c2584e",
  "meta": {
    "profile": [
      "http://hl7.eu/fhir/laboratory/StructureDefinition/Bundle-eu-lab"
    ]
  },
  "identifier": {
    "assigner": {
      "display": "HL7 Europe"
    },
    "system": "urn:oid:2.16.840.1.113883.2.51.999",
    "value": "e8a4c4a0-4af5-497c-a2aa-c4989aa40e6d"
  },
  "entry": [
    {
      "fullUrl": "urn:uuid:783a20af-ebc2-46a2-aa4c-666aa3c6884e",
      "resource": {
        "resourceType": "Composition",
        "id": "783a20af-ebc2-46a2-aa4c-666aa3c6884e",
        "meta": {
          "profile": [
            "http://hl7.eu/fhir/laboratory/StructureDefinition/Composition-eu-lab"
          ]
        },
        "identifier": {
          "assigner": {
            "display": "HL7 Europe"
          },
          "system": "urn:oid:2.16.840.1.113883.2.51.999",
          "value": "8a4bf8c2-7d33-4ef4-9faf-531f42e564e8"
        },
        "author": [
          {
            "reference": "urn:uuid:49f8e0b9-7686-4150-afe8-d86db32b934b"
          }
        ],
        "category": [
          {
            "coding": [
              {
                "code": "26436-6",
                "system": "http://loinc.org",
                "display": "Laboratory studies (set)"
              }
            ]
          }
        ],
        "type": {
          "coding": [
            {
              "code": "11502-2",
              "system": "http://loinc.org",
              "display": "Laboratory report"
            }
          ],
          "text": "Laboratory Report"
        },
        "section": [
          {
            "code": {
              "coding": [
                {
                  "code": "26436-6",
                  "system": "http://loinc.org",
                  "display": "Laboratory studies (set)"
                }
              ],
              "text": "Laboratory studies"
            },
            "section": [
              {
                "code": {
                  "coding": [
                    {
                      "code": "$18723-7",
                      "system": "http://loinc.org",
                      "display": "Hematology studies (set)"
                    }
                  ],
                  "text": "Hematology"
                },
                "entry": [
                  {
                    "reference": "urn:uuid:1f7131c7-49a6-4310-92ca-e50c5a746d6f"
                  },
                  {
                    "reference": "urn:uuid:a357967a-a919-4009-b47c-c6e8687c670a"
                  },
                  {
                    "reference": "urn:uuid:99ef786b-2471-4d21-aa8c-1689599c82df"
                  },
                  {
                    "reference": "urn:uuid:d389cfda-8e03-48bc-84a4-ceb08f402514"
                  },
                  {
                    "reference": "urn:uuid:b491167c-d300-4ec7-bbc2-a17ee83ffa5a"
                  },
                  {
                    "reference": "urn:uuid:82011e18-41cd-4be5-903b-8da483dee3ab"
                  },
                  {
                    "reference": "urn:uuid:b4a5c6ee-893d-4164-8e49-c6a5d5f5ef05"
                  },
                  {
                    "reference": "urn:uuid:61590c17-8524-4ae3-aef1-bb8004f3af13"
                  },
                  {
                    "reference": "urn:uuid:47e9151a-1666-4ef1-b9c4-9f601045ac5b"
                  },
                  {
                    "reference": "urn:uuid:6fcee426-a944-4a0c-abd0-1eb4da1e3200"
                  },
                  {
                    "reference": "urn:uuid:d38453eb-d856-4c53-972f-29f71ccb0ce7"
                  }
                ],
                "text": {
                  "status": "generated",
                  "div": "<div xmlns=\"http://www.w3.org/1999/xhtml\"><h3>Hematology</h3><table class=\"hl7__eu__lab__report\"><thead><tr><th>Test</th><th>05-AUG-2022</th><th>Reference&#xA0;Range</th><th>Unit</th></tr></thead><tbody><tr><td>Leukocytes [#/volume] in Blood by Automated count</td><td>4.0</td><td>3.6 - 10.5</td><td>10*3/uL</td></tr><tr><td>Erythrocytes [#/volume] in Blood by Automated count</td><td>5.0</td><td>4.2 - 5.8</td><td>10*6/uL</td></tr><tr><td>Hemoglobin [Mass/volume] in Blood</td><td>12.2</td><td>12.1 - 15.5</td><td>g/dL</td></tr><tr><td>Hematocrit [Volume Fraction] of Blood by Automated count</td><td>42.2</td><td>37 - 52</td><td>%</td></tr><tr><td>MCV [Entitic volume] by Automated count</td><td>80.6</td><td>78 - 98</td><td>fL</td></tr><tr><td>MCH [Entitic mass] by Automated count</td><td>29.4</td><td>27 - 34.5</td><td>pg</td></tr><tr><td>MCHC [Mass/volume] by Automated count</td><td>33.7</td><td>31 - 35</td><td>g/dL</td></tr><tr><td>Erythrocyte distribution width [Entitic volume] by Automated count</td><td>43.3</td><td>36 - 55</td><td>fL</td></tr><tr><td>Platelets [#/volume] in Blood by Automated count</td><td>326.5</td><td>150 - 450</td><td>10*3/uL</td></tr><tr><td>Platelet distribution width [Entitic volume] in Blood by Automated count</td><td><strong>259.6 H</strong></td><td>11.6 - 17.4</td><td>fL</td></tr><tr><td>Platelet mean volume [Entitic volume] in Blood by Automated count</td><td>10.4</td><td>7.2 - 13.8</td><td>fL</td></tr></tbody></table></div>"
                },
                "title": "Hematology"
              },
              {
                "code": {
                  "coding": [
                    {
                      "code": "$18719-5",
                      "system": "http://loinc.org",
                      "display": "Chemistry studies (set)"
                    }
                  ],
                  "text": "Chemistry"
                },
                "entry": [
                  {
                    "reference": "urn:uuid:6b989222-b339-493f-b4fe-542a8f494883"
                  },
                  {
                    "reference": "urn:uuid:8e7ce52e-95d4-4508-bea8-b07af70f61da"
                  },
                  {
                    "reference": "urn:uuid:7f3aebdc-60db-4154-acde-f27856e28505"
                  },
                  {
                    "reference": "urn:uuid:6600269c-50fa-41b5-a159-c86bb156be01"
                  },
                  {
                    "reference": "urn:uuid:541ac421-ac20-4ddf-9a1a-756faf25b90f"
                  },
                  {
                    "reference": "urn:uuid:e44ff00c-7257-4fb7-87b8-50d9af940ea6"
                  },
                  {
                    "reference": "urn:uuid:89c6e9b0-8495-461f-b981-128417a6ba90"
                  },
                  {
                    "reference": "urn:uuid:081423cd-8286-4d48-8ef1-a339f1b8fd5c"
                  },
                  {
                    "reference": "urn:uuid:5c5f3349-0539-4afd-bf90-cbb4462af4e2"
                  },
                  {
                    "reference": "urn:uuid:ce09591c-1790-4634-99c5-c44339018468"
                  },
                  {
                    "reference": "urn:uuid:bcda5230-63e3-4470-91cb-2e17ab9e8e55"
                  },
                  {
                    "reference": "urn:uuid:1ca048a3-be34-4edf-8c75-4a17b572cb76"
                  },
                  {
                    "reference": "urn:uuid:ebc8a62c-eeef-4980-8c83-2ab488a7e763"
                  },
                  {
                    "reference": "urn:uuid:bca52b07-7de4-41ef-919a-43466066fd75"
                  }
                ],
                "text": {
                  "status": "generated",
                  "div": "<div xmlns=\"http://www.w3.org/1999/xhtml\"><h3>Chemistry</h3><table class=\"hl7__eu__lab__report\"><thead><tr><th>Test</th><th>05-AUG-2022</th><th>Reference&#xA0;Range</th><th>Unit</th></tr></thead><tbody><tr><td>Hemoglobin A1c/Hemoglobin.total in Blood</td><td><strong>7.0 H</strong></td><td>4 - 6</td><td>%</td></tr><tr><td>Glucose [Mass/volume] in Blood</td><td>122.3</td><td>70 - 140</td><td>mg/dL</td></tr><tr><td>Urea nitrogen [Mass/volume] in Blood</td><td>11.6</td><td>7 - 25</td><td>mg/dL</td></tr><tr><td>Creatinine [Mass/volume] in Blood</td><td>0.8</td><td>0.6 - 1.1</td><td>mg/dL</td></tr><tr><td>Calcium [Mass/volume] in Blood</td><td>10.0</td><td>8.5 - 10.4</td><td>mg/dL</td></tr><tr><td>Sodium [Moles/volume] in Blood</td><td>141.8</td><td>135 - 145</td><td>mmol/L</td></tr><tr><td>Potassium [Moles/volume] in Blood</td><td>5.0</td><td>3.5 - 5.1</td><td>mmol/L</td></tr><tr><td>Chloride [Moles/volume] in Blood</td><td>105.7</td><td>98 - 107</td><td>mmol/L</td></tr><tr><td>Carbon dioxide, total [Moles/volume] in Blood</td><td>23.2</td><td>22 - 29</td><td>mmol/L</td></tr><tr><td>Cholesterol [Mass/volume] in Serum or Plasma</td><td><strong>207.9 H</strong></td><td>125 - 200</td><td>mg/dL</td></tr><tr><td>Triglyceride [Mass/volume] in Serum or Plasma</td><td><strong>171.8 H</strong></td><td>35 - 150</td><td>mg/dL</td></tr><tr><td>Cholesterol in LDL [Mass/volume] in Serum or Plasma by Direct assay</td><td><strong>130.6 H</strong></td><td>0 - 130</td><td>mg/dL</td></tr><tr><td>Cholesterol in HDL [Mass/volume] in Serum or Plasma</td><td>43.0</td><td>40 - 100</td><td>mg/dL</td></tr><tr><td>Microalbumin/Creatinine [Mass Ratio] in Urine</td><td>15.6</td><td>0 - 30</td><td>mg/g</td></tr></tbody></table></div>"
                },
                "title": "Chemistry"
              }
            ],
            "title": "Laboratory Report"
          },
          {
            "text": {
              "status": "generated",
              "div": "<div xmlns=\"http://www.w3.org/1999/xhtml\"><h3>Annotation</h3><table class=\"hl7__eu__lab__report\"><tr><th>Conclusion and Recommendations based on this report and previous findings known to us</th></tr><tr><td>The patient shows poor glycemic control (elevated HbA1c), dyslipidemia (high total cholesterol, LDL, and triglycerides), and a high platelet distribution width. Renal function, electrolytes, and blood counts are within normal limits. Recommend review of diabetes and lipid management, and clinical correlation for cardiovascular risk. No evidence of acute renal or hematologic abnormalities.</td></tr></table></div>"
            },
            "code": {
              "coding": [
                {
                  "system": "http://loinc.org",
                  "code": "48767-8",
                  "display": "Annotation comment"
                }
              ]
            },
            "title": "Annotation comment"
          }
        ],
        "status": "final",
        "subject": {
          "reference": "urn:uuid:81bf612c-088c-480d-a2f4-50476f156cea",
          "display": "Martine Couturier"
        },
        "date": "2022-08-05T22:13:15Z",
        "title": "Laboratory Report",
        "confidentiality": "N"
      }
    },
    {
      "fullUrl": "urn:uuid:c40d08c7-e0cc-4022-99ff-2025bb73fdfd",
      "resource": {
        "resourceType": "DiagnosticReport",
        "id": "c40d08c7-e0cc-4022-99ff-2025bb73fdfd",
        "meta": {
          "profile": [
            "http://hl7.eu/fhir/laboratory/StructureDefinition/DiagnosticReport-eu-lab"
          ]
        },
        "identifier": [
          {
            "assigner": {
              "display": "HL7 Europe"
            },
            "system": "urn:oid:2.16.840.1.113883.2.51.999",
            "value": "c289ba66-5923-4ee7-836e-bcfdf232561e"
          }
        ],
        "extension": [
          {
            "url": "http://hl7.org/fhir/5.0/StructureDefinition/extension-DiagnosticReport.composition",
            "valueReference": {
              "reference": "urn:uuid:8a4bf8c2-7d33-4ef4-9faf-531f42e564e8"
            }
          }
        ],
        "category": [
          {
            "coding": [
              {
                "code": "26436-6",
                "system": "http://loinc.org",
                "display": "Laboratory studies (set)"
              }
            ]
          }
        ],
        "specimen": [
          {
            "reference": "urn:uuid:5e9f4a20-f79f-4963-b940-60fe95f0877b"
          },
          {
            "reference": "urn:uuid:35fcdb69-281a-48ff-8455-bc070684c691"
          },
          {
            "reference": "urn:uuid:bb792717-3a2d-47b7-91f7-5a948286a0cd"
          },
          {
            "reference": "urn:uuid:5e9f4a20-f79f-4963-b940-60fe95f0877b"
          }
        ],
        "result": [
          {
            "reference": "urn:uuid:6b989222-b339-493f-b4fe-542a8f494883"
          },
          {
            "reference": "urn:uuid:8e7ce52e-95d4-4508-bea8-b07af70f61da"
          },
          {
            "reference": "urn:uuid:7f3aebdc-60db-4154-acde-f27856e28505"
          },
          {
            "reference": "urn:uuid:6600269c-50fa-41b5-a159-c86bb156be01"
          },
          {
            "reference": "urn:uuid:541ac421-ac20-4ddf-9a1a-756faf25b90f"
          },
          {
            "reference": "urn:uuid:e44ff00c-7257-4fb7-87b8-50d9af940ea6"
          },
          {
            "reference": "urn:uuid:89c6e9b0-8495-461f-b981-128417a6ba90"
          },
          {
            "reference": "urn:uuid:081423cd-8286-4d48-8ef1-a339f1b8fd5c"
          },
          {
            "reference": "urn:uuid:5c5f3349-0539-4afd-bf90-cbb4462af4e2"
          },
          {
            "reference": "urn:uuid:ce09591c-1790-4634-99c5-c44339018468"
          },
          {
            "reference": "urn:uuid:bcda5230-63e3-4470-91cb-2e17ab9e8e55"
          },
          {
            "reference": "urn:uuid:1ca048a3-be34-4edf-8c75-4a17b572cb76"
          },
          {
            "reference": "urn:uuid:ebc8a62c-eeef-4980-8c83-2ab488a7e763"
          },
          {
            "reference": "urn:uuid:bca52b07-7de4-41ef-919a-43466066fd75"
          },
          {
            "reference": "urn:uuid:1f7131c7-49a6-4310-92ca-e50c5a746d6f"
          },
          {
            "reference": "urn:uuid:a357967a-a919-4009-b47c-c6e8687c670a"
          },
          {
            "reference": "urn:uuid:99ef786b-2471-4d21-aa8c-1689599c82df"
          },
          {
            "reference": "urn:uuid:d389cfda-8e03-48bc-84a4-ceb08f402514"
          },
          {
            "reference": "urn:uuid:b491167c-d300-4ec7-bbc2-a17ee83ffa5a"
          },
          {
            "reference": "urn:uuid:82011e18-41cd-4be5-903b-8da483dee3ab"
          },
          {
            "reference": "urn:uuid:b4a5c6ee-893d-4164-8e49-c6a5d5f5ef05"
          },
          {
            "reference": "urn:uuid:61590c17-8524-4ae3-aef1-bb8004f3af13"
          },
          {
            "reference": "urn:uuid:47e9151a-1666-4ef1-b9c4-9f601045ac5b"
          },
          {
            "reference": "urn:uuid:6fcee426-a944-4a0c-abd0-1eb4da1e3200"
          },
          {
            "reference": "urn:uuid:d38453eb-d856-4c53-972f-29f71ccb0ce7"
          }
        ],
        "status": "registered",
        "code": {
          "coding": [
            {
              "code": "11502-2",
              "system": "http://loinc.org",
              "display": "Laboratory report"
            }
          ]
        },
        "subject": {
          "reference": "urn:uuid:81bf612c-088c-480d-a2f4-50476f156cea",
          "display": "Martine Couturier"
        }
      }
    },
    {
      "fullUrl": "urn:uuid:81bf612c-088c-480d-a2f4-50476f156cea",
      "resource": {
        "resourceType": "Patient",
        "id": "81bf612c-088c-480d-a2f4-50476f156cea",
        "meta": {
          "security": [
            {
              "system": "http://terminology.hl7.org/CodeSystem/v3-ActReason",
              "code": "HTEST"
            },
            {
              "system": "http://terminology.hl7.org/CodeSystem/v3-ActReason",
              "code": "TRAIN"
            }
          ],
          "tag": [
            {
              "system": "https://synderai.net/fhir/CodeSystem/tags",
              "code": "synthetic",
              "display": "SYNDERAI Synthetic data"
            }
          ],
          "profile": [
            "http://hl7.eu/fhir/base/StructureDefinition/patient-eu-core"
          ]
        },
        "identifier": [
          {
            "type": {
              "coding": [
                {
                  "code": "PT",
                  "system": "http://terminology.hl7.org/CodeSystem/v2-0203"
                }
              ]
            },
            "system": "http://ec.europa.eu/identifier/eci",
            "value": "6614-983327-0"
          },
          {
            "type": {
              "coding": [
                {
                  "code": "MR",
                  "system": "http://terminology.hl7.org/CodeSystem/v2-0203"
                }
              ]
            },
            "system": "http://local.setting.eu/identifier",
            "value": "decdc04d-a1c8-929f-4aad-63136dd70efd"
          }
        ],
        "name": [
          {
            "family": "Couturier"
          },
          {
            "given": [
              "Martine"
            ]
          },
          {
            "text": "Martine Couturier"
          }
        ],
        "address": [
          {
            "line": [
              "458, rue de Bègue"
            ],
            "use": "home",
            "type": "physical",
            "postalCode": "03110",
            "city": "Boutin",
            "country": "France"
          }
        ],
        "telecom": [
          {
            "system": "phone",
            "value": "+33 4 11 66 35 81"
          }
        ],
        "extension": [
          {
            "url": "http://hl7.org/fhir/StructureDefinition/patient-nationality",
            "valueCodeableConcept": {
              "coding": [
                {
                  "code": "FR",
                  "system": "http://hl7.org/fhir/ValueSet/country"
                }
              ]
            }
          }
        ],
        "text": {
          "status": "generated",
          "div": "<div xmlns=\"http://www.w3.org/1999/xhtml\"><table class=\"hl7__ips\"><tr><td>Martine Couturier</td><td>female</td><td>13-Nov-1961</td></tr></table></div>"
        },
        "gender": "female",
        "birthDate": "1961-11-13"
      }
    },
    {
      "fullUrl": "urn:uuid:5b0f0c90-5b59-497a-b3c7-8457dacc2dd3",
      "resource": {
        "resourceType": "ServiceRequest",
        "id": "5b0f0c90-5b59-497a-b3c7-8457dacc2dd3",
        "meta": {
          "profile": [
            "http://hl7.eu/fhir/laboratory/StructureDefinition/ServiceRequest-eu-lab"
          ]
        },
        "identifier": [
          {
            "system": "http://example.org",
            "value": "7d0d4155-2323-4ca7-bd36-0033125bf1a6"
          }
        ],
        "specimen": [
          {
            "reference": "urn:uuid:5e9f4a20-f79f-4963-b940-60fe95f0877b"
          },
          {
            "reference": "urn:uuid:35fcdb69-281a-48ff-8455-bc070684c691"
          },
          {
            "reference": "urn:uuid:bb792717-3a2d-47b7-91f7-5a948286a0cd"
          }
        ],
        "reasonCode": [
          {
            "coding": [
              {
                "code": "368581000119106",
                "system": "http://snomed.info/sct",
                "display": "Neuropathy due to type 2 diabetes mellitus"
              }
            ]
          },
          {
            "coding": [
              {
                "code": "302870006",
                "system": "http://snomed.info/sct",
                "display": "Hypertriglyceridemia"
              }
            ]
          },
          {
            "coding": [
              {
                "code": "44054006",
                "system": "http://snomed.info/sct",
                "display": "Type 2 diabetes mellitus"
              }
            ]
          },
          {
            "coding": [
              {
                "code": "237602007",
                "system": "http://snomed.info/sct",
                "display": "Metabolic syndrome X"
              }
            ]
          },
          {
            "coding": [
              {
                "code": "271737000",
                "system": "http://snomed.info/sct",
                "display": "Anemia"
              }
            ]
          },
          {
            "coding": [
              {
                "code": "15777000",
                "system": "http://snomed.info/sct",
                "display": "Prediabetes"
              }
            ]
          }
        ],
        "status": "active",
        "intent": "order",
        "code": {
          "coding": [
            {
              "code": "108252007",
              "system": "http://snomed.info/sct",
              "display": "Laboratory procedure"
            }
          ]
        },
        "subject": {
          "reference": "urn:uuid:81bf612c-088c-480d-a2f4-50476f156cea",
          "display": "Martine Couturier"
        },
        "requester": {
          "reference": "urn:uuid:78ef928b-ed45-47b3-bab2-240a51134a1f"
        }
      }
    },
    {
      "fullUrl": "urn:uuid:78ef928b-ed45-47b3-bab2-240a51134a1f",
      "resource": {
        "resourceType": "PractitionerRole",
        "id": "78ef928b-ed45-47b3-bab2-240a51134a1f",
        "meta": {
          "profile": [
            "http://hl7.eu/fhir/base/StructureDefinition/practitionerRole-eu"
          ]
        },
        "text": {
          "status": "generated",
          "div": "<div xmlns=\"http://www.w3.org/1999/xhtml\">Provider Role Id: 78ef928b-ed45-47b3-bab2-240a51134a1f</div>"
        },
        "organization": {
          "reference": "urn:uuid:b61f5f3e-900c-435d-a27d-24950b461e08"
        }
      }
    },
    {
      "fullUrl": "urn:uuid:b61f5f3e-900c-435d-a27d-24950b461e08",
      "resource": {
        "resourceType": "Organization",
        "id": "b61f5f3e-900c-435d-a27d-24950b461e08",
        "meta": {
          "profile": [
            "http://hl7.eu/fhir/base/StructureDefinition/organization-eu"
          ]
        },
        "identifier": [
          {
            "assigner": {
              "display": "HL7 Europe"
            },
            "system": "urn:oid:2.16.840.1.113883.2.51.999",
            "value": "39b293cc-0ba1-433c-8817-fcc9522dab33"
          }
        ],
        "address": [
          {
            "line": [
              "Boulevard Denière 1"
            ],
            "city": "Vichy",
            "postalCode": "03200",
            "country": "France"
          }
        ],
        "text": {
          "status": "generated",
          "div": "<div xmlns=\"http://www.w3.org/1999/xhtml\">Provider Organization: Centre hospitalier Jacques Lacarin</div>"
        },
        "name": "Centre hospitalier Jacques Lacarin"
      }
    },
    {
      "fullUrl": "urn:uuid:5e9f4a20-f79f-4963-b940-60fe95f0877b",
      "resource": {
        "resourceType": "Specimen",
        "id": "5e9f4a20-f79f-4963-b940-60fe95f0877b",
        "meta": {
          "profile": [
            "http://hl7.eu/fhir/laboratory/StructureDefinition/Specimen-eu-lab"
          ]
        },
        "collection": {
          "collectedDateTime": "2022-08-05"
        },
        "text": {
          "status": "generated",
          "div": "<div xmlns=\"http://www.w3.org/1999/xhtml\"><table class=\"hl7__eu__lab__report\"><tr><th>Specimen</th><th>Collection Date</th></tr><tr><td>Whole blood specimen (specimen)</td><td><span class=\"nb\">05-Aug-2022</span></td></tr></table></div>"
        },
        "type": {
          "coding": [
            {
              "code": "258580003",
              "system": "http://snomed.info/sct",
              "display": "Whole blood specimen (specimen)"
            }
          ]
        }
      }
    },
    {
      "fullUrl": "urn:uuid:35fcdb69-281a-48ff-8455-bc070684c691",
      "resource": {
        "resourceType": "Specimen",
        "id": "35fcdb69-281a-48ff-8455-bc070684c691",
        "meta": {
          "profile": [
            "http://hl7.eu/fhir/laboratory/StructureDefinition/Specimen-eu-lab"
          ]
        },
        "collection": {
          "collectedDateTime": "2022-08-05"
        },
        "text": {
          "status": "generated",
          "div": "<div xmlns=\"http://www.w3.org/1999/xhtml\"><table class=\"hl7__eu__lab__report\"><tr><th>Specimen</th><th>Collection Date</th></tr><tr><td>Acellular blood (serum or plasma) specimen</td><td><span class=\"nb\">05-Aug-2022</span></td></tr></table></div>"
        },
        "type": {
          "coding": [
            {
              "code": "122592007",
              "system": "http://snomed.info/sct",
              "display": "Acellular blood (serum or plasma) specimen"
            }
          ]
        }
      }
    },
    {
      "fullUrl": "urn:uuid:bb792717-3a2d-47b7-91f7-5a948286a0cd",
      "resource": {
        "resourceType": "Specimen",
        "id": "bb792717-3a2d-47b7-91f7-5a948286a0cd",
        "meta": {
          "profile": [
            "http://hl7.eu/fhir/laboratory/StructureDefinition/Specimen-eu-lab"
          ]
        },
        "collection": {
          "collectedDateTime": "2022-08-05"
        },
        "text": {
          "status": "generated",
          "div": "<div xmlns=\"http://www.w3.org/1999/xhtml\"><table class=\"hl7__eu__lab__report\"><tr><th>Specimen</th><th>Collection Date</th></tr><tr><td>Urine specimen</td><td><span class=\"nb\">05-Aug-2022</span></td></tr></table></div>"
        },
        "type": {
          "coding": [
            {
              "code": "122575003",
              "system": "http://snomed.info/sct",
              "display": "Urine specimen"
            }
          ]
        }
      }
    },
    {
      "fullUrl": "urn:uuid:5e9f4a20-f79f-4963-b940-60fe95f0877b",
      "resource": {
        "resourceType": "Specimen",
        "id": "5e9f4a20-f79f-4963-b940-60fe95f0877b",
        "meta": {
          "profile": [
            "http://hl7.eu/fhir/laboratory/StructureDefinition/Specimen-eu-lab"
          ]
        },
        "collection": {
          "collectedDateTime": "2022-08-05"
        },
        "text": {
          "status": "generated",
          "div": "<div xmlns=\"http://www.w3.org/1999/xhtml\"><table class=\"hl7__eu__lab__report\"><tr><th>Specimen</th><th>Collection Date</th></tr><tr><td>Whole blood specimen (specimen)</td><td><span class=\"nb\">05-Aug-2022</span></td></tr></table></div>"
        },
        "type": {
          "coding": [
            {
              "code": "258580003",
              "system": "http://snomed.info/sct",
              "display": "Whole blood specimen (specimen)"
            }
          ]
        }
      }
    },
    {
      "fullUrl": "urn:uuid:6b989222-b339-493f-b4fe-542a8f494883",
      "resource": {
        "resourceType": "Observation",
        "id": "6b989222-b339-493f-b4fe-542a8f494883",
        "meta": {
          "profile": [
            "http://hl7.eu/fhir/laboratory/StructureDefinition/Observation-resultslab-eu-lab"
          ]
        },
        "performer": [
          {
            "display": "The Central European Lab"
          }
        ],
        "category": [
          {
            "coding": [
              {
                "system": "http://terminology.hl7.org/CodeSystem/observation-category",
                "code": "laboratory"
              }
            ]
          }
        ],
        "code": {
          "coding": [
            {
              "code": "4548-4",
              "system": "http://loinc.org",
              "display": "Hemoglobin A1c/Hemoglobin.total in Blood"
            }
          ],
          "text": "Hemoglobin A1c/Hemoglobin.total in Blood"
        },
        "valueQuantity": {
          "system": "http://unitsofmeasure.org",
          "value": 7,
          "unit": "%",
          "code": "%"
        },
        "referenceRange": [
          {
            "low": {
              "value": 4,
              "code": "%",
              "system": "http://unitsofmeasure.org"
            }
          },
          {
            "high": {
              "value": 6,
              "code": "%",
              "system": "http://unitsofmeasure.org"
            }
          }
        ],
        "interpretation": [
          {
            "coding": [
              {
                "code": "H",
                "system": "http://terminology.hl7.org/CodeSystem/v3-ObservationInterpretation",
                "display": "High"
              }
            ]
          }
        ],
        "text": {
          "status": "generated",
          "div": "<div xmlns=\"http://www.w3.org/1999/xhtml\"><table class=\"hl7__eu__lab__report\"><tr><th>Test</th><th>05-Aug-2022</th><th>Reference&#xA0;Range</th><th>Unit</th></tr><tr><td>Hemoglobin A1c/Hemoglobin.total in Blood</td><td>7.0</td><td>4 - 6</td><td>H</td><td>%</td></tr></table></div>"
        },
        "status": "final",
        "subject": {
          "reference": "urn:uuid:81bf612c-088c-480d-a2f4-50476f156cea",
          "display": "Martine Couturier"
        },
        "effectiveDateTime": "2022-08-05T20:13:15Z",
        "specimen": {
          "reference": "urn:uuid:5e9f4a20-f79f-4963-b940-60fe95f0877b"
        }
      }
    },
    {
      "fullUrl": "urn:uuid:8e7ce52e-95d4-4508-bea8-b07af70f61da",
      "resource": {
        "resourceType": "Observation",
        "id": "8e7ce52e-95d4-4508-bea8-b07af70f61da",
        "meta": {
          "profile": [
            "http://hl7.eu/fhir/laboratory/StructureDefinition/Observation-resultslab-eu-lab"
          ]
        },
        "performer": [
          {
            "display": "The Central European Lab"
          }
        ],
        "category": [
          {
            "coding": [
              {
                "system": "http://terminology.hl7.org/CodeSystem/observation-category",
                "code": "laboratory"
              }
            ]
          }
        ],
        "code": {
          "coding": [
            {
              "code": "2339-0",
              "system": "http://loinc.org",
              "display": "Glucose [Mass/volume] in Blood"
            }
          ],
          "text": "Glucose [Mass/volume] in Blood"
        },
        "valueQuantity": {
          "system": "http://unitsofmeasure.org",
          "value": 122.3,
          "unit": "mg/dL",
          "code": "mg/dL"
        },
        "referenceRange": [
          {
            "low": {
              "value": 70,
              "code": "mg/dL",
              "system": "http://unitsofmeasure.org"
            }
          },
          {
            "high": {
              "value": 140,
              "code": "mg/dL",
              "system": "http://unitsofmeasure.org"
            }
          }
        ],
        "text": {
          "status": "generated",
          "div": "<div xmlns=\"http://www.w3.org/1999/xhtml\"><table class=\"hl7__eu__lab__report\"><tr><th>Test</th><th>05-Aug-2022</th><th>Reference&#xA0;Range</th><th>Unit</th></tr><tr><td>Glucose [Mass/volume] in Blood</td><td>122.3</td><td>70 - 140</td><td></td><td>mg/dL</td></tr></table></div>"
        },
        "status": "final",
        "subject": {
          "reference": "urn:uuid:81bf612c-088c-480d-a2f4-50476f156cea",
          "display": "Martine Couturier"
        },
        "effectiveDateTime": "2022-08-05T20:13:15Z",
        "specimen": {
          "reference": "urn:uuid:5e9f4a20-f79f-4963-b940-60fe95f0877b"
        }
      }
    },
    {
      "fullUrl": "urn:uuid:7f3aebdc-60db-4154-acde-f27856e28505",
      "resource": {
        "resourceType": "Observation",
        "id": "7f3aebdc-60db-4154-acde-f27856e28505",
        "meta": {
          "profile": [
            "http://hl7.eu/fhir/laboratory/StructureDefinition/Observation-resultslab-eu-lab"
          ]
        },
        "performer": [
          {
            "display": "The Central European Lab"
          }
        ],
        "category": [
          {
            "coding": [
              {
                "system": "http://terminology.hl7.org/CodeSystem/observation-category",
                "code": "laboratory"
              }
            ]
          }
        ],
        "code": {
          "coding": [
            {
              "code": "6299-2",
              "system": "http://loinc.org",
              "display": "Urea nitrogen [Mass/volume] in Blood"
            }
          ],
          "text": "Urea nitrogen [Mass/volume] in Blood"
        },
        "valueQuantity": {
          "system": "http://unitsofmeasure.org",
          "value": 11.6,
          "unit": "mg/dL",
          "code": "mg/dL"
        },
        "referenceRange": [
          {
            "low": {
              "value": 7,
              "code": "mg/dL",
              "system": "http://unitsofmeasure.org"
            }
          },
          {
            "high": {
              "value": 25,
              "code": "mg/dL",
              "system": "http://unitsofmeasure.org"
            }
          }
        ],
        "text": {
          "status": "generated",
          "div": "<div xmlns=\"http://www.w3.org/1999/xhtml\"><table class=\"hl7__eu__lab__report\"><tr><th>Test</th><th>05-Aug-2022</th><th>Reference&#xA0;Range</th><th>Unit</th></tr><tr><td>Urea nitrogen [Mass/volume] in Blood</td><td>11.6</td><td>7 - 25</td><td></td><td>mg/dL</td></tr></table></div>"
        },
        "status": "final",
        "subject": {
          "reference": "urn:uuid:81bf612c-088c-480d-a2f4-50476f156cea",
          "display": "Martine Couturier"
        },
        "effectiveDateTime": "2022-08-05T20:13:15Z",
        "specimen": {
          "reference": "urn:uuid:5e9f4a20-f79f-4963-b940-60fe95f0877b"
        }
      }
    },
    {
      "fullUrl": "urn:uuid:6600269c-50fa-41b5-a159-c86bb156be01",
      "resource": {
        "resourceType": "Observation",
        "id": "6600269c-50fa-41b5-a159-c86bb156be01",
        "meta": {
          "profile": [
            "http://hl7.eu/fhir/laboratory/StructureDefinition/Observation-resultslab-eu-lab"
          ]
        },
        "performer": [
          {
            "display": "The Central European Lab"
          }
        ],
        "category": [
          {
            "coding": [
              {
                "system": "http://terminology.hl7.org/CodeSystem/observation-category",
                "code": "laboratory"
              }
            ]
          }
        ],
        "code": {
          "coding": [
            {
              "code": "38483-4",
              "system": "http://loinc.org",
              "display": "Creatinine [Mass/volume] in Blood"
            }
          ],
          "text": "Creatinine [Mass/volume] in Blood"
        },
        "valueQuantity": {
          "system": "http://unitsofmeasure.org",
          "value": 0.8,
          "unit": "mg/dL",
          "code": "mg/dL"
        },
        "referenceRange": [
          {
            "low": {
              "value": 0.6,
              "code": "mg/dL",
              "system": "http://unitsofmeasure.org"
            }
          },
          {
            "high": {
              "value": 1.1,
              "code": "mg/dL",
              "system": "http://unitsofmeasure.org"
            }
          }
        ],
        "text": {
          "status": "generated",
          "div": "<div xmlns=\"http://www.w3.org/1999/xhtml\"><table class=\"hl7__eu__lab__report\"><tr><th>Test</th><th>05-Aug-2022</th><th>Reference&#xA0;Range</th><th>Unit</th></tr><tr><td>Creatinine [Mass/volume] in Blood</td><td>0.8</td><td>0.6 - 1.1</td><td></td><td>mg/dL</td></tr></table></div>"
        },
        "status": "final",
        "subject": {
          "reference": "urn:uuid:81bf612c-088c-480d-a2f4-50476f156cea",
          "display": "Martine Couturier"
        },
        "effectiveDateTime": "2022-08-05T20:13:15Z",
        "specimen": {
          "reference": "urn:uuid:5e9f4a20-f79f-4963-b940-60fe95f0877b"
        }
      }
    },
    {
      "fullUrl": "urn:uuid:541ac421-ac20-4ddf-9a1a-756faf25b90f",
      "resource": {
        "resourceType": "Observation",
        "id": "541ac421-ac20-4ddf-9a1a-756faf25b90f",
        "meta": {
          "profile": [
            "http://hl7.eu/fhir/laboratory/StructureDefinition/Observation-resultslab-eu-lab"
          ]
        },
        "performer": [
          {
            "display": "The Central European Lab"
          }
        ],
        "category": [
          {
            "coding": [
              {
                "system": "http://terminology.hl7.org/CodeSystem/observation-category",
                "code": "laboratory"
              }
            ]
          }
        ],
        "code": {
          "coding": [
            {
              "code": "49765-1",
              "system": "http://loinc.org",
              "display": "Calcium [Mass/volume] in Blood"
            }
          ],
          "text": "Calcium [Mass/volume] in Blood"
        },
        "valueQuantity": {
          "system": "http://unitsofmeasure.org",
          "value": 10,
          "unit": "mg/dL",
          "code": "mg/dL"
        },
        "referenceRange": [
          {
            "low": {
              "value": 8.5,
              "code": "mg/dL",
              "system": "http://unitsofmeasure.org"
            }
          },
          {
            "high": {
              "value": 10.4,
              "code": "mg/dL",
              "system": "http://unitsofmeasure.org"
            }
          }
        ],
        "text": {
          "status": "generated",
          "div": "<div xmlns=\"http://www.w3.org/1999/xhtml\"><table class=\"hl7__eu__lab__report\"><tr><th>Test</th><th>05-Aug-2022</th><th>Reference&#xA0;Range</th><th>Unit</th></tr><tr><td>Calcium [Mass/volume] in Blood</td><td>10.0</td><td>8.5 - 10.4</td><td></td><td>mg/dL</td></tr></table></div>"
        },
        "status": "final",
        "subject": {
          "reference": "urn:uuid:81bf612c-088c-480d-a2f4-50476f156cea",
          "display": "Martine Couturier"
        },
        "effectiveDateTime": "2022-08-05T20:13:15Z",
        "specimen": {
          "reference": "urn:uuid:5e9f4a20-f79f-4963-b940-60fe95f0877b"
        }
      }
    },
    {
      "fullUrl": "urn:uuid:e44ff00c-7257-4fb7-87b8-50d9af940ea6",
      "resource": {
        "resourceType": "Observation",
        "id": "e44ff00c-7257-4fb7-87b8-50d9af940ea6",
        "meta": {
          "profile": [
            "http://hl7.eu/fhir/laboratory/StructureDefinition/Observation-resultslab-eu-lab"
          ]
        },
        "performer": [
          {
            "display": "The Central European Lab"
          }
        ],
        "category": [
          {
            "coding": [
              {
                "system": "http://terminology.hl7.org/CodeSystem/observation-category",
                "code": "laboratory"
              }
            ]
          }
        ],
        "code": {
          "coding": [
            {
              "code": "2947-0",
              "system": "http://loinc.org",
              "display": "Sodium [Moles/volume] in Blood"
            }
          ],
          "text": "Sodium [Moles/volume] in Blood"
        },
        "valueQuantity": {
          "system": "http://unitsofmeasure.org",
          "value": 141.8,
          "unit": "mmol/L",
          "code": "mmol/L"
        },
        "referenceRange": [
          {
            "low": {
              "value": 135,
              "code": "mmol/L",
              "system": "http://unitsofmeasure.org"
            }
          },
          {
            "high": {
              "value": 145,
              "code": "mmol/L",
              "system": "http://unitsofmeasure.org"
            }
          }
        ],
        "text": {
          "status": "generated",
          "div": "<div xmlns=\"http://www.w3.org/1999/xhtml\"><table class=\"hl7__eu__lab__report\"><tr><th>Test</th><th>05-Aug-2022</th><th>Reference&#xA0;Range</th><th>Unit</th></tr><tr><td>Sodium [Moles/volume] in Blood</td><td>141.8</td><td>135 - 145</td><td></td><td>mmol/L</td></tr></table></div>"
        },
        "status": "final",
        "subject": {
          "reference": "urn:uuid:81bf612c-088c-480d-a2f4-50476f156cea",
          "display": "Martine Couturier"
        },
        "effectiveDateTime": "2022-08-05T20:13:15Z",
        "specimen": {
          "reference": "urn:uuid:5e9f4a20-f79f-4963-b940-60fe95f0877b"
        }
      }
    },
    {
      "fullUrl": "urn:uuid:89c6e9b0-8495-461f-b981-128417a6ba90",
      "resource": {
        "resourceType": "Observation",
        "id": "89c6e9b0-8495-461f-b981-128417a6ba90",
        "meta": {
          "profile": [
            "http://hl7.eu/fhir/laboratory/StructureDefinition/Observation-resultslab-eu-lab"
          ]
        },
        "performer": [
          {
            "display": "The Central European Lab"
          }
        ],
        "category": [
          {
            "coding": [
              {
                "system": "http://terminology.hl7.org/CodeSystem/observation-category",
                "code": "laboratory"
              }
            ]
          }
        ],
        "code": {
          "coding": [
            {
              "code": "6298-4",
              "system": "http://loinc.org",
              "display": "Potassium [Moles/volume] in Blood"
            }
          ],
          "text": "Potassium [Moles/volume] in Blood"
        },
        "valueQuantity": {
          "system": "http://unitsofmeasure.org",
          "value": 5,
          "unit": "mmol/L",
          "code": "mmol/L"
        },
        "referenceRange": [
          {
            "low": {
              "value": 3.5,
              "code": "mmol/L",
              "system": "http://unitsofmeasure.org"
            }
          },
          {
            "high": {
              "value": 5.1,
              "code": "mmol/L",
              "system": "http://unitsofmeasure.org"
            }
          }
        ],
        "text": {
          "status": "generated",
          "div": "<div xmlns=\"http://www.w3.org/1999/xhtml\"><table class=\"hl7__eu__lab__report\"><tr><th>Test</th><th>05-Aug-2022</th><th>Reference&#xA0;Range</th><th>Unit</th></tr><tr><td>Potassium [Moles/volume] in Blood</td><td>5.0</td><td>3.5 - 5.1</td><td></td><td>mmol/L</td></tr></table></div>"
        },
        "status": "final",
        "subject": {
          "reference": "urn:uuid:81bf612c-088c-480d-a2f4-50476f156cea",
          "display": "Martine Couturier"
        },
        "effectiveDateTime": "2022-08-05T20:13:15Z",
        "specimen": {
          "reference": "urn:uuid:5e9f4a20-f79f-4963-b940-60fe95f0877b"
        }
      }
    },
    {
      "fullUrl": "urn:uuid:081423cd-8286-4d48-8ef1-a339f1b8fd5c",
      "resource": {
        "resourceType": "Observation",
        "id": "081423cd-8286-4d48-8ef1-a339f1b8fd5c",
        "meta": {
          "profile": [
            "http://hl7.eu/fhir/laboratory/StructureDefinition/Observation-resultslab-eu-lab"
          ]
        },
        "performer": [
          {
            "display": "The Central European Lab"
          }
        ],
        "category": [
          {
            "coding": [
              {
                "system": "http://terminology.hl7.org/CodeSystem/observation-category",
                "code": "laboratory"
              }
            ]
          }
        ],
        "code": {
          "coding": [
            {
              "code": "2069-3",
              "system": "http://loinc.org",
              "display": "Chloride [Moles/volume] in Blood"
            }
          ],
          "text": "Chloride [Moles/volume] in Blood"
        },
        "valueQuantity": {
          "system": "http://unitsofmeasure.org",
          "value": 105.7,
          "unit": "mmol/L",
          "code": "mmol/L"
        },
        "referenceRange": [
          {
            "low": {
              "value": 98,
              "code": "mmol/L",
              "system": "http://unitsofmeasure.org"
            }
          },
          {
            "high": {
              "value": 107,
              "code": "mmol/L",
              "system": "http://unitsofmeasure.org"
            }
          }
        ],
        "text": {
          "status": "generated",
          "div": "<div xmlns=\"http://www.w3.org/1999/xhtml\"><table class=\"hl7__eu__lab__report\"><tr><th>Test</th><th>05-Aug-2022</th><th>Reference&#xA0;Range</th><th>Unit</th></tr><tr><td>Chloride [Moles/volume] in Blood</td><td>105.7</td><td>98 - 107</td><td></td><td>mmol/L</td></tr></table></div>"
        },
        "status": "final",
        "subject": {
          "reference": "urn:uuid:81bf612c-088c-480d-a2f4-50476f156cea",
          "display": "Martine Couturier"
        },
        "effectiveDateTime": "2022-08-05T20:13:15Z",
        "specimen": {
          "reference": "urn:uuid:5e9f4a20-f79f-4963-b940-60fe95f0877b"
        }
      }
    },
    {
      "fullUrl": "urn:uuid:5c5f3349-0539-4afd-bf90-cbb4462af4e2",
      "resource": {
        "resourceType": "Observation",
        "id": "5c5f3349-0539-4afd-bf90-cbb4462af4e2",
        "meta": {
          "profile": [
            "http://hl7.eu/fhir/laboratory/StructureDefinition/Observation-resultslab-eu-lab"
          ]
        },
        "performer": [
          {
            "display": "The Central European Lab"
          }
        ],
        "category": [
          {
            "coding": [
              {
                "system": "http://terminology.hl7.org/CodeSystem/observation-category",
                "code": "laboratory"
              }
            ]
          }
        ],
        "code": {
          "coding": [
            {
              "code": "20565-8",
              "system": "http://loinc.org",
              "display": "Carbon dioxide, total [Moles/volume] in Blood"
            }
          ],
          "text": "Carbon dioxide, total [Moles/volume] in Blood"
        },
        "valueQuantity": {
          "system": "http://unitsofmeasure.org",
          "value": 23.2,
          "unit": "mmol/L",
          "code": "mmol/L"
        },
        "referenceRange": [
          {
            "low": {
              "value": 22,
              "code": "mmol/L",
              "system": "http://unitsofmeasure.org"
            }
          },
          {
            "high": {
              "value": 29,
              "code": "mmol/L",
              "system": "http://unitsofmeasure.org"
            }
          }
        ],
        "text": {
          "status": "generated",
          "div": "<div xmlns=\"http://www.w3.org/1999/xhtml\"><table class=\"hl7__eu__lab__report\"><tr><th>Test</th><th>05-Aug-2022</th><th>Reference&#xA0;Range</th><th>Unit</th></tr><tr><td>Carbon dioxide, total [Moles/volume] in Blood</td><td>23.2</td><td>22 - 29</td><td></td><td>mmol/L</td></tr></table></div>"
        },
        "status": "final",
        "subject": {
          "reference": "urn:uuid:81bf612c-088c-480d-a2f4-50476f156cea",
          "display": "Martine Couturier"
        },
        "effectiveDateTime": "2022-08-05T20:13:15Z",
        "specimen": {
          "reference": "urn:uuid:5e9f4a20-f79f-4963-b940-60fe95f0877b"
        }
      }
    },
    {
      "fullUrl": "urn:uuid:ce09591c-1790-4634-99c5-c44339018468",
      "resource": {
        "resourceType": "Observation",
        "id": "ce09591c-1790-4634-99c5-c44339018468",
        "meta": {
          "profile": [
            "http://hl7.eu/fhir/laboratory/StructureDefinition/Observation-resultslab-eu-lab"
          ]
        },
        "performer": [
          {
            "display": "The Central European Lab"
          }
        ],
        "category": [
          {
            "coding": [
              {
                "system": "http://terminology.hl7.org/CodeSystem/observation-category",
                "code": "laboratory"
              }
            ]
          }
        ],
        "code": {
          "coding": [
            {
              "code": "2093-3",
              "system": "http://loinc.org",
              "display": "Cholesterol [Mass/volume] in Serum or Plasma"
            }
          ],
          "text": "Cholesterol [Mass/volume] in Serum or Plasma"
        },
        "valueQuantity": {
          "system": "http://unitsofmeasure.org",
          "value": 207.9,
          "unit": "mg/dL",
          "code": "mg/dL"
        },
        "referenceRange": [
          {
            "low": {
              "value": 125,
              "code": "mg/dL",
              "system": "http://unitsofmeasure.org"
            }
          },
          {
            "high": {
              "value": 200,
              "code": "mg/dL",
              "system": "http://unitsofmeasure.org"
            }
          }
        ],
        "interpretation": [
          {
            "coding": [
              {
                "code": "H",
                "system": "http://terminology.hl7.org/CodeSystem/v3-ObservationInterpretation",
                "display": "High"
              }
            ]
          }
        ],
        "text": {
          "status": "generated",
          "div": "<div xmlns=\"http://www.w3.org/1999/xhtml\"><table class=\"hl7__eu__lab__report\"><tr><th>Test</th><th>05-Aug-2022</th><th>Reference&#xA0;Range</th><th>Unit</th></tr><tr><td>Cholesterol [Mass/volume] in Serum or Plasma</td><td>207.9</td><td>125 - 200</td><td>H</td><td>mg/dL</td></tr></table></div>"
        },
        "status": "final",
        "subject": {
          "reference": "urn:uuid:81bf612c-088c-480d-a2f4-50476f156cea",
          "display": "Martine Couturier"
        },
        "effectiveDateTime": "2022-08-05T20:13:15Z",
        "specimen": {
          "reference": "urn:uuid:35fcdb69-281a-48ff-8455-bc070684c691"
        }
      }
    },
    {
      "fullUrl": "urn:uuid:bcda5230-63e3-4470-91cb-2e17ab9e8e55",
      "resource": {
        "resourceType": "Observation",
        "id": "bcda5230-63e3-4470-91cb-2e17ab9e8e55",
        "meta": {
          "profile": [
            "http://hl7.eu/fhir/laboratory/StructureDefinition/Observation-resultslab-eu-lab"
          ]
        },
        "performer": [
          {
            "display": "The Central European Lab"
          }
        ],
        "category": [
          {
            "coding": [
              {
                "system": "http://terminology.hl7.org/CodeSystem/observation-category",
                "code": "laboratory"
              }
            ]
          }
        ],
        "code": {
          "coding": [
            {
              "code": "2571-8",
              "system": "http://loinc.org",
              "display": "Triglyceride [Mass/volume] in Serum or Plasma"
            }
          ],
          "text": "Triglyceride [Mass/volume] in Serum or Plasma"
        },
        "valueQuantity": {
          "system": "http://unitsofmeasure.org",
          "value": 171.8,
          "unit": "mg/dL",
          "code": "mg/dL"
        },
        "referenceRange": [
          {
            "low": {
              "value": 35,
              "code": "mg/dL",
              "system": "http://unitsofmeasure.org"
            }
          },
          {
            "high": {
              "value": 150,
              "code": "mg/dL",
              "system": "http://unitsofmeasure.org"
            }
          }
        ],
        "interpretation": [
          {
            "coding": [
              {
                "code": "H",
                "system": "http://terminology.hl7.org/CodeSystem/v3-ObservationInterpretation",
                "display": "High"
              }
            ]
          }
        ],
        "text": {
          "status": "generated",
          "div": "<div xmlns=\"http://www.w3.org/1999/xhtml\"><table class=\"hl7__eu__lab__report\"><tr><th>Test</th><th>05-Aug-2022</th><th>Reference&#xA0;Range</th><th>Unit</th></tr><tr><td>Triglyceride [Mass/volume] in Serum or Plasma</td><td>171.8</td><td>35 - 150</td><td>H</td><td>mg/dL</td></tr></table></div>"
        },
        "status": "final",
        "subject": {
          "reference": "urn:uuid:81bf612c-088c-480d-a2f4-50476f156cea",
          "display": "Martine Couturier"
        },
        "effectiveDateTime": "2022-08-05T20:13:15Z",
        "specimen": {
          "reference": "urn:uuid:35fcdb69-281a-48ff-8455-bc070684c691"
        }
      }
    },
    {
      "fullUrl": "urn:uuid:1ca048a3-be34-4edf-8c75-4a17b572cb76",
      "resource": {
        "resourceType": "Observation",
        "id": "1ca048a3-be34-4edf-8c75-4a17b572cb76",
        "meta": {
          "profile": [
            "http://hl7.eu/fhir/laboratory/StructureDefinition/Observation-resultslab-eu-lab"
          ]
        },
        "performer": [
          {
            "display": "The Central European Lab"
          }
        ],
        "category": [
          {
            "coding": [
              {
                "system": "http://terminology.hl7.org/CodeSystem/observation-category",
                "code": "laboratory"
              }
            ]
          }
        ],
        "code": {
          "coding": [
            {
              "code": "18262-6",
              "system": "http://loinc.org",
              "display": "Cholesterol in LDL [Mass/volume] in Serum or Plasma by Direct assay"
            }
          ],
          "text": "Cholesterol in LDL [Mass/volume] in Serum or Plasma by Direct assay"
        },
        "valueQuantity": {
          "system": "http://unitsofmeasure.org",
          "value": 130.6,
          "unit": "mg/dL",
          "code": "mg/dL"
        },
        "referenceRange": [
          {
            "low": {
              "value": 0,
              "code": "mg/dL",
              "system": "http://unitsofmeasure.org"
            }
          },
          {
            "high": {
              "value": 130,
              "code": "mg/dL",
              "system": "http://unitsofmeasure.org"
            }
          }
        ],
        "interpretation": [
          {
            "coding": [
              {
                "code": "H",
                "system": "http://terminology.hl7.org/CodeSystem/v3-ObservationInterpretation",
                "display": "High"
              }
            ]
          }
        ],
        "text": {
          "status": "generated",
          "div": "<div xmlns=\"http://www.w3.org/1999/xhtml\"><table class=\"hl7__eu__lab__report\"><tr><th>Test</th><th>05-Aug-2022</th><th>Reference&#xA0;Range</th><th>Unit</th></tr><tr><td>Cholesterol in LDL [Mass/volume] in Serum or Plasma by Direct assay</td><td>130.6</td><td>0 - 130</td><td>H</td><td>mg/dL</td></tr></table></div>"
        },
        "status": "final",
        "subject": {
          "reference": "urn:uuid:81bf612c-088c-480d-a2f4-50476f156cea",
          "display": "Martine Couturier"
        },
        "effectiveDateTime": "2022-08-05T20:13:15Z",
        "specimen": {
          "reference": "urn:uuid:35fcdb69-281a-48ff-8455-bc070684c691"
        }
      }
    },
    {
      "fullUrl": "urn:uuid:ebc8a62c-eeef-4980-8c83-2ab488a7e763",
      "resource": {
        "resourceType": "Observation",
        "id": "ebc8a62c-eeef-4980-8c83-2ab488a7e763",
        "meta": {
          "profile": [
            "http://hl7.eu/fhir/laboratory/StructureDefinition/Observation-resultslab-eu-lab"
          ]
        },
        "performer": [
          {
            "display": "The Central European Lab"
          }
        ],
        "category": [
          {
            "coding": [
              {
                "system": "http://terminology.hl7.org/CodeSystem/observation-category",
                "code": "laboratory"
              }
            ]
          }
        ],
        "code": {
          "coding": [
            {
              "code": "2085-9",
              "system": "http://loinc.org",
              "display": "Cholesterol in HDL [Mass/volume] in Serum or Plasma"
            }
          ],
          "text": "Cholesterol in HDL [Mass/volume] in Serum or Plasma"
        },
        "valueQuantity": {
          "system": "http://unitsofmeasure.org",
          "value": 43,
          "unit": "mg/dL",
          "code": "mg/dL"
        },
        "referenceRange": [
          {
            "low": {
              "value": 40,
              "code": "mg/dL",
              "system": "http://unitsofmeasure.org"
            }
          },
          {
            "high": {
              "value": 100,
              "code": "mg/dL",
              "system": "http://unitsofmeasure.org"
            }
          }
        ],
        "text": {
          "status": "generated",
          "div": "<div xmlns=\"http://www.w3.org/1999/xhtml\"><table class=\"hl7__eu__lab__report\"><tr><th>Test</th><th>05-Aug-2022</th><th>Reference&#xA0;Range</th><th>Unit</th></tr><tr><td>Cholesterol in HDL [Mass/volume] in Serum or Plasma</td><td>43.0</td><td>40 - 100</td><td></td><td>mg/dL</td></tr></table></div>"
        },
        "status": "final",
        "subject": {
          "reference": "urn:uuid:81bf612c-088c-480d-a2f4-50476f156cea",
          "display": "Martine Couturier"
        },
        "effectiveDateTime": "2022-08-05T20:13:15Z",
        "specimen": {
          "reference": "urn:uuid:35fcdb69-281a-48ff-8455-bc070684c691"
        }
      }
    },
    {
      "fullUrl": "urn:uuid:bca52b07-7de4-41ef-919a-43466066fd75",
      "resource": {
        "resourceType": "Observation",
        "id": "bca52b07-7de4-41ef-919a-43466066fd75",
        "meta": {
          "profile": [
            "http://hl7.eu/fhir/laboratory/StructureDefinition/Observation-resultslab-eu-lab"
          ]
        },
        "performer": [
          {
            "display": "The Central European Lab"
          }
        ],
        "category": [
          {
            "coding": [
              {
                "system": "http://terminology.hl7.org/CodeSystem/observation-category",
                "code": "laboratory"
              }
            ]
          }
        ],
        "code": {
          "coding": [
            {
              "code": "14959-1",
              "system": "http://loinc.org",
              "display": "Microalbumin/Creatinine [Mass Ratio] in Urine"
            }
          ],
          "text": "Microalbumin/Creatinine [Mass Ratio] in Urine"
        },
        "valueQuantity": {
          "system": "http://unitsofmeasure.org",
          "value": 15.6,
          "unit": "mg/g",
          "code": "mg/g"
        },
        "referenceRange": [
          {
            "low": {
              "value": 0,
              "code": "mg/g",
              "system": "http://unitsofmeasure.org"
            }
          },
          {
            "high": {
              "value": 30,
              "code": "mg/g",
              "system": "http://unitsofmeasure.org"
            }
          }
        ],
        "text": {
          "status": "generated",
          "div": "<div xmlns=\"http://www.w3.org/1999/xhtml\"><table class=\"hl7__eu__lab__report\"><tr><th>Test</th><th>05-Aug-2022</th><th>Reference&#xA0;Range</th><th>Unit</th></tr><tr><td>Microalbumin/Creatinine [Mass Ratio] in Urine</td><td>15.6</td><td>0 - 30</td><td></td><td>mg/g</td></tr></table></div>"
        },
        "status": "final",
        "subject": {
          "reference": "urn:uuid:81bf612c-088c-480d-a2f4-50476f156cea",
          "display": "Martine Couturier"
        },
        "effectiveDateTime": "2022-08-05T20:13:15Z",
        "specimen": {
          "reference": "urn:uuid:bb792717-3a2d-47b7-91f7-5a948286a0cd"
        }
      }
    },
    {
      "fullUrl": "urn:uuid:1f7131c7-49a6-4310-92ca-e50c5a746d6f",
      "resource": {
        "resourceType": "Observation",
        "id": "1f7131c7-49a6-4310-92ca-e50c5a746d6f",
        "meta": {
          "profile": [
            "http://hl7.eu/fhir/laboratory/StructureDefinition/Observation-resultslab-eu-lab"
          ]
        },
        "performer": [
          {
            "display": "The Central European Lab"
          }
        ],
        "category": [
          {
            "coding": [
              {
                "system": "http://terminology.hl7.org/CodeSystem/observation-category",
                "code": "laboratory"
              }
            ]
          }
        ],
        "code": {
          "coding": [
            {
              "code": "6690-2",
              "system": "http://loinc.org",
              "display": "Leukocytes [#/volume] in Blood by Automated count"
            }
          ],
          "text": "Leukocytes [#/volume] in Blood by Automated count"
        },
        "valueQuantity": {
          "system": "http://unitsofmeasure.org",
          "value": 4,
          "unit": "10*3/uL",
          "code": "10*3/uL"
        },
        "referenceRange": [
          {
            "low": {
              "value": 3.6,
              "code": "10*3/uL",
              "system": "http://unitsofmeasure.org"
            }
          },
          {
            "high": {
              "value": 10.5,
              "code": "10*3/uL",
              "system": "http://unitsofmeasure.org"
            }
          }
        ],
        "text": {
          "status": "generated",
          "div": "<div xmlns=\"http://www.w3.org/1999/xhtml\"><table class=\"hl7__eu__lab__report\"><tr><th>Test</th><th>05-Aug-2022</th><th>Reference&#xA0;Range</th><th>Unit</th></tr><tr><td>Leukocytes [#/volume] in Blood by Automated count</td><td>4.0</td><td>3.6 - 10.5</td><td></td><td>10*3/uL</td></tr></table></div>"
        },
        "status": "final",
        "subject": {
          "reference": "urn:uuid:81bf612c-088c-480d-a2f4-50476f156cea",
          "display": "Martine Couturier"
        },
        "effectiveDateTime": "2022-08-05T20:13:15Z",
        "specimen": {
          "reference": "urn:uuid:5e9f4a20-f79f-4963-b940-60fe95f0877b"
        }
      }
    },
    {
      "fullUrl": "urn:uuid:a357967a-a919-4009-b47c-c6e8687c670a",
      "resource": {
        "resourceType": "Observation",
        "id": "a357967a-a919-4009-b47c-c6e8687c670a",
        "meta": {
          "profile": [
            "http://hl7.eu/fhir/laboratory/StructureDefinition/Observation-resultslab-eu-lab"
          ]
        },
        "performer": [
          {
            "display": "The Central European Lab"
          }
        ],
        "category": [
          {
            "coding": [
              {
                "system": "http://terminology.hl7.org/CodeSystem/observation-category",
                "code": "laboratory"
              }
            ]
          }
        ],
        "code": {
          "coding": [
            {
              "code": "789-8",
              "system": "http://loinc.org",
              "display": "Erythrocytes [#/volume] in Blood by Automated count"
            }
          ],
          "text": "Erythrocytes [#/volume] in Blood by Automated count"
        },
        "valueQuantity": {
          "system": "http://unitsofmeasure.org",
          "value": 5,
          "unit": "10*6/uL",
          "code": "10*6/uL"
        },
        "referenceRange": [
          {
            "low": {
              "value": 4.2,
              "code": "10*6/uL",
              "system": "http://unitsofmeasure.org"
            }
          },
          {
            "high": {
              "value": 5.8,
              "code": "10*6/uL",
              "system": "http://unitsofmeasure.org"
            }
          }
        ],
        "text": {
          "status": "generated",
          "div": "<div xmlns=\"http://www.w3.org/1999/xhtml\"><table class=\"hl7__eu__lab__report\"><tr><th>Test</th><th>05-Aug-2022</th><th>Reference&#xA0;Range</th><th>Unit</th></tr><tr><td>Erythrocytes [#/volume] in Blood by Automated count</td><td>5.0</td><td>4.2 - 5.8</td><td></td><td>10*6/uL</td></tr></table></div>"
        },
        "status": "final",
        "subject": {
          "reference": "urn:uuid:81bf612c-088c-480d-a2f4-50476f156cea",
          "display": "Martine Couturier"
        },
        "effectiveDateTime": "2022-08-05T20:13:15Z",
        "specimen": {
          "reference": "urn:uuid:5e9f4a20-f79f-4963-b940-60fe95f0877b"
        }
      }
    },
    {
      "fullUrl": "urn:uuid:99ef786b-2471-4d21-aa8c-1689599c82df",
      "resource": {
        "resourceType": "Observation",
        "id": "99ef786b-2471-4d21-aa8c-1689599c82df",
        "meta": {
          "profile": [
            "http://hl7.eu/fhir/laboratory/StructureDefinition/Observation-resultslab-eu-lab"
          ]
        },
        "performer": [
          {
            "display": "The Central European Lab"
          }
        ],
        "category": [
          {
            "coding": [
              {
                "system": "http://terminology.hl7.org/CodeSystem/observation-category",
                "code": "laboratory"
              }
            ]
          }
        ],
        "code": {
          "coding": [
            {
              "code": "718-7",
              "system": "http://loinc.org",
              "display": "Hemoglobin [Mass/volume] in Blood"
            }
          ],
          "text": "Hemoglobin [Mass/volume] in Blood"
        },
        "valueQuantity": {
          "system": "http://unitsofmeasure.org",
          "value": 12.2,
          "unit": "g/dL",
          "code": "g/dL"
        },
        "referenceRange": [
          {
            "low": {
              "value": 12.1,
              "code": "g/dL",
              "system": "http://unitsofmeasure.org"
            }
          },
          {
            "high": {
              "value": 15.5,
              "code": "g/dL",
              "system": "http://unitsofmeasure.org"
            }
          }
        ],
        "text": {
          "status": "generated",
          "div": "<div xmlns=\"http://www.w3.org/1999/xhtml\"><table class=\"hl7__eu__lab__report\"><tr><th>Test</th><th>05-Aug-2022</th><th>Reference&#xA0;Range</th><th>Unit</th></tr><tr><td>Hemoglobin [Mass/volume] in Blood</td><td>12.2</td><td>12.1 - 15.5</td><td></td><td>g/dL</td></tr></table></div>"
        },
        "status": "final",
        "subject": {
          "reference": "urn:uuid:81bf612c-088c-480d-a2f4-50476f156cea",
          "display": "Martine Couturier"
        },
        "effectiveDateTime": "2022-08-05T20:13:15Z",
        "specimen": {
          "reference": "urn:uuid:5e9f4a20-f79f-4963-b940-60fe95f0877b"
        }
      }
    },
    {
      "fullUrl": "urn:uuid:d389cfda-8e03-48bc-84a4-ceb08f402514",
      "resource": {
        "resourceType": "Observation",
        "id": "d389cfda-8e03-48bc-84a4-ceb08f402514",
        "meta": {
          "profile": [
            "http://hl7.eu/fhir/laboratory/StructureDefinition/Observation-resultslab-eu-lab"
          ]
        },
        "performer": [
          {
            "display": "The Central European Lab"
          }
        ],
        "category": [
          {
            "coding": [
              {
                "system": "http://terminology.hl7.org/CodeSystem/observation-category",
                "code": "laboratory"
              }
            ]
          }
        ],
        "code": {
          "coding": [
            {
              "code": "4544-3",
              "system": "http://loinc.org",
              "display": "Hematocrit [Volume Fraction] of Blood by Automated count"
            }
          ],
          "text": "Hematocrit [Volume Fraction] of Blood by Automated count"
        },
        "valueQuantity": {
          "system": "http://unitsofmeasure.org",
          "value": 42.2,
          "unit": "%",
          "code": "%"
        },
        "referenceRange": [
          {
            "low": {
              "value": 37,
              "code": "%",
              "system": "http://unitsofmeasure.org"
            }
          },
          {
            "high": {
              "value": 52,
              "code": "%",
              "system": "http://unitsofmeasure.org"
            }
          }
        ],
        "text": {
          "status": "generated",
          "div": "<div xmlns=\"http://www.w3.org/1999/xhtml\"><table class=\"hl7__eu__lab__report\"><tr><th>Test</th><th>05-Aug-2022</th><th>Reference&#xA0;Range</th><th>Unit</th></tr><tr><td>Hematocrit [Volume Fraction] of Blood by Automated count</td><td>42.2</td><td>37 - 52</td><td></td><td>%</td></tr></table></div>"
        },
        "status": "final",
        "subject": {
          "reference": "urn:uuid:81bf612c-088c-480d-a2f4-50476f156cea",
          "display": "Martine Couturier"
        },
        "effectiveDateTime": "2022-08-05T20:13:15Z",
        "specimen": {
          "reference": "urn:uuid:5e9f4a20-f79f-4963-b940-60fe95f0877b"
        }
      }
    },
    {
      "fullUrl": "urn:uuid:b491167c-d300-4ec7-bbc2-a17ee83ffa5a",
      "resource": {
        "resourceType": "Observation",
        "id": "b491167c-d300-4ec7-bbc2-a17ee83ffa5a",
        "meta": {
          "profile": [
            "http://hl7.eu/fhir/laboratory/StructureDefinition/Observation-resultslab-eu-lab"
          ]
        },
        "performer": [
          {
            "display": "The Central European Lab"
          }
        ],
        "category": [
          {
            "coding": [
              {
                "system": "http://terminology.hl7.org/CodeSystem/observation-category",
                "code": "laboratory"
              }
            ]
          }
        ],
        "code": {
          "coding": [
            {
              "code": "787-2",
              "system": "http://loinc.org",
              "display": "MCV [Entitic volume] by Automated count"
            }
          ],
          "text": "MCV [Entitic volume] by Automated count"
        },
        "valueQuantity": {
          "system": "http://unitsofmeasure.org",
          "value": 80.6,
          "unit": "fL",
          "code": "fL"
        },
        "referenceRange": [
          {
            "low": {
              "value": 78,
              "code": "fL",
              "system": "http://unitsofmeasure.org"
            }
          },
          {
            "high": {
              "value": 98,
              "code": "fL",
              "system": "http://unitsofmeasure.org"
            }
          }
        ],
        "text": {
          "status": "generated",
          "div": "<div xmlns=\"http://www.w3.org/1999/xhtml\"><table class=\"hl7__eu__lab__report\"><tr><th>Test</th><th>05-Aug-2022</th><th>Reference&#xA0;Range</th><th>Unit</th></tr><tr><td>MCV [Entitic volume] by Automated count</td><td>80.6</td><td>78 - 98</td><td></td><td>fL</td></tr></table></div>"
        },
        "status": "final",
        "subject": {
          "reference": "urn:uuid:81bf612c-088c-480d-a2f4-50476f156cea",
          "display": "Martine Couturier"
        },
        "effectiveDateTime": "2022-08-05T20:13:15Z",
        "specimen": {
          "reference": "urn:uuid:5e9f4a20-f79f-4963-b940-60fe95f0877b"
        }
      }
    },
    {
      "fullUrl": "urn:uuid:82011e18-41cd-4be5-903b-8da483dee3ab",
      "resource": {
        "resourceType": "Observation",
        "id": "82011e18-41cd-4be5-903b-8da483dee3ab",
        "meta": {
          "profile": [
            "http://hl7.eu/fhir/laboratory/StructureDefinition/Observation-resultslab-eu-lab"
          ]
        },
        "performer": [
          {
            "display": "The Central European Lab"
          }
        ],
        "category": [
          {
            "coding": [
              {
                "system": "http://terminology.hl7.org/CodeSystem/observation-category",
                "code": "laboratory"
              }
            ]
          }
        ],
        "code": {
          "coding": [
            {
              "code": "785-6",
              "system": "http://loinc.org",
              "display": "MCH [Entitic mass] by Automated count"
            }
          ],
          "text": "MCH [Entitic mass] by Automated count"
        },
        "valueQuantity": {
          "system": "http://unitsofmeasure.org",
          "value": 29.4,
          "unit": "pg",
          "code": "pg"
        },
        "referenceRange": [
          {
            "low": {
              "value": 27,
              "code": "pg",
              "system": "http://unitsofmeasure.org"
            }
          },
          {
            "high": {
              "value": 34.5,
              "code": "pg",
              "system": "http://unitsofmeasure.org"
            }
          }
        ],
        "text": {
          "status": "generated",
          "div": "<div xmlns=\"http://www.w3.org/1999/xhtml\"><table class=\"hl7__eu__lab__report\"><tr><th>Test</th><th>05-Aug-2022</th><th>Reference&#xA0;Range</th><th>Unit</th></tr><tr><td>MCH [Entitic mass] by Automated count</td><td>29.4</td><td>27 - 34.5</td><td></td><td>pg</td></tr></table></div>"
        },
        "status": "final",
        "subject": {
          "reference": "urn:uuid:81bf612c-088c-480d-a2f4-50476f156cea",
          "display": "Martine Couturier"
        },
        "effectiveDateTime": "2022-08-05T20:13:15Z",
        "specimen": {
          "reference": "urn:uuid:5e9f4a20-f79f-4963-b940-60fe95f0877b"
        }
      }
    },
    {
      "fullUrl": "urn:uuid:b4a5c6ee-893d-4164-8e49-c6a5d5f5ef05",
      "resource": {
        "resourceType": "Observation",
        "id": "b4a5c6ee-893d-4164-8e49-c6a5d5f5ef05",
        "meta": {
          "profile": [
            "http://hl7.eu/fhir/laboratory/StructureDefinition/Observation-resultslab-eu-lab"
          ]
        },
        "performer": [
          {
            "display": "The Central European Lab"
          }
        ],
        "category": [
          {
            "coding": [
              {
                "system": "http://terminology.hl7.org/CodeSystem/observation-category",
                "code": "laboratory"
              }
            ]
          }
        ],
        "code": {
          "coding": [
            {
              "code": "786-4",
              "system": "http://loinc.org",
              "display": "MCHC [Mass/volume] by Automated count"
            }
          ],
          "text": "MCHC [Mass/volume] by Automated count"
        },
        "valueQuantity": {
          "system": "http://unitsofmeasure.org",
          "value": 33.7,
          "unit": "g/dL",
          "code": "g/dL"
        },
        "referenceRange": [
          {
            "low": {
              "value": 31,
              "code": "g/dL",
              "system": "http://unitsofmeasure.org"
            }
          },
          {
            "high": {
              "value": 35,
              "code": "g/dL",
              "system": "http://unitsofmeasure.org"
            }
          }
        ],
        "text": {
          "status": "generated",
          "div": "<div xmlns=\"http://www.w3.org/1999/xhtml\"><table class=\"hl7__eu__lab__report\"><tr><th>Test</th><th>05-Aug-2022</th><th>Reference&#xA0;Range</th><th>Unit</th></tr><tr><td>MCHC [Mass/volume] by Automated count</td><td>33.7</td><td>31 - 35</td><td></td><td>g/dL</td></tr></table></div>"
        },
        "status": "final",
        "subject": {
          "reference": "urn:uuid:81bf612c-088c-480d-a2f4-50476f156cea",
          "display": "Martine Couturier"
        },
        "effectiveDateTime": "2022-08-05T20:13:15Z",
        "specimen": {
          "reference": "urn:uuid:5e9f4a20-f79f-4963-b940-60fe95f0877b"
        }
      }
    },
    {
      "fullUrl": "urn:uuid:61590c17-8524-4ae3-aef1-bb8004f3af13",
      "resource": {
        "resourceType": "Observation",
        "id": "61590c17-8524-4ae3-aef1-bb8004f3af13",
        "meta": {
          "profile": [
            "http://hl7.eu/fhir/laboratory/StructureDefinition/Observation-resultslab-eu-lab"
          ]
        },
        "performer": [
          {
            "display": "The Central European Lab"
          }
        ],
        "category": [
          {
            "coding": [
              {
                "system": "http://terminology.hl7.org/CodeSystem/observation-category",
                "code": "laboratory"
              }
            ]
          }
        ],
        "code": {
          "coding": [
            {
              "code": "21000-5",
              "system": "http://loinc.org",
              "display": "Erythrocyte distribution width [Entitic volume] by Automated count"
            }
          ],
          "text": "Erythrocyte distribution width [Entitic volume] by Automated count"
        },
        "valueQuantity": {
          "system": "http://unitsofmeasure.org",
          "value": 43.3,
          "unit": "fL",
          "code": "fL"
        },
        "referenceRange": [
          {
            "low": {
              "value": 36,
              "code": "fL",
              "system": "http://unitsofmeasure.org"
            }
          },
          {
            "high": {
              "value": 55,
              "code": "fL",
              "system": "http://unitsofmeasure.org"
            }
          }
        ],
        "text": {
          "status": "generated",
          "div": "<div xmlns=\"http://www.w3.org/1999/xhtml\"><table class=\"hl7__eu__lab__report\"><tr><th>Test</th><th>05-Aug-2022</th><th>Reference&#xA0;Range</th><th>Unit</th></tr><tr><td>Erythrocyte distribution width [Entitic volume] by Automated count</td><td>43.3</td><td>36 - 55</td><td></td><td>fL</td></tr></table></div>"
        },
        "status": "final",
        "subject": {
          "reference": "urn:uuid:81bf612c-088c-480d-a2f4-50476f156cea",
          "display": "Martine Couturier"
        },
        "effectiveDateTime": "2022-08-05T20:13:15Z",
        "specimen": {
          "reference": "urn:uuid:5e9f4a20-f79f-4963-b940-60fe95f0877b"
        }
      }
    },
    {
      "fullUrl": "urn:uuid:47e9151a-1666-4ef1-b9c4-9f601045ac5b",
      "resource": {
        "resourceType": "Observation",
        "id": "47e9151a-1666-4ef1-b9c4-9f601045ac5b",
        "meta": {
          "profile": [
            "http://hl7.eu/fhir/laboratory/StructureDefinition/Observation-resultslab-eu-lab"
          ]
        },
        "performer": [
          {
            "display": "The Central European Lab"
          }
        ],
        "category": [
          {
            "coding": [
              {
                "system": "http://terminology.hl7.org/CodeSystem/observation-category",
                "code": "laboratory"
              }
            ]
          }
        ],
        "code": {
          "coding": [
            {
              "code": "777-3",
              "system": "http://loinc.org",
              "display": "Platelets [#/volume] in Blood by Automated count"
            }
          ],
          "text": "Platelets [#/volume] in Blood by Automated count"
        },
        "valueQuantity": {
          "system": "http://unitsofmeasure.org",
          "value": 326.5,
          "unit": "10*3/uL",
          "code": "10*3/uL"
        },
        "referenceRange": [
          {
            "low": {
              "value": 150,
              "code": "10*3/uL",
              "system": "http://unitsofmeasure.org"
            }
          },
          {
            "high": {
              "value": 450,
              "code": "10*3/uL",
              "system": "http://unitsofmeasure.org"
            }
          }
        ],
        "text": {
          "status": "generated",
          "div": "<div xmlns=\"http://www.w3.org/1999/xhtml\"><table class=\"hl7__eu__lab__report\"><tr><th>Test</th><th>05-Aug-2022</th><th>Reference&#xA0;Range</th><th>Unit</th></tr><tr><td>Platelets [#/volume] in Blood by Automated count</td><td>326.5</td><td>150 - 450</td><td></td><td>10*3/uL</td></tr></table></div>"
        },
        "status": "final",
        "subject": {
          "reference": "urn:uuid:81bf612c-088c-480d-a2f4-50476f156cea",
          "display": "Martine Couturier"
        },
        "effectiveDateTime": "2022-08-05T20:13:15Z",
        "specimen": {
          "reference": "urn:uuid:5e9f4a20-f79f-4963-b940-60fe95f0877b"
        }
      }
    },
    {
      "fullUrl": "urn:uuid:6fcee426-a944-4a0c-abd0-1eb4da1e3200",
      "resource": {
        "resourceType": "Observation",
        "id": "6fcee426-a944-4a0c-abd0-1eb4da1e3200",
        "meta": {
          "profile": [
            "http://hl7.eu/fhir/laboratory/StructureDefinition/Observation-resultslab-eu-lab"
          ]
        },
        "performer": [
          {
            "display": "The Central European Lab"
          }
        ],
        "category": [
          {
            "coding": [
              {
                "system": "http://terminology.hl7.org/CodeSystem/observation-category",
                "code": "laboratory"
              }
            ]
          }
        ],
        "code": {
          "coding": [
            {
              "code": "32207-3",
              "system": "http://loinc.org",
              "display": "Platelet distribution width [Entitic volume] in Blood by Automated count"
            }
          ],
          "text": "Platelet distribution width [Entitic volume] in Blood by Automated count"
        },
        "valueQuantity": {
          "system": "http://unitsofmeasure.org",
          "value": 259.6,
          "unit": "fL",
          "code": "fL"
        },
        "referenceRange": [
          {
            "low": {
              "value": 11.6,
              "code": "fL",
              "system": "http://unitsofmeasure.org"
            }
          },
          {
            "high": {
              "value": 17.4,
              "code": "fL",
              "system": "http://unitsofmeasure.org"
            }
          }
        ],
        "interpretation": [
          {
            "coding": [
              {
                "code": "H",
                "system": "http://terminology.hl7.org/CodeSystem/v3-ObservationInterpretation",
                "display": "High"
              }
            ]
          }
        ],
        "text": {
          "status": "generated",
          "div": "<div xmlns=\"http://www.w3.org/1999/xhtml\"><table class=\"hl7__eu__lab__report\"><tr><th>Test</th><th>05-Aug-2022</th><th>Reference&#xA0;Range</th><th>Unit</th></tr><tr><td>Platelet distribution width [Entitic volume] in Blood by Automated count</td><td>259.6</td><td>11.6 - 17.4</td><td>H</td><td>fL</td></tr></table></div>"
        },
        "status": "final",
        "subject": {
          "reference": "urn:uuid:81bf612c-088c-480d-a2f4-50476f156cea",
          "display": "Martine Couturier"
        },
        "effectiveDateTime": "2022-08-05T20:13:15Z",
        "specimen": {
          "reference": "urn:uuid:5e9f4a20-f79f-4963-b940-60fe95f0877b"
        }
      }
    },
    {
      "fullUrl": "urn:uuid:d38453eb-d856-4c53-972f-29f71ccb0ce7",
      "resource": {
        "resourceType": "Observation",
        "id": "d38453eb-d856-4c53-972f-29f71ccb0ce7",
        "meta": {
          "profile": [
            "http://hl7.eu/fhir/laboratory/StructureDefinition/Observation-resultslab-eu-lab"
          ]
        },
        "performer": [
          {
            "display": "The Central European Lab"
          }
        ],
        "category": [
          {
            "coding": [
              {
                "system": "http://terminology.hl7.org/CodeSystem/observation-category",
                "code": "laboratory"
              }
            ]
          }
        ],
        "code": {
          "coding": [
            {
              "code": "32623-1",
              "system": "http://loinc.org",
              "display": "Platelet mean volume [Entitic volume] in Blood by Automated count"
            }
          ],
          "text": "Platelet mean volume [Entitic volume] in Blood by Automated count"
        },
        "valueQuantity": {
          "system": "http://unitsofmeasure.org",
          "value": 10.4,
          "unit": "fL",
          "code": "fL"
        },
        "referenceRange": [
          {
            "low": {
              "value": 7.2,
              "code": "fL",
              "system": "http://unitsofmeasure.org"
            }
          },
          {
            "high": {
              "value": 13.8,
              "code": "fL",
              "system": "http://unitsofmeasure.org"
            }
          }
        ],
        "text": {
          "status": "generated",
          "div": "<div xmlns=\"http://www.w3.org/1999/xhtml\"><table class=\"hl7__eu__lab__report\"><tr><th>Test</th><th>05-Aug-2022</th><th>Reference&#xA0;Range</th><th>Unit</th></tr><tr><td>Platelet mean volume [Entitic volume] in Blood by Automated count</td><td>10.4</td><td>7.2 - 13.8</td><td></td><td>fL</td></tr></table></div>"
        },
        "status": "final",
        "subject": {
          "reference": "urn:uuid:81bf612c-088c-480d-a2f4-50476f156cea",
          "display": "Martine Couturier"
        },
        "effectiveDateTime": "2022-08-05T20:13:15Z",
        "specimen": {
          "reference": "urn:uuid:5e9f4a20-f79f-4963-b940-60fe95f0877b"
        }
      }
    },
    {
      "fullUrl": "urn:uuid:f9c4ef8d-ab37-4597-8d38-08dc9feafb0b",
      "resource": {
        "resourceType": "Device",
        "id": "f9c4ef8d-ab37-4597-8d38-08dc9feafb0b",
        "deviceName": [
          {
            "name": "SYNDERAI Synthetic Generator",
            "type": "manufacturer-name"
          }
        ],
        "version": [
          {
            "value": "5.0"
          }
        ],
        "text": {
          "status": "generated",
          "div": "<div xmlns=\"http://www.w3.org/1999/xhtml\">SYNDERAI Synthetic Generator v5.0</div>"
        },
        "status": "active\"",
        "distinctIdentifier": "synderai-generator-50",
        "manufacturer": "SYNDERAI Project"
      }
    },
    {
      "fullUrl": "urn:uuid:95bba2f7-794d-447d-8f38-ea212d6c931e",
      "resource": {
        "resourceType": "Provenance",
        "id": "95bba2f7-794d-447d-8f38-ea212d6c931e",
        "target": [
          {
            "reference": "Patient/81bf612c-088c-480d-a2f4-50476f156cea"
          },
          {
            "reference": "Bundle/38488791-ec41-4593-a519-c830a2c2584e"
          },
          {
            "reference": "Composition/783a20af-ebc2-46a2-aa4c-666aa3c6884e"
          },
          {
            "reference": "PractitionerRole/49f8e0b9-7686-4150-afe8-d86db32b934b"
          },
          {
            "reference": "Practitioner/cb67b0c9-9ad4-4325-8d9a-d3bea53f2374"
          },
          {
            "reference": "PractitionerRole/78ef928b-ed45-47b3-bab2-240a51134a1f"
          },
          {
            "reference": "Organization/b61f5f3e-900c-435d-a27d-24950b461e08"
          }
        ],
        "activity": {
          "text": "Synthetic Example Data Generation"
        },
        "policy": [
          "https://synderai.net/synderai-synthetic-data-policy"
        ],
        "agent": [
          {
            "type": {
              "text": "author"
            },
            "who": {
              "reference": "Device/f9c4ef8d-ab37-4597-8d38-08dc9feafb0b"
            }
          }
        ],
        "reason": [
          {
            "text": "Interoperability Testing and Training (non-clinical use)"
          }
        ],
        "text": {
          "status": "generated",
          "div": "<div xmlns=\"http://www.w3.org/1999/xhtml\">Provenance for SYNDERAI Synthetic Example Data Resource</div>"
        },
        "recorded": "2022-08-05T22:13:15Z"
      }
    },
    {
      "fullUrl": "urn:uuid:49f8e0b9-7686-4150-afe8-d86db32b934b",
      "resource": {
        "resourceType": "PractitionerRole",
        "id": "49f8e0b9-7686-4150-afe8-d86db32b934b",
        "meta": {
          "profile": [
            "http://hl7.eu/fhir/base/StructureDefinition/practitionerRole-eu"
          ]
        },
        "text": {
          "status": "generated",
          "div": "<div xmlns=\"http://www.w3.org/1999/xhtml\">Laboratory Role Id: 49f8e0b9-7686-4150-afe8-d86db32b934b</div>"
        },
        "practitioner": {
          "reference": "urn:uuid:cb67b0c9-9ad4-4325-8d9a-d3bea53f2374"
        }
      }
    },
    {
      "fullUrl": "urn:uuid:cb67b0c9-9ad4-4325-8d9a-d3bea53f2374",
      "resource": {
        "resourceType": "Practitioner",
        "id": "cb67b0c9-9ad4-4325-8d9a-d3bea53f2374",
        "meta": {
          "profile": [
            "http://hl7.eu/fhir/base/StructureDefinition/practitioner-eu"
          ]
        },
        "identifier": [
          {
            "assigner": {
              "display": "HL7 Europe"
            },
            "system": "urn:oid:2.16.840.1.113883.2.51.999",
            "value": "26db479b-6c6b-4b2c-b6ba-875754865e3c"
          }
        ],
        "name": [
          {
            "prefix": [
              "dr"
            ],
            "given": [
              "Ex"
            ],
            "family": "Ample"
          }
        ],
        "address": [
          {
            "line": [
              "Laboratoire Central Européenne",
              "Boulevard du Jardin Botanique 32"
            ],
            "postalCode": "1000",
            "city": "Brussels",
            "country": "Belgium"
          }
        ],
        "text": {
          "status": "generated",
          "div": "<div xmlns=\"http://www.w3.org/1999/xhtml\">Laboratory: Laboratoire Central Européenne, 1000 Brussels, Belgium</div>"
        }
      }
    }
  ],
  "type": "document",
  "timestamp": "2022-08-05T22:13:15Z"
}
