{
  "resourceType": "Bundle",
  "id": "e3e68d0a-7768-49bd-a245-41d484e213a2",
  "meta": {
    "profile": [
      "http://hl7.eu/fhir/laboratory/StructureDefinition/Bundle-eu-lab"
    ]
  },
  "identifier": {
    "assigner": {
      "display": "HL7 Europe"
    },
    "system": "urn:oid:2.16.840.1.113883.2.51.999",
    "value": "72362e94-1151-44b6-afc4-0f41c03a62cc"
  },
  "entry": [
    {
      "fullUrl": "urn:uuid:2604dbf2-935b-46bf-b812-b451f20e55bc",
      "resource": {
        "resourceType": "Composition",
        "id": "2604dbf2-935b-46bf-b812-b451f20e55bc",
        "meta": {
          "profile": [
            "http://hl7.eu/fhir/laboratory/StructureDefinition/Composition-eu-lab"
          ]
        },
        "identifier": {
          "assigner": {
            "display": "HL7 Europe"
          },
          "system": "urn:oid:2.16.840.1.113883.2.51.999",
          "value": "ae2346a7-f75d-47f1-955e-6d212d95029f"
        },
        "author": [
          {
            "reference": "urn:uuid:d1b66196-2767-4512-95a1-273497a520fd"
          }
        ],
        "category": [
          {
            "coding": [
              {
                "code": "26436-6",
                "system": "http://loinc.org",
                "display": "Laboratory studies (set)"
              }
            ]
          }
        ],
        "type": {
          "coding": [
            {
              "code": "11502-2",
              "system": "http://loinc.org",
              "display": "Laboratory report"
            }
          ],
          "text": "Laboratory Report"
        },
        "section": [
          {
            "code": {
              "coding": [
                {
                  "code": "26436-6",
                  "system": "http://loinc.org",
                  "display": "Laboratory studies (set)"
                }
              ],
              "text": "Laboratory studies"
            },
            "section": [
              {
                "code": {
                  "coding": [
                    {
                      "code": "$18723-7",
                      "system": "http://loinc.org",
                      "display": "Hematology studies (set)"
                    }
                  ],
                  "text": "Hematology"
                },
                "entry": [
                  {
                    "reference": "urn:uuid:a7b0df1a-10f6-4f8f-9717-cfd8b10a2b8c"
                  },
                  {
                    "reference": "urn:uuid:1bf14722-85fa-4715-b7a9-1626566ca039"
                  },
                  {
                    "reference": "urn:uuid:e2ccf6a0-a638-400c-a0f4-e9127afeb216"
                  },
                  {
                    "reference": "urn:uuid:2c32662c-f3fc-4957-9646-18b101edab4f"
                  },
                  {
                    "reference": "urn:uuid:3e0d3c48-6371-4684-8509-572c6c0585a7"
                  },
                  {
                    "reference": "urn:uuid:8e3819b5-11c2-4841-bda6-5e5a20de3d2f"
                  },
                  {
                    "reference": "urn:uuid:d4f2b475-431a-4db3-9c9f-e441c16a24f0"
                  },
                  {
                    "reference": "urn:uuid:98e2cd3b-632d-48d5-b603-186c6a7aa597"
                  },
                  {
                    "reference": "urn:uuid:91d51165-e1f1-432d-9a33-6fd3ebcc529d"
                  }
                ],
                "text": {
                  "status": "generated",
                  "div": "<div xmlns=\"http://www.w3.org/1999/xhtml\"><h3>Hematology</h3><table class=\"hl7__eu__lab__report\"><thead><tr><th>Test</th><th>28-JAN-2025</th><th>Reference&#xA0;Range</th><th>Unit</th></tr></thead><tbody><tr><td>Leukocytes [#/volume] in Blood by Automated count</td><td>5.0</td><td>3.6 - 10.5</td><td>10*3/uL</td></tr><tr><td>Erythrocytes [#/volume] in Blood by Automated count</td><td>4.4</td><td>4.3 - 6.1</td><td>10*6/uL</td></tr><tr><td>Hemoglobin [Mass/volume] in Blood</td><td>15.6</td><td>13.5 - 17.5</td><td>g/dL</td></tr><tr><td>Hematocrit [Volume Fraction] of Blood by Automated count</td><td>41.6</td><td>38 - 50</td><td>%</td></tr><tr><td>MCV [Entitic volume] by Automated count</td><td>92.7</td><td>76 - 98</td><td>fL</td></tr><tr><td>MCH [Entitic mass] by Automated count</td><td>28.9</td><td>27 - 33</td><td>pg</td></tr><tr><td>MCHC [Mass/volume] by Automated count</td><td>33.6</td><td>31 - 37</td><td>g/dL</td></tr><tr><td>Erythrocyte distribution width [Ratio] by Automated count</td><td>13.5</td><td>11.6 - 16.5</td><td>%</td></tr><tr><td>Platelets [#/volume] in Blood by Automated count</td><td>180.9</td><td>155 - 415</td><td>10*3/uL</td></tr></tbody></table></div>"
                },
                "title": "Hematology"
              },
              {
                "code": {
                  "coding": [
                    {
                      "code": "$18719-5",
                      "system": "http://loinc.org",
                      "display": "Chemistry studies (set)"
                    }
                  ],
                  "text": "Chemistry"
                },
                "entry": [
                  {
                    "reference": "urn:uuid:83e0e3c0-0dc6-4d12-b489-784fe5f9f500"
                  },
                  {
                    "reference": "urn:uuid:c8a30645-d2d3-488d-a834-16321774b3e3"
                  },
                  {
                    "reference": "urn:uuid:52d95a09-60db-4238-a9c1-068d1500bb66"
                  },
                  {
                    "reference": "urn:uuid:d86e828b-380a-474c-8bb3-fe0d9b5ea1e8"
                  },
                  {
                    "reference": "urn:uuid:4b9e5671-c502-4c86-9019-d48a1be66be7"
                  },
                  {
                    "reference": "urn:uuid:17f9656d-29aa-4819-b10e-1cf4d1c8946f"
                  },
                  {
                    "reference": "urn:uuid:cb0993e4-6f66-4be4-a91b-15cca139503f"
                  },
                  {
                    "reference": "urn:uuid:62f7c782-3824-4284-9be6-614eeddcba5a"
                  },
                  {
                    "reference": "urn:uuid:d1b2d105-12e4-4f6f-817e-f2e8699a64a6"
                  },
                  {
                    "reference": "urn:uuid:399aae5a-ba1f-4fc9-ac5e-86bb660404e4"
                  },
                  {
                    "reference": "urn:uuid:fb29a7f2-32fa-4303-8f6e-642c12b73cb0"
                  },
                  {
                    "reference": "urn:uuid:d4d139e1-20bd-4985-8626-4686f29cb6df"
                  },
                  {
                    "reference": "urn:uuid:9bd3e6bc-c908-439e-8376-a8f1ceed4f38"
                  },
                  {
                    "reference": "urn:uuid:d37e6605-d240-4283-b2ca-ac25f7b63141"
                  },
                  {
                    "reference": "urn:uuid:c78cadd7-1d1e-42dd-87a0-6be08b175561"
                  },
                  {
                    "reference": "urn:uuid:3fcfca91-222e-4942-88eb-121c82f53dc1"
                  },
                  {
                    "reference": "urn:uuid:a9f76d07-fc21-4df1-bb92-238ebb1b04c6"
                  },
                  {
                    "reference": "urn:uuid:da8436b7-8c6d-4a18-86ef-6988117913f9"
                  },
                  {
                    "reference": "urn:uuid:99e3939e-69be-4295-a213-affdef389f4f"
                  },
                  {
                    "reference": "urn:uuid:5f525366-5595-495e-8e1d-72fc11c71b6b"
                  },
                  {
                    "reference": "urn:uuid:fc577c5a-b169-450f-b8a2-52336d408942"
                  },
                  {
                    "reference": "urn:uuid:941a93e8-fe75-49f3-b3b6-7619607dfe97"
                  },
                  {
                    "reference": "urn:uuid:6f0b2fc2-4291-4b0e-85bd-f47930a128bb"
                  },
                  {
                    "reference": "urn:uuid:7ee1ac36-1ca1-43cf-93a3-231360b10451"
                  },
                  {
                    "reference": "urn:uuid:0757cb73-844b-4db2-8f91-2734786b2411"
                  },
                  {
                    "reference": "urn:uuid:492004b6-55d2-4f03-9dfd-bdc477cfbc88"
                  }
                ],
                "text": {
                  "status": "generated",
                  "div": "<div xmlns=\"http://www.w3.org/1999/xhtml\"><h3>Chemistry</h3><table class=\"hl7__eu__lab__report\"><thead><tr><th>Test</th><th>28-JAN-2025</th><th>Reference&#xA0;Range</th><th>Unit</th></tr></thead><tbody><tr><td>Natriuretic peptide.B prohormone N-Terminal [Mass/volume] in Serum or Plasma</td><td><strong>1307.5 H</strong></td><td>300 - 900</td><td>pg/mL</td></tr><tr><td>Glucose [Mass/volume] in Serum or Plasma</td><td><strong>193.3 H</strong></td><td>70 - 140</td><td>mg/dL</td></tr><tr><td>Urea nitrogen [Mass/volume] in Serum or Plasma</td><td>7.1</td><td>7 - 50</td><td>mg/dL</td></tr><tr><td>Creatinine [Mass/volume] in Serum or Plasma</td><td><strong>0.8 L</strong></td><td>0.9 - 1.3</td><td>mg/dL</td></tr><tr><td>Calcium [Mass/volume] in Serum or Plasma</td><td>9.0</td><td>8.5 - 10.5</td><td>mg/dL</td></tr><tr><td>Sodium [Moles/volume] in Serum or Plasma</td><td>140.7</td><td>135 - 145</td><td>mmol/L</td></tr><tr><td>Potassium [Moles/volume] in Serum or Plasma</td><td>4.5</td><td>3.5 - 5.1</td><td>mmol/L</td></tr><tr><td>Chloride [Moles/volume] in Serum or Plasma</td><td>106.3</td><td>98 - 108</td><td>mmol/L</td></tr><tr><td>Carbon dioxide, total [Moles/volume] in Serum or Plasma</td><td>25.6</td><td>22 - 32</td><td>mmol/L</td></tr><tr><td>Protein [Mass/volume] in Serum or Plasma</td><td>7.2</td><td>6 - 8.3</td><td>g/dL</td></tr><tr><td>Albumin [Mass/volume] in Serum or Plasma</td><td>4.1</td><td>3.5 - 5.5</td><td>g/dL</td></tr><tr><td>Bilirubin.total [Mass/volume] in Serum or Plasma</td><td>1.0</td><td>0.3 - 1.2</td><td>mg/dL</td></tr><tr><td>Alkaline phosphatase [Enzymatic activity/volume] in Serum or Plasma</td><td>58.9</td><td>40 - 117</td><td>U/L</td></tr><tr><td>Alanine aminotransferase [Enzymatic activity/volume] in Serum or Plasma</td><td>19.4</td><td>10 - 66</td><td>U/L</td></tr><tr><td>Aspartate aminotransferase [Enzymatic activity/volume] in Serum or Plasma</td><td>12.4</td><td>10 - 40</td><td>U/L</td></tr><tr><td>Magnesium [Mass/volume] in Serum or Plasma</td><td>1.8</td><td>1.6 - 2.6</td><td>mg/dL</td></tr><tr><td>Cholesterol [Mass/volume] in Serum or Plasma</td><td><strong>252.0 H</strong></td><td>0 - 200</td><td>mg/dL</td></tr><tr><td>Triglyceride [Mass/volume] in Serum or Plasma</td><td><strong>308.3 H</strong></td><td>0 - 199</td><td>mg/dL</td></tr><tr><td>Cholesterol in LDL [Mass/volume] in Serum or Plasma by Direct assay</td><td><strong>150.4 H</strong></td><td>0 - 130</td><td>mg/dL</td></tr><tr><td>Cholesterol in HDL [Mass/volume] in Serum or Plasma</td><td><strong>39.9 L</strong></td><td>40 - 100</td><td>mg/dL</td></tr><tr><td>Hemoglobin A1c/Hemoglobin.total in Blood</td><td>5.5</td><td>4.5 - 6.4</td><td>%</td></tr><tr><td>Troponin I.cardiac [Mass/volume] in Serum or Plasma by High sensitivity method</td><td>0.0</td><td>0 - 19.9</td><td>pg/mL</td></tr><tr><td>Ferritin [Mass/volume] in Serum or Plasma</td><td>136.8</td><td>30 - 300</td><td>ug/L</td></tr><tr><td>Iron [Mass/volume] in Serum or Plasma</td><td><strong>62.7 L</strong></td><td>65 - 300</td><td>ug/dL</td></tr><tr><td>Iron binding capacity [Mass/volume] in Serum or Plasma</td><td>404.4</td><td>250 - 450</td><td>ug/dL</td></tr><tr><td>Iron saturation [Mass Fraction] in Serum or Plasma</td><td>43.4</td><td>15 - 45</td><td>%</td></tr></tbody></table></div>"
                },
                "title": "Chemistry"
              }
            ],
            "title": "Laboratory Report"
          },
          {
            "text": {
              "status": "generated",
              "div": "<div xmlns=\"http://www.w3.org/1999/xhtml\"><h3>Annotation</h3><table class=\"hl7__eu__lab__report\"><tr><th>Conclusion and Recommendations based on this report and previous findings known to us</th></tr><tr><td>The patient shows markedly elevated NT-proBNP, suggesting possible heart failure or cardiac strain. Glucose is high, indicating hyperglycemia, but HbA1c is within range, suggesting acute rather than chronic elevation. Lipid profile is atherogenic (high total cholesterol, LDL, triglycerides; low HDL). Creatinine is slightly low, not clinically significant. Mildly low serum iron with normal ferritin and iron saturation may reflect anemia of chronic disease or recent inflammation. Other parameters are within normal limits. Recommend clinical correlation for cardiac and metabolic risk assessment.</td></tr></table></div>"
            },
            "code": {
              "coding": [
                {
                  "system": "http://loinc.org",
                  "code": "48767-8",
                  "display": "Annotation comment"
                }
              ]
            },
            "title": "Annotation comment"
          }
        ],
        "status": "final",
        "subject": {
          "reference": "urn:uuid:0e38f89c-ce33-48a0-ab28-cadee86f27b9",
          "display": "Timothy Smith"
        },
        "date": "2025-01-28T04:53:59Z",
        "title": "Laboratory Report",
        "confidentiality": "N"
      }
    },
    {
      "fullUrl": "urn:uuid:2e84ea6f-bb6a-496e-8762-61838e1a5bd2",
      "resource": {
        "resourceType": "DiagnosticReport",
        "id": "2e84ea6f-bb6a-496e-8762-61838e1a5bd2",
        "meta": {
          "profile": [
            "http://hl7.eu/fhir/laboratory/StructureDefinition/DiagnosticReport-eu-lab"
          ]
        },
        "identifier": [
          {
            "assigner": {
              "display": "HL7 Europe"
            },
            "system": "urn:oid:2.16.840.1.113883.2.51.999",
            "value": "73f41547-3b89-48fb-8e59-6b624334e56f"
          }
        ],
        "extension": [
          {
            "url": "http://hl7.org/fhir/5.0/StructureDefinition/extension-DiagnosticReport.composition",
            "valueReference": {
              "reference": "urn:uuid:ae2346a7-f75d-47f1-955e-6d212d95029f"
            }
          }
        ],
        "category": [
          {
            "coding": [
              {
                "code": "26436-6",
                "system": "http://loinc.org",
                "display": "Laboratory studies (set)"
              }
            ]
          }
        ],
        "specimen": [
          {
            "reference": "urn:uuid:e60242a2-6c1d-4a5c-a0f6-d06b550c2453"
          },
          {
            "reference": "urn:uuid:f76a6ab7-967e-4469-879c-b22ebca2af67"
          },
          {
            "reference": "urn:uuid:f76a6ab7-967e-4469-879c-b22ebca2af67"
          }
        ],
        "result": [
          {
            "reference": "urn:uuid:83e0e3c0-0dc6-4d12-b489-784fe5f9f500"
          },
          {
            "reference": "urn:uuid:a7b0df1a-10f6-4f8f-9717-cfd8b10a2b8c"
          },
          {
            "reference": "urn:uuid:1bf14722-85fa-4715-b7a9-1626566ca039"
          },
          {
            "reference": "urn:uuid:e2ccf6a0-a638-400c-a0f4-e9127afeb216"
          },
          {
            "reference": "urn:uuid:2c32662c-f3fc-4957-9646-18b101edab4f"
          },
          {
            "reference": "urn:uuid:3e0d3c48-6371-4684-8509-572c6c0585a7"
          },
          {
            "reference": "urn:uuid:8e3819b5-11c2-4841-bda6-5e5a20de3d2f"
          },
          {
            "reference": "urn:uuid:d4f2b475-431a-4db3-9c9f-e441c16a24f0"
          },
          {
            "reference": "urn:uuid:98e2cd3b-632d-48d5-b603-186c6a7aa597"
          },
          {
            "reference": "urn:uuid:91d51165-e1f1-432d-9a33-6fd3ebcc529d"
          },
          {
            "reference": "urn:uuid:c8a30645-d2d3-488d-a834-16321774b3e3"
          },
          {
            "reference": "urn:uuid:52d95a09-60db-4238-a9c1-068d1500bb66"
          },
          {
            "reference": "urn:uuid:d86e828b-380a-474c-8bb3-fe0d9b5ea1e8"
          },
          {
            "reference": "urn:uuid:4b9e5671-c502-4c86-9019-d48a1be66be7"
          },
          {
            "reference": "urn:uuid:17f9656d-29aa-4819-b10e-1cf4d1c8946f"
          },
          {
            "reference": "urn:uuid:cb0993e4-6f66-4be4-a91b-15cca139503f"
          },
          {
            "reference": "urn:uuid:62f7c782-3824-4284-9be6-614eeddcba5a"
          },
          {
            "reference": "urn:uuid:d1b2d105-12e4-4f6f-817e-f2e8699a64a6"
          },
          {
            "reference": "urn:uuid:399aae5a-ba1f-4fc9-ac5e-86bb660404e4"
          },
          {
            "reference": "urn:uuid:fb29a7f2-32fa-4303-8f6e-642c12b73cb0"
          },
          {
            "reference": "urn:uuid:d4d139e1-20bd-4985-8626-4686f29cb6df"
          },
          {
            "reference": "urn:uuid:9bd3e6bc-c908-439e-8376-a8f1ceed4f38"
          },
          {
            "reference": "urn:uuid:d37e6605-d240-4283-b2ca-ac25f7b63141"
          },
          {
            "reference": "urn:uuid:c78cadd7-1d1e-42dd-87a0-6be08b175561"
          },
          {
            "reference": "urn:uuid:3fcfca91-222e-4942-88eb-121c82f53dc1"
          },
          {
            "reference": "urn:uuid:a9f76d07-fc21-4df1-bb92-238ebb1b04c6"
          },
          {
            "reference": "urn:uuid:da8436b7-8c6d-4a18-86ef-6988117913f9"
          },
          {
            "reference": "urn:uuid:99e3939e-69be-4295-a213-affdef389f4f"
          },
          {
            "reference": "urn:uuid:5f525366-5595-495e-8e1d-72fc11c71b6b"
          },
          {
            "reference": "urn:uuid:fc577c5a-b169-450f-b8a2-52336d408942"
          },
          {
            "reference": "urn:uuid:941a93e8-fe75-49f3-b3b6-7619607dfe97"
          },
          {
            "reference": "urn:uuid:6f0b2fc2-4291-4b0e-85bd-f47930a128bb"
          },
          {
            "reference": "urn:uuid:7ee1ac36-1ca1-43cf-93a3-231360b10451"
          },
          {
            "reference": "urn:uuid:0757cb73-844b-4db2-8f91-2734786b2411"
          },
          {
            "reference": "urn:uuid:492004b6-55d2-4f03-9dfd-bdc477cfbc88"
          }
        ],
        "status": "registered",
        "code": {
          "coding": [
            {
              "code": "11502-2",
              "system": "http://loinc.org",
              "display": "Laboratory report"
            }
          ]
        },
        "subject": {
          "reference": "urn:uuid:0e38f89c-ce33-48a0-ab28-cadee86f27b9",
          "display": "Timothy Smith"
        }
      }
    },
    {
      "fullUrl": "urn:uuid:0e38f89c-ce33-48a0-ab28-cadee86f27b9",
      "resource": {
        "resourceType": "Patient",
        "id": "0e38f89c-ce33-48a0-ab28-cadee86f27b9",
        "meta": {
          "security": [
            {
              "system": "http://terminology.hl7.org/CodeSystem/v3-ActReason",
              "code": "HTEST"
            },
            {
              "system": "http://terminology.hl7.org/CodeSystem/v3-ActReason",
              "code": "TRAIN"
            }
          ],
          "tag": [
            {
              "system": "https://synderai.net/fhir/CodeSystem/tags",
              "code": "synthetic",
              "display": "SYNDERAI Synthetic data"
            }
          ],
          "profile": [
            "http://hl7.eu/fhir/base/StructureDefinition/patient-eu-core"
          ]
        },
        "identifier": [
          {
            "type": {
              "coding": [
                {
                  "code": "PT",
                  "system": "http://terminology.hl7.org/CodeSystem/v2-0203"
                }
              ]
            },
            "system": "http://ec.europa.eu/identifier/eci",
            "value": "8029-862360-6"
          },
          {
            "type": {
              "coding": [
                {
                  "code": "MR",
                  "system": "http://terminology.hl7.org/CodeSystem/v2-0203"
                }
              ]
            },
            "system": "http://local.setting.eu/identifier",
            "value": "1fe71aa8-fb8e-4622-d398-65f6235c4fef"
          }
        ],
        "name": [
          {
            "family": "Smith"
          },
          {
            "given": [
              "Timothy"
            ]
          },
          {
            "text": "Timothy Smith"
          }
        ],
        "address": [
          {
            "line": [
              "9 Jeffrey orchard"
            ],
            "use": "home",
            "type": "physical",
            "postalCode": "NW1",
            "city": "North Joshuaville",
            "country": "United Kingdom"
          }
        ],
        "telecom": [
          {
            "system": "phone",
            "value": "+44(0)28 9018592"
          }
        ],
        "extension": [
          {
            "url": "http://hl7.org/fhir/StructureDefinition/patient-nationality",
            "valueCodeableConcept": {
              "coding": [
                {
                  "code": "GB",
                  "system": "http://hl7.org/fhir/ValueSet/country"
                }
              ]
            }
          }
        ],
        "text": {
          "status": "generated",
          "div": "<div xmlns=\"http://www.w3.org/1999/xhtml\"><table class=\"hl7__ips\"><tr><td>Timothy Smith</td><td>male</td><td>10-Sep-1941</td></tr></table></div>"
        },
        "gender": "male",
        "birthDate": "1941-09-10"
      }
    },
    {
      "fullUrl": "urn:uuid:dc96b1ef-6ae2-474e-8d77-713bda8c9421",
      "resource": {
        "resourceType": "ServiceRequest",
        "id": "dc96b1ef-6ae2-474e-8d77-713bda8c9421",
        "meta": {
          "profile": [
            "http://hl7.eu/fhir/laboratory/StructureDefinition/ServiceRequest-eu-lab"
          ]
        },
        "identifier": [
          {
            "system": "http://example.org",
            "value": "ff5dc84f-0367-4814-9efc-e4a7762fda0e"
          }
        ],
        "specimen": [
          {
            "reference": "urn:uuid:e60242a2-6c1d-4a5c-a0f6-d06b550c2453"
          },
          {
            "reference": "urn:uuid:f76a6ab7-967e-4469-879c-b22ebca2af67"
          }
        ],
        "reasonCode": [
          {
            "coding": [
              {
                "code": "88805009",
                "system": "http://snomed.info/sct",
                "display": "Chronic congestive heart failure"
              }
            ]
          },
          {
            "coding": [
              {
                "code": "60573004",
                "system": "http://snomed.info/sct",
                "display": "Aortic valve stenosis"
              }
            ]
          },
          {
            "coding": [
              {
                "code": "414545008",
                "system": "http://snomed.info/sct",
                "display": "Ischemic heart disease"
              }
            ]
          },
          {
            "coding": [
              {
                "code": "64859006",
                "system": "http://snomed.info/sct",
                "display": "Osteoporosis"
              }
            ]
          },
          {
            "coding": [
              {
                "code": "6525002",
                "system": "http://snomed.info/sct",
                "display": "Dependent drug abuse"
              }
            ]
          },
          {
            "coding": [
              {
                "code": "55822004",
                "system": "http://snomed.info/sct",
                "display": "Hyperlipidemia"
              }
            ]
          },
          {
            "coding": [
              {
                "code": "78275009",
                "system": "http://snomed.info/sct",
                "display": "Obstructive sleep apnea syndrome"
              }
            ]
          },
          {
            "coding": [
              {
                "code": "39898005",
                "system": "http://snomed.info/sct",
                "display": "Sleep disorder"
              }
            ]
          },
          {
            "coding": [
              {
                "code": "401314000",
                "system": "http://snomed.info/sct",
                "display": "Acute non-ST segment elevation myocardial infarction"
              }
            ]
          },
          {
            "coding": [
              {
                "code": "124171000119105",
                "system": "http://snomed.info/sct",
                "display": "Chronic intractable migraine without aura"
              }
            ]
          },
          {
            "coding": [
              {
                "code": "196416002",
                "system": "http://snomed.info/sct",
                "display": "Impacted molars"
              }
            ]
          },
          {
            "coding": [
              {
                "code": "59621000",
                "system": "http://snomed.info/sct",
                "display": "Essential hypertension"
              }
            ]
          },
          {
            "coding": [
              {
                "code": "80394007",
                "system": "http://snomed.info/sct",
                "display": "Hyperglycemia"
              }
            ]
          },
          {
            "coding": [
              {
                "code": "237602007",
                "system": "http://snomed.info/sct",
                "display": "Metabolic syndrome X"
              }
            ]
          },
          {
            "coding": [
              {
                "code": "302870006",
                "system": "http://snomed.info/sct",
                "display": "Hypertriglyceridemia"
              }
            ]
          },
          {
            "coding": [
              {
                "code": "44054006",
                "system": "http://snomed.info/sct",
                "display": "Type 2 diabetes mellitus"
              }
            ]
          },
          {
            "coding": [
              {
                "code": "271737000",
                "system": "http://snomed.info/sct",
                "display": "Anemia"
              }
            ]
          },
          {
            "coding": [
              {
                "code": "15777000",
                "system": "http://snomed.info/sct",
                "display": "Prediabetes"
              }
            ]
          }
        ],
        "status": "active",
        "intent": "order",
        "code": {
          "coding": [
            {
              "code": "108252007",
              "system": "http://snomed.info/sct",
              "display": "Laboratory procedure"
            }
          ]
        },
        "subject": {
          "reference": "urn:uuid:0e38f89c-ce33-48a0-ab28-cadee86f27b9",
          "display": "Timothy Smith"
        },
        "requester": {
          "reference": "urn:uuid:aa6b9adc-ebb6-4e46-b631-1656e4194361"
        }
      }
    },
    {
      "fullUrl": "urn:uuid:aa6b9adc-ebb6-4e46-b631-1656e4194361",
      "resource": {
        "resourceType": "PractitionerRole",
        "id": "aa6b9adc-ebb6-4e46-b631-1656e4194361",
        "meta": {
          "profile": [
            "http://hl7.eu/fhir/base/StructureDefinition/practitionerRole-eu"
          ]
        },
        "text": {
          "status": "generated",
          "div": "<div xmlns=\"http://www.w3.org/1999/xhtml\">Provider Role Id: aa6b9adc-ebb6-4e46-b631-1656e4194361</div>"
        },
        "organization": {
          "reference": "urn:uuid:be18f341-2323-411a-b69f-d861810a9d4a"
        }
      }
    },
    {
      "fullUrl": "urn:uuid:be18f341-2323-411a-b69f-d861810a9d4a",
      "resource": {
        "resourceType": "Organization",
        "id": "be18f341-2323-411a-b69f-d861810a9d4a",
        "meta": {
          "profile": [
            "http://hl7.eu/fhir/base/StructureDefinition/organization-eu"
          ]
        },
        "identifier": [
          {
            "assigner": {
              "display": "HL7 Europe"
            },
            "system": "urn:oid:2.16.840.1.113883.2.51.999",
            "value": "ad11b8bc-6127-4475-8d84-23f0e19290cf"
          }
        ],
        "address": [
          {
            "city": "London",
            "postalCode": "SE1 7",
            "country": "United Kingdom"
          }
        ],
        "text": {
          "status": "generated",
          "div": "<div xmlns=\"http://www.w3.org/1999/xhtml\">Provider Organization: Evelina Children&#039;s Hospital</div>"
        },
        "name": "Evelina Children&#039;s Hospital"
      }
    },
    {
      "fullUrl": "urn:uuid:e60242a2-6c1d-4a5c-a0f6-d06b550c2453",
      "resource": {
        "resourceType": "Specimen",
        "id": "e60242a2-6c1d-4a5c-a0f6-d06b550c2453",
        "meta": {
          "profile": [
            "http://hl7.eu/fhir/laboratory/StructureDefinition/Specimen-eu-lab"
          ]
        },
        "collection": {
          "collectedDateTime": "2025-01-28"
        },
        "text": {
          "status": "generated",
          "div": "<div xmlns=\"http://www.w3.org/1999/xhtml\"><table class=\"hl7__eu__lab__report\"><tr><th>Specimen</th><th>Collection Date</th></tr><tr><td>Acellular blood (serum or plasma) specimen</td><td><span class=\"nb\">28-Jan-2025</span></td></tr></table></div>"
        },
        "type": {
          "coding": [
            {
              "code": "122592007",
              "system": "http://snomed.info/sct",
              "display": "Acellular blood (serum or plasma) specimen"
            }
          ]
        }
      }
    },
    {
      "fullUrl": "urn:uuid:f76a6ab7-967e-4469-879c-b22ebca2af67",
      "resource": {
        "resourceType": "Specimen",
        "id": "f76a6ab7-967e-4469-879c-b22ebca2af67",
        "meta": {
          "profile": [
            "http://hl7.eu/fhir/laboratory/StructureDefinition/Specimen-eu-lab"
          ]
        },
        "collection": {
          "collectedDateTime": "2025-01-28"
        },
        "text": {
          "status": "generated",
          "div": "<div xmlns=\"http://www.w3.org/1999/xhtml\"><table class=\"hl7__eu__lab__report\"><tr><th>Specimen</th><th>Collection Date</th></tr><tr><td>Whole blood specimen (specimen)</td><td><span class=\"nb\">28-Jan-2025</span></td></tr></table></div>"
        },
        "type": {
          "coding": [
            {
              "code": "258580003",
              "system": "http://snomed.info/sct",
              "display": "Whole blood specimen (specimen)"
            }
          ]
        }
      }
    },
    {
      "fullUrl": "urn:uuid:f76a6ab7-967e-4469-879c-b22ebca2af67",
      "resource": {
        "resourceType": "Specimen",
        "id": "f76a6ab7-967e-4469-879c-b22ebca2af67",
        "meta": {
          "profile": [
            "http://hl7.eu/fhir/laboratory/StructureDefinition/Specimen-eu-lab"
          ]
        },
        "collection": {
          "collectedDateTime": "2025-01-28"
        },
        "text": {
          "status": "generated",
          "div": "<div xmlns=\"http://www.w3.org/1999/xhtml\"><table class=\"hl7__eu__lab__report\"><tr><th>Specimen</th><th>Collection Date</th></tr><tr><td>Whole blood specimen (specimen)</td><td><span class=\"nb\">28-Jan-2025</span></td></tr></table></div>"
        },
        "type": {
          "coding": [
            {
              "code": "258580003",
              "system": "http://snomed.info/sct",
              "display": "Whole blood specimen (specimen)"
            }
          ]
        }
      }
    },
    {
      "fullUrl": "urn:uuid:83e0e3c0-0dc6-4d12-b489-784fe5f9f500",
      "resource": {
        "resourceType": "Observation",
        "id": "83e0e3c0-0dc6-4d12-b489-784fe5f9f500",
        "meta": {
          "profile": [
            "http://hl7.eu/fhir/laboratory/StructureDefinition/Observation-resultslab-eu-lab"
          ]
        },
        "performer": [
          {
            "display": "The Central European Lab"
          }
        ],
        "category": [
          {
            "coding": [
              {
                "system": "http://terminology.hl7.org/CodeSystem/observation-category",
                "code": "laboratory"
              }
            ]
          }
        ],
        "code": {
          "coding": [
            {
              "code": "33762-6",
              "system": "http://loinc.org",
              "display": "Natriuretic peptide.B prohormone N-Terminal [Mass/volume] in Serum or Plasma"
            }
          ],
          "text": "Natriuretic peptide.B prohormone N-Terminal [Mass/volume] in Serum or Plasma"
        },
        "valueQuantity": {
          "system": "http://unitsofmeasure.org",
          "value": 1307.5,
          "unit": "pg/mL",
          "code": "pg/mL"
        },
        "referenceRange": [
          {
            "low": {
              "value": 300,
              "code": "pg/mL",
              "system": "http://unitsofmeasure.org"
            }
          },
          {
            "high": {
              "value": 900,
              "code": "pg/mL",
              "system": "http://unitsofmeasure.org"
            }
          }
        ],
        "interpretation": [
          {
            "coding": [
              {
                "code": "H",
                "system": "http://terminology.hl7.org/CodeSystem/v3-ObservationInterpretation",
                "display": "High"
              }
            ]
          }
        ],
        "text": {
          "status": "generated",
          "div": "<div xmlns=\"http://www.w3.org/1999/xhtml\"><table class=\"hl7__eu__lab__report\"><tr><th>Test</th><th>28-Jan-2025</th><th>Reference&#xA0;Range</th><th>Unit</th></tr><tr><td>Natriuretic peptide.B prohormone N-Terminal [Mass/volume] in Serum or Plasma</td><td>1307.5</td><td>300 - 900</td><td>H</td><td>pg/mL</td></tr></table></div>"
        },
        "status": "final",
        "subject": {
          "reference": "urn:uuid:0e38f89c-ce33-48a0-ab28-cadee86f27b9",
          "display": "Timothy Smith"
        },
        "effectiveDateTime": "2025-01-28T03:53:59Z",
        "specimen": {
          "reference": "urn:uuid:e60242a2-6c1d-4a5c-a0f6-d06b550c2453"
        }
      }
    },
    {
      "fullUrl": "urn:uuid:a7b0df1a-10f6-4f8f-9717-cfd8b10a2b8c",
      "resource": {
        "resourceType": "Observation",
        "id": "a7b0df1a-10f6-4f8f-9717-cfd8b10a2b8c",
        "meta": {
          "profile": [
            "http://hl7.eu/fhir/laboratory/StructureDefinition/Observation-resultslab-eu-lab"
          ]
        },
        "performer": [
          {
            "display": "The Central European Lab"
          }
        ],
        "category": [
          {
            "coding": [
              {
                "system": "http://terminology.hl7.org/CodeSystem/observation-category",
                "code": "laboratory"
              }
            ]
          }
        ],
        "code": {
          "coding": [
            {
              "code": "6690-2",
              "system": "http://loinc.org",
              "display": "Leukocytes [#/volume] in Blood by Automated count"
            }
          ],
          "text": "Leukocytes [#/volume] in Blood by Automated count"
        },
        "valueQuantity": {
          "system": "http://unitsofmeasure.org",
          "value": 5,
          "unit": "10*3/uL",
          "code": "10*3/uL"
        },
        "referenceRange": [
          {
            "low": {
              "value": 3.6,
              "code": "10*3/uL",
              "system": "http://unitsofmeasure.org"
            }
          },
          {
            "high": {
              "value": 10.5,
              "code": "10*3/uL",
              "system": "http://unitsofmeasure.org"
            }
          }
        ],
        "text": {
          "status": "generated",
          "div": "<div xmlns=\"http://www.w3.org/1999/xhtml\"><table class=\"hl7__eu__lab__report\"><tr><th>Test</th><th>28-Jan-2025</th><th>Reference&#xA0;Range</th><th>Unit</th></tr><tr><td>Leukocytes [#/volume] in Blood by Automated count</td><td>5.0</td><td>3.6 - 10.5</td><td></td><td>10*3/uL</td></tr></table></div>"
        },
        "status": "final",
        "subject": {
          "reference": "urn:uuid:0e38f89c-ce33-48a0-ab28-cadee86f27b9",
          "display": "Timothy Smith"
        },
        "effectiveDateTime": "2025-01-28T03:53:59Z",
        "specimen": {
          "reference": "urn:uuid:f76a6ab7-967e-4469-879c-b22ebca2af67"
        }
      }
    },
    {
      "fullUrl": "urn:uuid:1bf14722-85fa-4715-b7a9-1626566ca039",
      "resource": {
        "resourceType": "Observation",
        "id": "1bf14722-85fa-4715-b7a9-1626566ca039",
        "meta": {
          "profile": [
            "http://hl7.eu/fhir/laboratory/StructureDefinition/Observation-resultslab-eu-lab"
          ]
        },
        "performer": [
          {
            "display": "The Central European Lab"
          }
        ],
        "category": [
          {
            "coding": [
              {
                "system": "http://terminology.hl7.org/CodeSystem/observation-category",
                "code": "laboratory"
              }
            ]
          }
        ],
        "code": {
          "coding": [
            {
              "code": "789-8",
              "system": "http://loinc.org",
              "display": "Erythrocytes [#/volume] in Blood by Automated count"
            }
          ],
          "text": "Erythrocytes [#/volume] in Blood by Automated count"
        },
        "valueQuantity": {
          "system": "http://unitsofmeasure.org",
          "value": 4.4,
          "unit": "10*6/uL",
          "code": "10*6/uL"
        },
        "referenceRange": [
          {
            "low": {
              "value": 4.3,
              "code": "10*6/uL",
              "system": "http://unitsofmeasure.org"
            }
          },
          {
            "high": {
              "value": 6.1,
              "code": "10*6/uL",
              "system": "http://unitsofmeasure.org"
            }
          }
        ],
        "text": {
          "status": "generated",
          "div": "<div xmlns=\"http://www.w3.org/1999/xhtml\"><table class=\"hl7__eu__lab__report\"><tr><th>Test</th><th>28-Jan-2025</th><th>Reference&#xA0;Range</th><th>Unit</th></tr><tr><td>Erythrocytes [#/volume] in Blood by Automated count</td><td>4.4</td><td>4.3 - 6.1</td><td></td><td>10*6/uL</td></tr></table></div>"
        },
        "status": "final",
        "subject": {
          "reference": "urn:uuid:0e38f89c-ce33-48a0-ab28-cadee86f27b9",
          "display": "Timothy Smith"
        },
        "effectiveDateTime": "2025-01-28T03:53:59Z",
        "specimen": {
          "reference": "urn:uuid:f76a6ab7-967e-4469-879c-b22ebca2af67"
        }
      }
    },
    {
      "fullUrl": "urn:uuid:e2ccf6a0-a638-400c-a0f4-e9127afeb216",
      "resource": {
        "resourceType": "Observation",
        "id": "e2ccf6a0-a638-400c-a0f4-e9127afeb216",
        "meta": {
          "profile": [
            "http://hl7.eu/fhir/laboratory/StructureDefinition/Observation-resultslab-eu-lab"
          ]
        },
        "performer": [
          {
            "display": "The Central European Lab"
          }
        ],
        "category": [
          {
            "coding": [
              {
                "system": "http://terminology.hl7.org/CodeSystem/observation-category",
                "code": "laboratory"
              }
            ]
          }
        ],
        "code": {
          "coding": [
            {
              "code": "718-7",
              "system": "http://loinc.org",
              "display": "Hemoglobin [Mass/volume] in Blood"
            }
          ],
          "text": "Hemoglobin [Mass/volume] in Blood"
        },
        "valueQuantity": {
          "system": "http://unitsofmeasure.org",
          "value": 15.6,
          "unit": "g/dL",
          "code": "g/dL"
        },
        "referenceRange": [
          {
            "low": {
              "value": 13.5,
              "code": "g/dL",
              "system": "http://unitsofmeasure.org"
            }
          },
          {
            "high": {
              "value": 17.5,
              "code": "g/dL",
              "system": "http://unitsofmeasure.org"
            }
          }
        ],
        "text": {
          "status": "generated",
          "div": "<div xmlns=\"http://www.w3.org/1999/xhtml\"><table class=\"hl7__eu__lab__report\"><tr><th>Test</th><th>28-Jan-2025</th><th>Reference&#xA0;Range</th><th>Unit</th></tr><tr><td>Hemoglobin [Mass/volume] in Blood</td><td>15.6</td><td>13.5 - 17.5</td><td></td><td>g/dL</td></tr></table></div>"
        },
        "status": "final",
        "subject": {
          "reference": "urn:uuid:0e38f89c-ce33-48a0-ab28-cadee86f27b9",
          "display": "Timothy Smith"
        },
        "effectiveDateTime": "2025-01-28T03:53:59Z",
        "specimen": {
          "reference": "urn:uuid:f76a6ab7-967e-4469-879c-b22ebca2af67"
        }
      }
    },
    {
      "fullUrl": "urn:uuid:2c32662c-f3fc-4957-9646-18b101edab4f",
      "resource": {
        "resourceType": "Observation",
        "id": "2c32662c-f3fc-4957-9646-18b101edab4f",
        "meta": {
          "profile": [
            "http://hl7.eu/fhir/laboratory/StructureDefinition/Observation-resultslab-eu-lab"
          ]
        },
        "performer": [
          {
            "display": "The Central European Lab"
          }
        ],
        "category": [
          {
            "coding": [
              {
                "system": "http://terminology.hl7.org/CodeSystem/observation-category",
                "code": "laboratory"
              }
            ]
          }
        ],
        "code": {
          "coding": [
            {
              "code": "4544-3",
              "system": "http://loinc.org",
              "display": "Hematocrit [Volume Fraction] of Blood by Automated count"
            }
          ],
          "text": "Hematocrit [Volume Fraction] of Blood by Automated count"
        },
        "valueQuantity": {
          "system": "http://unitsofmeasure.org",
          "value": 41.6,
          "unit": "%",
          "code": "%"
        },
        "referenceRange": [
          {
            "low": {
              "value": 38,
              "code": "%",
              "system": "http://unitsofmeasure.org"
            }
          },
          {
            "high": {
              "value": 50,
              "code": "%",
              "system": "http://unitsofmeasure.org"
            }
          }
        ],
        "text": {
          "status": "generated",
          "div": "<div xmlns=\"http://www.w3.org/1999/xhtml\"><table class=\"hl7__eu__lab__report\"><tr><th>Test</th><th>28-Jan-2025</th><th>Reference&#xA0;Range</th><th>Unit</th></tr><tr><td>Hematocrit [Volume Fraction] of Blood by Automated count</td><td>41.6</td><td>38 - 50</td><td></td><td>%</td></tr></table></div>"
        },
        "status": "final",
        "subject": {
          "reference": "urn:uuid:0e38f89c-ce33-48a0-ab28-cadee86f27b9",
          "display": "Timothy Smith"
        },
        "effectiveDateTime": "2025-01-28T03:53:59Z",
        "specimen": {
          "reference": "urn:uuid:f76a6ab7-967e-4469-879c-b22ebca2af67"
        }
      }
    },
    {
      "fullUrl": "urn:uuid:3e0d3c48-6371-4684-8509-572c6c0585a7",
      "resource": {
        "resourceType": "Observation",
        "id": "3e0d3c48-6371-4684-8509-572c6c0585a7",
        "meta": {
          "profile": [
            "http://hl7.eu/fhir/laboratory/StructureDefinition/Observation-resultslab-eu-lab"
          ]
        },
        "performer": [
          {
            "display": "The Central European Lab"
          }
        ],
        "category": [
          {
            "coding": [
              {
                "system": "http://terminology.hl7.org/CodeSystem/observation-category",
                "code": "laboratory"
              }
            ]
          }
        ],
        "code": {
          "coding": [
            {
              "code": "787-2",
              "system": "http://loinc.org",
              "display": "MCV [Entitic volume] by Automated count"
            }
          ],
          "text": "MCV [Entitic volume] by Automated count"
        },
        "valueQuantity": {
          "system": "http://unitsofmeasure.org",
          "value": 92.7,
          "unit": "fL",
          "code": "fL"
        },
        "referenceRange": [
          {
            "low": {
              "value": 76,
              "code": "fL",
              "system": "http://unitsofmeasure.org"
            }
          },
          {
            "high": {
              "value": 98,
              "code": "fL",
              "system": "http://unitsofmeasure.org"
            }
          }
        ],
        "text": {
          "status": "generated",
          "div": "<div xmlns=\"http://www.w3.org/1999/xhtml\"><table class=\"hl7__eu__lab__report\"><tr><th>Test</th><th>28-Jan-2025</th><th>Reference&#xA0;Range</th><th>Unit</th></tr><tr><td>MCV [Entitic volume] by Automated count</td><td>92.7</td><td>76 - 98</td><td></td><td>fL</td></tr></table></div>"
        },
        "status": "final",
        "subject": {
          "reference": "urn:uuid:0e38f89c-ce33-48a0-ab28-cadee86f27b9",
          "display": "Timothy Smith"
        },
        "effectiveDateTime": "2025-01-28T03:53:59Z",
        "specimen": {
          "reference": "urn:uuid:f76a6ab7-967e-4469-879c-b22ebca2af67"
        }
      }
    },
    {
      "fullUrl": "urn:uuid:8e3819b5-11c2-4841-bda6-5e5a20de3d2f",
      "resource": {
        "resourceType": "Observation",
        "id": "8e3819b5-11c2-4841-bda6-5e5a20de3d2f",
        "meta": {
          "profile": [
            "http://hl7.eu/fhir/laboratory/StructureDefinition/Observation-resultslab-eu-lab"
          ]
        },
        "performer": [
          {
            "display": "The Central European Lab"
          }
        ],
        "category": [
          {
            "coding": [
              {
                "system": "http://terminology.hl7.org/CodeSystem/observation-category",
                "code": "laboratory"
              }
            ]
          }
        ],
        "code": {
          "coding": [
            {
              "code": "785-6",
              "system": "http://loinc.org",
              "display": "MCH [Entitic mass] by Automated count"
            }
          ],
          "text": "MCH [Entitic mass] by Automated count"
        },
        "valueQuantity": {
          "system": "http://unitsofmeasure.org",
          "value": 28.9,
          "unit": "pg",
          "code": "pg"
        },
        "referenceRange": [
          {
            "low": {
              "value": 27,
              "code": "pg",
              "system": "http://unitsofmeasure.org"
            }
          },
          {
            "high": {
              "value": 33,
              "code": "pg",
              "system": "http://unitsofmeasure.org"
            }
          }
        ],
        "text": {
          "status": "generated",
          "div": "<div xmlns=\"http://www.w3.org/1999/xhtml\"><table class=\"hl7__eu__lab__report\"><tr><th>Test</th><th>28-Jan-2025</th><th>Reference&#xA0;Range</th><th>Unit</th></tr><tr><td>MCH [Entitic mass] by Automated count</td><td>28.9</td><td>27 - 33</td><td></td><td>pg</td></tr></table></div>"
        },
        "status": "final",
        "subject": {
          "reference": "urn:uuid:0e38f89c-ce33-48a0-ab28-cadee86f27b9",
          "display": "Timothy Smith"
        },
        "effectiveDateTime": "2025-01-28T03:53:59Z",
        "specimen": {
          "reference": "urn:uuid:f76a6ab7-967e-4469-879c-b22ebca2af67"
        }
      }
    },
    {
      "fullUrl": "urn:uuid:d4f2b475-431a-4db3-9c9f-e441c16a24f0",
      "resource": {
        "resourceType": "Observation",
        "id": "d4f2b475-431a-4db3-9c9f-e441c16a24f0",
        "meta": {
          "profile": [
            "http://hl7.eu/fhir/laboratory/StructureDefinition/Observation-resultslab-eu-lab"
          ]
        },
        "performer": [
          {
            "display": "The Central European Lab"
          }
        ],
        "category": [
          {
            "coding": [
              {
                "system": "http://terminology.hl7.org/CodeSystem/observation-category",
                "code": "laboratory"
              }
            ]
          }
        ],
        "code": {
          "coding": [
            {
              "code": "786-4",
              "system": "http://loinc.org",
              "display": "MCHC [Mass/volume] by Automated count"
            }
          ],
          "text": "MCHC [Mass/volume] by Automated count"
        },
        "valueQuantity": {
          "system": "http://unitsofmeasure.org",
          "value": 33.6,
          "unit": "g/dL",
          "code": "g/dL"
        },
        "referenceRange": [
          {
            "low": {
              "value": 31,
              "code": "g/dL",
              "system": "http://unitsofmeasure.org"
            }
          },
          {
            "high": {
              "value": 37,
              "code": "g/dL",
              "system": "http://unitsofmeasure.org"
            }
          }
        ],
        "text": {
          "status": "generated",
          "div": "<div xmlns=\"http://www.w3.org/1999/xhtml\"><table class=\"hl7__eu__lab__report\"><tr><th>Test</th><th>28-Jan-2025</th><th>Reference&#xA0;Range</th><th>Unit</th></tr><tr><td>MCHC [Mass/volume] by Automated count</td><td>33.6</td><td>31 - 37</td><td></td><td>g/dL</td></tr></table></div>"
        },
        "status": "final",
        "subject": {
          "reference": "urn:uuid:0e38f89c-ce33-48a0-ab28-cadee86f27b9",
          "display": "Timothy Smith"
        },
        "effectiveDateTime": "2025-01-28T03:53:59Z",
        "specimen": {
          "reference": "urn:uuid:f76a6ab7-967e-4469-879c-b22ebca2af67"
        }
      }
    },
    {
      "fullUrl": "urn:uuid:98e2cd3b-632d-48d5-b603-186c6a7aa597",
      "resource": {
        "resourceType": "Observation",
        "id": "98e2cd3b-632d-48d5-b603-186c6a7aa597",
        "meta": {
          "profile": [
            "http://hl7.eu/fhir/laboratory/StructureDefinition/Observation-resultslab-eu-lab"
          ]
        },
        "performer": [
          {
            "display": "The Central European Lab"
          }
        ],
        "category": [
          {
            "coding": [
              {
                "system": "http://terminology.hl7.org/CodeSystem/observation-category",
                "code": "laboratory"
              }
            ]
          }
        ],
        "code": {
          "coding": [
            {
              "code": "788-0",
              "system": "http://loinc.org",
              "display": "Erythrocyte distribution width [Ratio] by Automated count"
            }
          ],
          "text": "Erythrocyte distribution width [Ratio] by Automated count"
        },
        "valueQuantity": {
          "system": "http://unitsofmeasure.org",
          "value": 13.5,
          "unit": "%",
          "code": "%"
        },
        "referenceRange": [
          {
            "low": {
              "value": 11.6,
              "code": "%",
              "system": "http://unitsofmeasure.org"
            }
          },
          {
            "high": {
              "value": 16.5,
              "code": "%",
              "system": "http://unitsofmeasure.org"
            }
          }
        ],
        "text": {
          "status": "generated",
          "div": "<div xmlns=\"http://www.w3.org/1999/xhtml\"><table class=\"hl7__eu__lab__report\"><tr><th>Test</th><th>28-Jan-2025</th><th>Reference&#xA0;Range</th><th>Unit</th></tr><tr><td>Erythrocyte distribution width [Ratio] by Automated count</td><td>13.5</td><td>11.6 - 16.5</td><td></td><td>%</td></tr></table></div>"
        },
        "status": "final",
        "subject": {
          "reference": "urn:uuid:0e38f89c-ce33-48a0-ab28-cadee86f27b9",
          "display": "Timothy Smith"
        },
        "effectiveDateTime": "2025-01-28T03:53:59Z",
        "specimen": {
          "reference": "urn:uuid:f76a6ab7-967e-4469-879c-b22ebca2af67"
        }
      }
    },
    {
      "fullUrl": "urn:uuid:91d51165-e1f1-432d-9a33-6fd3ebcc529d",
      "resource": {
        "resourceType": "Observation",
        "id": "91d51165-e1f1-432d-9a33-6fd3ebcc529d",
        "meta": {
          "profile": [
            "http://hl7.eu/fhir/laboratory/StructureDefinition/Observation-resultslab-eu-lab"
          ]
        },
        "performer": [
          {
            "display": "The Central European Lab"
          }
        ],
        "category": [
          {
            "coding": [
              {
                "system": "http://terminology.hl7.org/CodeSystem/observation-category",
                "code": "laboratory"
              }
            ]
          }
        ],
        "code": {
          "coding": [
            {
              "code": "777-3",
              "system": "http://loinc.org",
              "display": "Platelets [#/volume] in Blood by Automated count"
            }
          ],
          "text": "Platelets [#/volume] in Blood by Automated count"
        },
        "valueQuantity": {
          "system": "http://unitsofmeasure.org",
          "value": 180.9,
          "unit": "10*3/uL",
          "code": "10*3/uL"
        },
        "referenceRange": [
          {
            "low": {
              "value": 155,
              "code": "10*3/uL",
              "system": "http://unitsofmeasure.org"
            }
          },
          {
            "high": {
              "value": 415,
              "code": "10*3/uL",
              "system": "http://unitsofmeasure.org"
            }
          }
        ],
        "text": {
          "status": "generated",
          "div": "<div xmlns=\"http://www.w3.org/1999/xhtml\"><table class=\"hl7__eu__lab__report\"><tr><th>Test</th><th>28-Jan-2025</th><th>Reference&#xA0;Range</th><th>Unit</th></tr><tr><td>Platelets [#/volume] in Blood by Automated count</td><td>180.9</td><td>155 - 415</td><td></td><td>10*3/uL</td></tr></table></div>"
        },
        "status": "final",
        "subject": {
          "reference": "urn:uuid:0e38f89c-ce33-48a0-ab28-cadee86f27b9",
          "display": "Timothy Smith"
        },
        "effectiveDateTime": "2025-01-28T03:53:59Z",
        "specimen": {
          "reference": "urn:uuid:f76a6ab7-967e-4469-879c-b22ebca2af67"
        }
      }
    },
    {
      "fullUrl": "urn:uuid:c8a30645-d2d3-488d-a834-16321774b3e3",
      "resource": {
        "resourceType": "Observation",
        "id": "c8a30645-d2d3-488d-a834-16321774b3e3",
        "meta": {
          "profile": [
            "http://hl7.eu/fhir/laboratory/StructureDefinition/Observation-resultslab-eu-lab"
          ]
        },
        "performer": [
          {
            "display": "The Central European Lab"
          }
        ],
        "category": [
          {
            "coding": [
              {
                "system": "http://terminology.hl7.org/CodeSystem/observation-category",
                "code": "laboratory"
              }
            ]
          }
        ],
        "code": {
          "coding": [
            {
              "code": "2345-7",
              "system": "http://loinc.org",
              "display": "Glucose [Mass/volume] in Serum or Plasma"
            }
          ],
          "text": "Glucose [Mass/volume] in Serum or Plasma"
        },
        "valueQuantity": {
          "system": "http://unitsofmeasure.org",
          "value": 193.3,
          "unit": "mg/dL",
          "code": "mg/dL"
        },
        "referenceRange": [
          {
            "low": {
              "value": 70,
              "code": "mg/dL",
              "system": "http://unitsofmeasure.org"
            }
          },
          {
            "high": {
              "value": 140,
              "code": "mg/dL",
              "system": "http://unitsofmeasure.org"
            }
          }
        ],
        "interpretation": [
          {
            "coding": [
              {
                "code": "H",
                "system": "http://terminology.hl7.org/CodeSystem/v3-ObservationInterpretation",
                "display": "High"
              }
            ]
          }
        ],
        "text": {
          "status": "generated",
          "div": "<div xmlns=\"http://www.w3.org/1999/xhtml\"><table class=\"hl7__eu__lab__report\"><tr><th>Test</th><th>28-Jan-2025</th><th>Reference&#xA0;Range</th><th>Unit</th></tr><tr><td>Glucose [Mass/volume] in Serum or Plasma</td><td>193.3</td><td>70 - 140</td><td>H</td><td>mg/dL</td></tr></table></div>"
        },
        "status": "final",
        "subject": {
          "reference": "urn:uuid:0e38f89c-ce33-48a0-ab28-cadee86f27b9",
          "display": "Timothy Smith"
        },
        "effectiveDateTime": "2025-01-28T03:53:59Z",
        "specimen": {
          "reference": "urn:uuid:e60242a2-6c1d-4a5c-a0f6-d06b550c2453"
        }
      }
    },
    {
      "fullUrl": "urn:uuid:52d95a09-60db-4238-a9c1-068d1500bb66",
      "resource": {
        "resourceType": "Observation",
        "id": "52d95a09-60db-4238-a9c1-068d1500bb66",
        "meta": {
          "profile": [
            "http://hl7.eu/fhir/laboratory/StructureDefinition/Observation-resultslab-eu-lab"
          ]
        },
        "performer": [
          {
            "display": "The Central European Lab"
          }
        ],
        "category": [
          {
            "coding": [
              {
                "system": "http://terminology.hl7.org/CodeSystem/observation-category",
                "code": "laboratory"
              }
            ]
          }
        ],
        "code": {
          "coding": [
            {
              "code": "3094-0",
              "system": "http://loinc.org",
              "display": "Urea nitrogen [Mass/volume] in Serum or Plasma"
            }
          ],
          "text": "Urea nitrogen [Mass/volume] in Serum or Plasma"
        },
        "valueQuantity": {
          "system": "http://unitsofmeasure.org",
          "value": 7.1,
          "unit": "mg/dL",
          "code": "mg/dL"
        },
        "referenceRange": [
          {
            "low": {
              "value": 7,
              "code": "mg/dL",
              "system": "http://unitsofmeasure.org"
            }
          },
          {
            "high": {
              "value": 50,
              "code": "mg/dL",
              "system": "http://unitsofmeasure.org"
            }
          }
        ],
        "text": {
          "status": "generated",
          "div": "<div xmlns=\"http://www.w3.org/1999/xhtml\"><table class=\"hl7__eu__lab__report\"><tr><th>Test</th><th>28-Jan-2025</th><th>Reference&#xA0;Range</th><th>Unit</th></tr><tr><td>Urea nitrogen [Mass/volume] in Serum or Plasma</td><td>7.1</td><td>7 - 50</td><td></td><td>mg/dL</td></tr></table></div>"
        },
        "status": "final",
        "subject": {
          "reference": "urn:uuid:0e38f89c-ce33-48a0-ab28-cadee86f27b9",
          "display": "Timothy Smith"
        },
        "effectiveDateTime": "2025-01-28T03:53:59Z",
        "specimen": {
          "reference": "urn:uuid:e60242a2-6c1d-4a5c-a0f6-d06b550c2453"
        }
      }
    },
    {
      "fullUrl": "urn:uuid:d86e828b-380a-474c-8bb3-fe0d9b5ea1e8",
      "resource": {
        "resourceType": "Observation",
        "id": "d86e828b-380a-474c-8bb3-fe0d9b5ea1e8",
        "meta": {
          "profile": [
            "http://hl7.eu/fhir/laboratory/StructureDefinition/Observation-resultslab-eu-lab"
          ]
        },
        "performer": [
          {
            "display": "The Central European Lab"
          }
        ],
        "category": [
          {
            "coding": [
              {
                "system": "http://terminology.hl7.org/CodeSystem/observation-category",
                "code": "laboratory"
              }
            ]
          }
        ],
        "code": {
          "coding": [
            {
              "code": "2160-0",
              "system": "http://loinc.org",
              "display": "Creatinine [Mass/volume] in Serum or Plasma"
            }
          ],
          "text": "Creatinine [Mass/volume] in Serum or Plasma"
        },
        "valueQuantity": {
          "system": "http://unitsofmeasure.org",
          "value": 0.8,
          "unit": "mg/dL",
          "code": "mg/dL"
        },
        "referenceRange": [
          {
            "low": {
              "value": 0.9,
              "code": "mg/dL",
              "system": "http://unitsofmeasure.org"
            }
          },
          {
            "high": {
              "value": 1.3,
              "code": "mg/dL",
              "system": "http://unitsofmeasure.org"
            }
          }
        ],
        "interpretation": [
          {
            "coding": [
              {
                "code": "L",
                "system": "http://terminology.hl7.org/CodeSystem/v3-ObservationInterpretation",
                "display": "Low"
              }
            ]
          }
        ],
        "text": {
          "status": "generated",
          "div": "<div xmlns=\"http://www.w3.org/1999/xhtml\"><table class=\"hl7__eu__lab__report\"><tr><th>Test</th><th>28-Jan-2025</th><th>Reference&#xA0;Range</th><th>Unit</th></tr><tr><td>Creatinine [Mass/volume] in Serum or Plasma</td><td>0.8</td><td>0.9 - 1.3</td><td>L</td><td>mg/dL</td></tr></table></div>"
        },
        "status": "final",
        "subject": {
          "reference": "urn:uuid:0e38f89c-ce33-48a0-ab28-cadee86f27b9",
          "display": "Timothy Smith"
        },
        "effectiveDateTime": "2025-01-28T03:53:59Z",
        "specimen": {
          "reference": "urn:uuid:e60242a2-6c1d-4a5c-a0f6-d06b550c2453"
        }
      }
    },
    {
      "fullUrl": "urn:uuid:4b9e5671-c502-4c86-9019-d48a1be66be7",
      "resource": {
        "resourceType": "Observation",
        "id": "4b9e5671-c502-4c86-9019-d48a1be66be7",
        "meta": {
          "profile": [
            "http://hl7.eu/fhir/laboratory/StructureDefinition/Observation-resultslab-eu-lab"
          ]
        },
        "performer": [
          {
            "display": "The Central European Lab"
          }
        ],
        "category": [
          {
            "coding": [
              {
                "system": "http://terminology.hl7.org/CodeSystem/observation-category",
                "code": "laboratory"
              }
            ]
          }
        ],
        "code": {
          "coding": [
            {
              "code": "17861-6",
              "system": "http://loinc.org",
              "display": "Calcium [Mass/volume] in Serum or Plasma"
            }
          ],
          "text": "Calcium [Mass/volume] in Serum or Plasma"
        },
        "valueQuantity": {
          "system": "http://unitsofmeasure.org",
          "value": 9,
          "unit": "mg/dL",
          "code": "mg/dL"
        },
        "referenceRange": [
          {
            "low": {
              "value": 8.5,
              "code": "mg/dL",
              "system": "http://unitsofmeasure.org"
            }
          },
          {
            "high": {
              "value": 10.5,
              "code": "mg/dL",
              "system": "http://unitsofmeasure.org"
            }
          }
        ],
        "text": {
          "status": "generated",
          "div": "<div xmlns=\"http://www.w3.org/1999/xhtml\"><table class=\"hl7__eu__lab__report\"><tr><th>Test</th><th>28-Jan-2025</th><th>Reference&#xA0;Range</th><th>Unit</th></tr><tr><td>Calcium [Mass/volume] in Serum or Plasma</td><td>9.0</td><td>8.5 - 10.5</td><td></td><td>mg/dL</td></tr></table></div>"
        },
        "status": "final",
        "subject": {
          "reference": "urn:uuid:0e38f89c-ce33-48a0-ab28-cadee86f27b9",
          "display": "Timothy Smith"
        },
        "effectiveDateTime": "2025-01-28T03:53:59Z",
        "specimen": {
          "reference": "urn:uuid:e60242a2-6c1d-4a5c-a0f6-d06b550c2453"
        }
      }
    },
    {
      "fullUrl": "urn:uuid:17f9656d-29aa-4819-b10e-1cf4d1c8946f",
      "resource": {
        "resourceType": "Observation",
        "id": "17f9656d-29aa-4819-b10e-1cf4d1c8946f",
        "meta": {
          "profile": [
            "http://hl7.eu/fhir/laboratory/StructureDefinition/Observation-resultslab-eu-lab"
          ]
        },
        "performer": [
          {
            "display": "The Central European Lab"
          }
        ],
        "category": [
          {
            "coding": [
              {
                "system": "http://terminology.hl7.org/CodeSystem/observation-category",
                "code": "laboratory"
              }
            ]
          }
        ],
        "code": {
          "coding": [
            {
              "code": "2951-2",
              "system": "http://loinc.org",
              "display": "Sodium [Moles/volume] in Serum or Plasma"
            }
          ],
          "text": "Sodium [Moles/volume] in Serum or Plasma"
        },
        "valueQuantity": {
          "system": "http://unitsofmeasure.org",
          "value": 140.7,
          "unit": "mmol/L",
          "code": "mmol/L"
        },
        "referenceRange": [
          {
            "low": {
              "value": 135,
              "code": "mmol/L",
              "system": "http://unitsofmeasure.org"
            }
          },
          {
            "high": {
              "value": 145,
              "code": "mmol/L",
              "system": "http://unitsofmeasure.org"
            }
          }
        ],
        "text": {
          "status": "generated",
          "div": "<div xmlns=\"http://www.w3.org/1999/xhtml\"><table class=\"hl7__eu__lab__report\"><tr><th>Test</th><th>28-Jan-2025</th><th>Reference&#xA0;Range</th><th>Unit</th></tr><tr><td>Sodium [Moles/volume] in Serum or Plasma</td><td>140.7</td><td>135 - 145</td><td></td><td>mmol/L</td></tr></table></div>"
        },
        "status": "final",
        "subject": {
          "reference": "urn:uuid:0e38f89c-ce33-48a0-ab28-cadee86f27b9",
          "display": "Timothy Smith"
        },
        "effectiveDateTime": "2025-01-28T03:53:59Z",
        "specimen": {
          "reference": "urn:uuid:e60242a2-6c1d-4a5c-a0f6-d06b550c2453"
        }
      }
    },
    {
      "fullUrl": "urn:uuid:cb0993e4-6f66-4be4-a91b-15cca139503f",
      "resource": {
        "resourceType": "Observation",
        "id": "cb0993e4-6f66-4be4-a91b-15cca139503f",
        "meta": {
          "profile": [
            "http://hl7.eu/fhir/laboratory/StructureDefinition/Observation-resultslab-eu-lab"
          ]
        },
        "performer": [
          {
            "display": "The Central European Lab"
          }
        ],
        "category": [
          {
            "coding": [
              {
                "system": "http://terminology.hl7.org/CodeSystem/observation-category",
                "code": "laboratory"
              }
            ]
          }
        ],
        "code": {
          "coding": [
            {
              "code": "2823-3",
              "system": "http://loinc.org",
              "display": "Potassium [Moles/volume] in Serum or Plasma"
            }
          ],
          "text": "Potassium [Moles/volume] in Serum or Plasma"
        },
        "valueQuantity": {
          "system": "http://unitsofmeasure.org",
          "value": 4.5,
          "unit": "mmol/L",
          "code": "mmol/L"
        },
        "referenceRange": [
          {
            "low": {
              "value": 3.5,
              "code": "mmol/L",
              "system": "http://unitsofmeasure.org"
            }
          },
          {
            "high": {
              "value": 5.1,
              "code": "mmol/L",
              "system": "http://unitsofmeasure.org"
            }
          }
        ],
        "text": {
          "status": "generated",
          "div": "<div xmlns=\"http://www.w3.org/1999/xhtml\"><table class=\"hl7__eu__lab__report\"><tr><th>Test</th><th>28-Jan-2025</th><th>Reference&#xA0;Range</th><th>Unit</th></tr><tr><td>Potassium [Moles/volume] in Serum or Plasma</td><td>4.5</td><td>3.5 - 5.1</td><td></td><td>mmol/L</td></tr></table></div>"
        },
        "status": "final",
        "subject": {
          "reference": "urn:uuid:0e38f89c-ce33-48a0-ab28-cadee86f27b9",
          "display": "Timothy Smith"
        },
        "effectiveDateTime": "2025-01-28T03:53:59Z",
        "specimen": {
          "reference": "urn:uuid:e60242a2-6c1d-4a5c-a0f6-d06b550c2453"
        }
      }
    },
    {
      "fullUrl": "urn:uuid:62f7c782-3824-4284-9be6-614eeddcba5a",
      "resource": {
        "resourceType": "Observation",
        "id": "62f7c782-3824-4284-9be6-614eeddcba5a",
        "meta": {
          "profile": [
            "http://hl7.eu/fhir/laboratory/StructureDefinition/Observation-resultslab-eu-lab"
          ]
        },
        "performer": [
          {
            "display": "The Central European Lab"
          }
        ],
        "category": [
          {
            "coding": [
              {
                "system": "http://terminology.hl7.org/CodeSystem/observation-category",
                "code": "laboratory"
              }
            ]
          }
        ],
        "code": {
          "coding": [
            {
              "code": "2075-0",
              "system": "http://loinc.org",
              "display": "Chloride [Moles/volume] in Serum or Plasma"
            }
          ],
          "text": "Chloride [Moles/volume] in Serum or Plasma"
        },
        "valueQuantity": {
          "system": "http://unitsofmeasure.org",
          "value": 106.3,
          "unit": "mmol/L",
          "code": "mmol/L"
        },
        "referenceRange": [
          {
            "low": {
              "value": 98,
              "code": "mmol/L",
              "system": "http://unitsofmeasure.org"
            }
          },
          {
            "high": {
              "value": 108,
              "code": "mmol/L",
              "system": "http://unitsofmeasure.org"
            }
          }
        ],
        "text": {
          "status": "generated",
          "div": "<div xmlns=\"http://www.w3.org/1999/xhtml\"><table class=\"hl7__eu__lab__report\"><tr><th>Test</th><th>28-Jan-2025</th><th>Reference&#xA0;Range</th><th>Unit</th></tr><tr><td>Chloride [Moles/volume] in Serum or Plasma</td><td>106.3</td><td>98 - 108</td><td></td><td>mmol/L</td></tr></table></div>"
        },
        "status": "final",
        "subject": {
          "reference": "urn:uuid:0e38f89c-ce33-48a0-ab28-cadee86f27b9",
          "display": "Timothy Smith"
        },
        "effectiveDateTime": "2025-01-28T03:53:59Z",
        "specimen": {
          "reference": "urn:uuid:e60242a2-6c1d-4a5c-a0f6-d06b550c2453"
        }
      }
    },
    {
      "fullUrl": "urn:uuid:d1b2d105-12e4-4f6f-817e-f2e8699a64a6",
      "resource": {
        "resourceType": "Observation",
        "id": "d1b2d105-12e4-4f6f-817e-f2e8699a64a6",
        "meta": {
          "profile": [
            "http://hl7.eu/fhir/laboratory/StructureDefinition/Observation-resultslab-eu-lab"
          ]
        },
        "performer": [
          {
            "display": "The Central European Lab"
          }
        ],
        "category": [
          {
            "coding": [
              {
                "system": "http://terminology.hl7.org/CodeSystem/observation-category",
                "code": "laboratory"
              }
            ]
          }
        ],
        "code": {
          "coding": [
            {
              "code": "2028-9",
              "system": "http://loinc.org",
              "display": "Carbon dioxide, total [Moles/volume] in Serum or Plasma"
            }
          ],
          "text": "Carbon dioxide, total [Moles/volume] in Serum or Plasma"
        },
        "valueQuantity": {
          "system": "http://unitsofmeasure.org",
          "value": 25.6,
          "unit": "mmol/L",
          "code": "mmol/L"
        },
        "referenceRange": [
          {
            "low": {
              "value": 22,
              "code": "mmol/L",
              "system": "http://unitsofmeasure.org"
            }
          },
          {
            "high": {
              "value": 32,
              "code": "mmol/L",
              "system": "http://unitsofmeasure.org"
            }
          }
        ],
        "text": {
          "status": "generated",
          "div": "<div xmlns=\"http://www.w3.org/1999/xhtml\"><table class=\"hl7__eu__lab__report\"><tr><th>Test</th><th>28-Jan-2025</th><th>Reference&#xA0;Range</th><th>Unit</th></tr><tr><td>Carbon dioxide, total [Moles/volume] in Serum or Plasma</td><td>25.6</td><td>22 - 32</td><td></td><td>mmol/L</td></tr></table></div>"
        },
        "status": "final",
        "subject": {
          "reference": "urn:uuid:0e38f89c-ce33-48a0-ab28-cadee86f27b9",
          "display": "Timothy Smith"
        },
        "effectiveDateTime": "2025-01-28T03:53:59Z",
        "specimen": {
          "reference": "urn:uuid:e60242a2-6c1d-4a5c-a0f6-d06b550c2453"
        }
      }
    },
    {
      "fullUrl": "urn:uuid:399aae5a-ba1f-4fc9-ac5e-86bb660404e4",
      "resource": {
        "resourceType": "Observation",
        "id": "399aae5a-ba1f-4fc9-ac5e-86bb660404e4",
        "meta": {
          "profile": [
            "http://hl7.eu/fhir/laboratory/StructureDefinition/Observation-resultslab-eu-lab"
          ]
        },
        "performer": [
          {
            "display": "The Central European Lab"
          }
        ],
        "category": [
          {
            "coding": [
              {
                "system": "http://terminology.hl7.org/CodeSystem/observation-category",
                "code": "laboratory"
              }
            ]
          }
        ],
        "code": {
          "coding": [
            {
              "code": "2885-2",
              "system": "http://loinc.org",
              "display": "Protein [Mass/volume] in Serum or Plasma"
            }
          ],
          "text": "Protein [Mass/volume] in Serum or Plasma"
        },
        "valueQuantity": {
          "system": "http://unitsofmeasure.org",
          "value": 7.2,
          "unit": "g/dL",
          "code": "g/dL"
        },
        "referenceRange": [
          {
            "low": {
              "value": 6,
              "code": "g/dL",
              "system": "http://unitsofmeasure.org"
            }
          },
          {
            "high": {
              "value": 8.3,
              "code": "g/dL",
              "system": "http://unitsofmeasure.org"
            }
          }
        ],
        "text": {
          "status": "generated",
          "div": "<div xmlns=\"http://www.w3.org/1999/xhtml\"><table class=\"hl7__eu__lab__report\"><tr><th>Test</th><th>28-Jan-2025</th><th>Reference&#xA0;Range</th><th>Unit</th></tr><tr><td>Protein [Mass/volume] in Serum or Plasma</td><td>7.2</td><td>6 - 8.3</td><td></td><td>g/dL</td></tr></table></div>"
        },
        "status": "final",
        "subject": {
          "reference": "urn:uuid:0e38f89c-ce33-48a0-ab28-cadee86f27b9",
          "display": "Timothy Smith"
        },
        "effectiveDateTime": "2025-01-28T03:53:59Z",
        "specimen": {
          "reference": "urn:uuid:e60242a2-6c1d-4a5c-a0f6-d06b550c2453"
        }
      }
    },
    {
      "fullUrl": "urn:uuid:fb29a7f2-32fa-4303-8f6e-642c12b73cb0",
      "resource": {
        "resourceType": "Observation",
        "id": "fb29a7f2-32fa-4303-8f6e-642c12b73cb0",
        "meta": {
          "profile": [
            "http://hl7.eu/fhir/laboratory/StructureDefinition/Observation-resultslab-eu-lab"
          ]
        },
        "performer": [
          {
            "display": "The Central European Lab"
          }
        ],
        "category": [
          {
            "coding": [
              {
                "system": "http://terminology.hl7.org/CodeSystem/observation-category",
                "code": "laboratory"
              }
            ]
          }
        ],
        "code": {
          "coding": [
            {
              "code": "1751-7",
              "system": "http://loinc.org",
              "display": "Albumin [Mass/volume] in Serum or Plasma"
            }
          ],
          "text": "Albumin [Mass/volume] in Serum or Plasma"
        },
        "valueQuantity": {
          "system": "http://unitsofmeasure.org",
          "value": 4.1,
          "unit": "g/dL",
          "code": "g/dL"
        },
        "referenceRange": [
          {
            "low": {
              "value": 3.5,
              "code": "g/dL",
              "system": "http://unitsofmeasure.org"
            }
          },
          {
            "high": {
              "value": 5.5,
              "code": "g/dL",
              "system": "http://unitsofmeasure.org"
            }
          }
        ],
        "text": {
          "status": "generated",
          "div": "<div xmlns=\"http://www.w3.org/1999/xhtml\"><table class=\"hl7__eu__lab__report\"><tr><th>Test</th><th>28-Jan-2025</th><th>Reference&#xA0;Range</th><th>Unit</th></tr><tr><td>Albumin [Mass/volume] in Serum or Plasma</td><td>4.1</td><td>3.5 - 5.5</td><td></td><td>g/dL</td></tr></table></div>"
        },
        "status": "final",
        "subject": {
          "reference": "urn:uuid:0e38f89c-ce33-48a0-ab28-cadee86f27b9",
          "display": "Timothy Smith"
        },
        "effectiveDateTime": "2025-01-28T03:53:59Z",
        "specimen": {
          "reference": "urn:uuid:e60242a2-6c1d-4a5c-a0f6-d06b550c2453"
        }
      }
    },
    {
      "fullUrl": "urn:uuid:d4d139e1-20bd-4985-8626-4686f29cb6df",
      "resource": {
        "resourceType": "Observation",
        "id": "d4d139e1-20bd-4985-8626-4686f29cb6df",
        "meta": {
          "profile": [
            "http://hl7.eu/fhir/laboratory/StructureDefinition/Observation-resultslab-eu-lab"
          ]
        },
        "performer": [
          {
            "display": "The Central European Lab"
          }
        ],
        "category": [
          {
            "coding": [
              {
                "system": "http://terminology.hl7.org/CodeSystem/observation-category",
                "code": "laboratory"
              }
            ]
          }
        ],
        "code": {
          "coding": [
            {
              "code": "1975-2",
              "system": "http://loinc.org",
              "display": "Bilirubin.total [Mass/volume] in Serum or Plasma"
            }
          ],
          "text": "Bilirubin.total [Mass/volume] in Serum or Plasma"
        },
        "valueQuantity": {
          "system": "http://unitsofmeasure.org",
          "value": 1,
          "unit": "mg/dL",
          "code": "mg/dL"
        },
        "referenceRange": [
          {
            "low": {
              "value": 0.3,
              "code": "mg/dL",
              "system": "http://unitsofmeasure.org"
            }
          },
          {
            "high": {
              "value": 1.2,
              "code": "mg/dL",
              "system": "http://unitsofmeasure.org"
            }
          }
        ],
        "text": {
          "status": "generated",
          "div": "<div xmlns=\"http://www.w3.org/1999/xhtml\"><table class=\"hl7__eu__lab__report\"><tr><th>Test</th><th>28-Jan-2025</th><th>Reference&#xA0;Range</th><th>Unit</th></tr><tr><td>Bilirubin.total [Mass/volume] in Serum or Plasma</td><td>1.0</td><td>0.3 - 1.2</td><td></td><td>mg/dL</td></tr></table></div>"
        },
        "status": "final",
        "subject": {
          "reference": "urn:uuid:0e38f89c-ce33-48a0-ab28-cadee86f27b9",
          "display": "Timothy Smith"
        },
        "effectiveDateTime": "2025-01-28T03:53:59Z",
        "specimen": {
          "reference": "urn:uuid:e60242a2-6c1d-4a5c-a0f6-d06b550c2453"
        }
      }
    },
    {
      "fullUrl": "urn:uuid:9bd3e6bc-c908-439e-8376-a8f1ceed4f38",
      "resource": {
        "resourceType": "Observation",
        "id": "9bd3e6bc-c908-439e-8376-a8f1ceed4f38",
        "meta": {
          "profile": [
            "http://hl7.eu/fhir/laboratory/StructureDefinition/Observation-resultslab-eu-lab"
          ]
        },
        "performer": [
          {
            "display": "The Central European Lab"
          }
        ],
        "category": [
          {
            "coding": [
              {
                "system": "http://terminology.hl7.org/CodeSystem/observation-category",
                "code": "laboratory"
              }
            ]
          }
        ],
        "code": {
          "coding": [
            {
              "code": "6768-6",
              "system": "http://loinc.org",
              "display": "Alkaline phosphatase [Enzymatic activity/volume] in Serum or Plasma"
            }
          ],
          "text": "Alkaline phosphatase [Enzymatic activity/volume] in Serum or Plasma"
        },
        "valueQuantity": {
          "system": "http://unitsofmeasure.org",
          "value": 58.9,
          "unit": "U/L",
          "code": "U/L"
        },
        "referenceRange": [
          {
            "low": {
              "value": 40,
              "code": "U/L",
              "system": "http://unitsofmeasure.org"
            }
          },
          {
            "high": {
              "value": 117,
              "code": "U/L",
              "system": "http://unitsofmeasure.org"
            }
          }
        ],
        "text": {
          "status": "generated",
          "div": "<div xmlns=\"http://www.w3.org/1999/xhtml\"><table class=\"hl7__eu__lab__report\"><tr><th>Test</th><th>28-Jan-2025</th><th>Reference&#xA0;Range</th><th>Unit</th></tr><tr><td>Alkaline phosphatase [Enzymatic activity/volume] in Serum or Plasma</td><td>58.9</td><td>40 - 117</td><td></td><td>U/L</td></tr></table></div>"
        },
        "status": "final",
        "subject": {
          "reference": "urn:uuid:0e38f89c-ce33-48a0-ab28-cadee86f27b9",
          "display": "Timothy Smith"
        },
        "effectiveDateTime": "2025-01-28T03:53:59Z",
        "specimen": {
          "reference": "urn:uuid:e60242a2-6c1d-4a5c-a0f6-d06b550c2453"
        }
      }
    },
    {
      "fullUrl": "urn:uuid:d37e6605-d240-4283-b2ca-ac25f7b63141",
      "resource": {
        "resourceType": "Observation",
        "id": "d37e6605-d240-4283-b2ca-ac25f7b63141",
        "meta": {
          "profile": [
            "http://hl7.eu/fhir/laboratory/StructureDefinition/Observation-resultslab-eu-lab"
          ]
        },
        "performer": [
          {
            "display": "The Central European Lab"
          }
        ],
        "category": [
          {
            "coding": [
              {
                "system": "http://terminology.hl7.org/CodeSystem/observation-category",
                "code": "laboratory"
              }
            ]
          }
        ],
        "code": {
          "coding": [
            {
              "code": "1742-6",
              "system": "http://loinc.org",
              "display": "Alanine aminotransferase [Enzymatic activity/volume] in Serum or Plasma"
            }
          ],
          "text": "Alanine aminotransferase [Enzymatic activity/volume] in Serum or Plasma"
        },
        "valueQuantity": {
          "system": "http://unitsofmeasure.org",
          "value": 19.4,
          "unit": "U/L",
          "code": "U/L"
        },
        "referenceRange": [
          {
            "low": {
              "value": 10,
              "code": "U/L",
              "system": "http://unitsofmeasure.org"
            }
          },
          {
            "high": {
              "value": 66,
              "code": "U/L",
              "system": "http://unitsofmeasure.org"
            }
          }
        ],
        "text": {
          "status": "generated",
          "div": "<div xmlns=\"http://www.w3.org/1999/xhtml\"><table class=\"hl7__eu__lab__report\"><tr><th>Test</th><th>28-Jan-2025</th><th>Reference&#xA0;Range</th><th>Unit</th></tr><tr><td>Alanine aminotransferase [Enzymatic activity/volume] in Serum or Plasma</td><td>19.4</td><td>10 - 66</td><td></td><td>U/L</td></tr></table></div>"
        },
        "status": "final",
        "subject": {
          "reference": "urn:uuid:0e38f89c-ce33-48a0-ab28-cadee86f27b9",
          "display": "Timothy Smith"
        },
        "effectiveDateTime": "2025-01-28T03:53:59Z",
        "specimen": {
          "reference": "urn:uuid:e60242a2-6c1d-4a5c-a0f6-d06b550c2453"
        }
      }
    },
    {
      "fullUrl": "urn:uuid:c78cadd7-1d1e-42dd-87a0-6be08b175561",
      "resource": {
        "resourceType": "Observation",
        "id": "c78cadd7-1d1e-42dd-87a0-6be08b175561",
        "meta": {
          "profile": [
            "http://hl7.eu/fhir/laboratory/StructureDefinition/Observation-resultslab-eu-lab"
          ]
        },
        "performer": [
          {
            "display": "The Central European Lab"
          }
        ],
        "category": [
          {
            "coding": [
              {
                "system": "http://terminology.hl7.org/CodeSystem/observation-category",
                "code": "laboratory"
              }
            ]
          }
        ],
        "code": {
          "coding": [
            {
              "code": "1920-8",
              "system": "http://loinc.org",
              "display": "Aspartate aminotransferase [Enzymatic activity/volume] in Serum or Plasma"
            }
          ],
          "text": "Aspartate aminotransferase [Enzymatic activity/volume] in Serum or Plasma"
        },
        "valueQuantity": {
          "system": "http://unitsofmeasure.org",
          "value": 12.4,
          "unit": "U/L",
          "code": "U/L"
        },
        "referenceRange": [
          {
            "low": {
              "value": 10,
              "code": "U/L",
              "system": "http://unitsofmeasure.org"
            }
          },
          {
            "high": {
              "value": 40,
              "code": "U/L",
              "system": "http://unitsofmeasure.org"
            }
          }
        ],
        "text": {
          "status": "generated",
          "div": "<div xmlns=\"http://www.w3.org/1999/xhtml\"><table class=\"hl7__eu__lab__report\"><tr><th>Test</th><th>28-Jan-2025</th><th>Reference&#xA0;Range</th><th>Unit</th></tr><tr><td>Aspartate aminotransferase [Enzymatic activity/volume] in Serum or Plasma</td><td>12.4</td><td>10 - 40</td><td></td><td>U/L</td></tr></table></div>"
        },
        "status": "final",
        "subject": {
          "reference": "urn:uuid:0e38f89c-ce33-48a0-ab28-cadee86f27b9",
          "display": "Timothy Smith"
        },
        "effectiveDateTime": "2025-01-28T03:53:59Z",
        "specimen": {
          "reference": "urn:uuid:e60242a2-6c1d-4a5c-a0f6-d06b550c2453"
        }
      }
    },
    {
      "fullUrl": "urn:uuid:3fcfca91-222e-4942-88eb-121c82f53dc1",
      "resource": {
        "resourceType": "Observation",
        "id": "3fcfca91-222e-4942-88eb-121c82f53dc1",
        "meta": {
          "profile": [
            "http://hl7.eu/fhir/laboratory/StructureDefinition/Observation-resultslab-eu-lab"
          ]
        },
        "performer": [
          {
            "display": "The Central European Lab"
          }
        ],
        "category": [
          {
            "coding": [
              {
                "system": "http://terminology.hl7.org/CodeSystem/observation-category",
                "code": "laboratory"
              }
            ]
          }
        ],
        "code": {
          "coding": [
            {
              "code": "19123-9",
              "system": "http://loinc.org",
              "display": "Magnesium [Mass/volume] in Serum or Plasma"
            }
          ],
          "text": "Magnesium [Mass/volume] in Serum or Plasma"
        },
        "valueQuantity": {
          "system": "http://unitsofmeasure.org",
          "value": 1.8,
          "unit": "mg/dL",
          "code": "mg/dL"
        },
        "referenceRange": [
          {
            "low": {
              "value": 1.6,
              "code": "mg/dL",
              "system": "http://unitsofmeasure.org"
            }
          },
          {
            "high": {
              "value": 2.6,
              "code": "mg/dL",
              "system": "http://unitsofmeasure.org"
            }
          }
        ],
        "text": {
          "status": "generated",
          "div": "<div xmlns=\"http://www.w3.org/1999/xhtml\"><table class=\"hl7__eu__lab__report\"><tr><th>Test</th><th>28-Jan-2025</th><th>Reference&#xA0;Range</th><th>Unit</th></tr><tr><td>Magnesium [Mass/volume] in Serum or Plasma</td><td>1.8</td><td>1.6 - 2.6</td><td></td><td>mg/dL</td></tr></table></div>"
        },
        "status": "final",
        "subject": {
          "reference": "urn:uuid:0e38f89c-ce33-48a0-ab28-cadee86f27b9",
          "display": "Timothy Smith"
        },
        "effectiveDateTime": "2025-01-28T03:53:59Z",
        "specimen": {
          "reference": "urn:uuid:e60242a2-6c1d-4a5c-a0f6-d06b550c2453"
        }
      }
    },
    {
      "fullUrl": "urn:uuid:a9f76d07-fc21-4df1-bb92-238ebb1b04c6",
      "resource": {
        "resourceType": "Observation",
        "id": "a9f76d07-fc21-4df1-bb92-238ebb1b04c6",
        "meta": {
          "profile": [
            "http://hl7.eu/fhir/laboratory/StructureDefinition/Observation-resultslab-eu-lab"
          ]
        },
        "performer": [
          {
            "display": "The Central European Lab"
          }
        ],
        "category": [
          {
            "coding": [
              {
                "system": "http://terminology.hl7.org/CodeSystem/observation-category",
                "code": "laboratory"
              }
            ]
          }
        ],
        "code": {
          "coding": [
            {
              "code": "2093-3",
              "system": "http://loinc.org",
              "display": "Cholesterol [Mass/volume] in Serum or Plasma"
            }
          ],
          "text": "Cholesterol [Mass/volume] in Serum or Plasma"
        },
        "valueQuantity": {
          "system": "http://unitsofmeasure.org",
          "value": 252,
          "unit": "mg/dL",
          "code": "mg/dL"
        },
        "referenceRange": [
          {
            "low": {
              "value": 0,
              "code": "mg/dL",
              "system": "http://unitsofmeasure.org"
            }
          },
          {
            "high": {
              "value": 200,
              "code": "mg/dL",
              "system": "http://unitsofmeasure.org"
            }
          }
        ],
        "interpretation": [
          {
            "coding": [
              {
                "code": "H",
                "system": "http://terminology.hl7.org/CodeSystem/v3-ObservationInterpretation",
                "display": "High"
              }
            ]
          }
        ],
        "text": {
          "status": "generated",
          "div": "<div xmlns=\"http://www.w3.org/1999/xhtml\"><table class=\"hl7__eu__lab__report\"><tr><th>Test</th><th>28-Jan-2025</th><th>Reference&#xA0;Range</th><th>Unit</th></tr><tr><td>Cholesterol [Mass/volume] in Serum or Plasma</td><td>252.0</td><td>0 - 200</td><td>H</td><td>mg/dL</td></tr></table></div>"
        },
        "status": "final",
        "subject": {
          "reference": "urn:uuid:0e38f89c-ce33-48a0-ab28-cadee86f27b9",
          "display": "Timothy Smith"
        },
        "effectiveDateTime": "2025-01-28T03:53:59Z",
        "specimen": {
          "reference": "urn:uuid:e60242a2-6c1d-4a5c-a0f6-d06b550c2453"
        }
      }
    },
    {
      "fullUrl": "urn:uuid:da8436b7-8c6d-4a18-86ef-6988117913f9",
      "resource": {
        "resourceType": "Observation",
        "id": "da8436b7-8c6d-4a18-86ef-6988117913f9",
        "meta": {
          "profile": [
            "http://hl7.eu/fhir/laboratory/StructureDefinition/Observation-resultslab-eu-lab"
          ]
        },
        "performer": [
          {
            "display": "The Central European Lab"
          }
        ],
        "category": [
          {
            "coding": [
              {
                "system": "http://terminology.hl7.org/CodeSystem/observation-category",
                "code": "laboratory"
              }
            ]
          }
        ],
        "code": {
          "coding": [
            {
              "code": "2571-8",
              "system": "http://loinc.org",
              "display": "Triglyceride [Mass/volume] in Serum or Plasma"
            }
          ],
          "text": "Triglyceride [Mass/volume] in Serum or Plasma"
        },
        "valueQuantity": {
          "system": "http://unitsofmeasure.org",
          "value": 308.3,
          "unit": "mg/dL",
          "code": "mg/dL"
        },
        "referenceRange": [
          {
            "low": {
              "value": 0,
              "code": "mg/dL",
              "system": "http://unitsofmeasure.org"
            }
          },
          {
            "high": {
              "value": 199,
              "code": "mg/dL",
              "system": "http://unitsofmeasure.org"
            }
          }
        ],
        "interpretation": [
          {
            "coding": [
              {
                "code": "H",
                "system": "http://terminology.hl7.org/CodeSystem/v3-ObservationInterpretation",
                "display": "High"
              }
            ]
          }
        ],
        "text": {
          "status": "generated",
          "div": "<div xmlns=\"http://www.w3.org/1999/xhtml\"><table class=\"hl7__eu__lab__report\"><tr><th>Test</th><th>28-Jan-2025</th><th>Reference&#xA0;Range</th><th>Unit</th></tr><tr><td>Triglyceride [Mass/volume] in Serum or Plasma</td><td>308.3</td><td>0 - 199</td><td>H</td><td>mg/dL</td></tr></table></div>"
        },
        "status": "final",
        "subject": {
          "reference": "urn:uuid:0e38f89c-ce33-48a0-ab28-cadee86f27b9",
          "display": "Timothy Smith"
        },
        "effectiveDateTime": "2025-01-28T03:53:59Z",
        "specimen": {
          "reference": "urn:uuid:e60242a2-6c1d-4a5c-a0f6-d06b550c2453"
        }
      }
    },
    {
      "fullUrl": "urn:uuid:99e3939e-69be-4295-a213-affdef389f4f",
      "resource": {
        "resourceType": "Observation",
        "id": "99e3939e-69be-4295-a213-affdef389f4f",
        "meta": {
          "profile": [
            "http://hl7.eu/fhir/laboratory/StructureDefinition/Observation-resultslab-eu-lab"
          ]
        },
        "performer": [
          {
            "display": "The Central European Lab"
          }
        ],
        "category": [
          {
            "coding": [
              {
                "system": "http://terminology.hl7.org/CodeSystem/observation-category",
                "code": "laboratory"
              }
            ]
          }
        ],
        "code": {
          "coding": [
            {
              "code": "18262-6",
              "system": "http://loinc.org",
              "display": "Cholesterol in LDL [Mass/volume] in Serum or Plasma by Direct assay"
            }
          ],
          "text": "Cholesterol in LDL [Mass/volume] in Serum or Plasma by Direct assay"
        },
        "valueQuantity": {
          "system": "http://unitsofmeasure.org",
          "value": 150.4,
          "unit": "mg/dL",
          "code": "mg/dL"
        },
        "referenceRange": [
          {
            "low": {
              "value": 0,
              "code": "mg/dL",
              "system": "http://unitsofmeasure.org"
            }
          },
          {
            "high": {
              "value": 130,
              "code": "mg/dL",
              "system": "http://unitsofmeasure.org"
            }
          }
        ],
        "interpretation": [
          {
            "coding": [
              {
                "code": "H",
                "system": "http://terminology.hl7.org/CodeSystem/v3-ObservationInterpretation",
                "display": "High"
              }
            ]
          }
        ],
        "text": {
          "status": "generated",
          "div": "<div xmlns=\"http://www.w3.org/1999/xhtml\"><table class=\"hl7__eu__lab__report\"><tr><th>Test</th><th>28-Jan-2025</th><th>Reference&#xA0;Range</th><th>Unit</th></tr><tr><td>Cholesterol in LDL [Mass/volume] in Serum or Plasma by Direct assay</td><td>150.4</td><td>0 - 130</td><td>H</td><td>mg/dL</td></tr></table></div>"
        },
        "status": "final",
        "subject": {
          "reference": "urn:uuid:0e38f89c-ce33-48a0-ab28-cadee86f27b9",
          "display": "Timothy Smith"
        },
        "effectiveDateTime": "2025-01-28T03:53:59Z",
        "specimen": {
          "reference": "urn:uuid:e60242a2-6c1d-4a5c-a0f6-d06b550c2453"
        }
      }
    },
    {
      "fullUrl": "urn:uuid:5f525366-5595-495e-8e1d-72fc11c71b6b",
      "resource": {
        "resourceType": "Observation",
        "id": "5f525366-5595-495e-8e1d-72fc11c71b6b",
        "meta": {
          "profile": [
            "http://hl7.eu/fhir/laboratory/StructureDefinition/Observation-resultslab-eu-lab"
          ]
        },
        "performer": [
          {
            "display": "The Central European Lab"
          }
        ],
        "category": [
          {
            "coding": [
              {
                "system": "http://terminology.hl7.org/CodeSystem/observation-category",
                "code": "laboratory"
              }
            ]
          }
        ],
        "code": {
          "coding": [
            {
              "code": "2085-9",
              "system": "http://loinc.org",
              "display": "Cholesterol in HDL [Mass/volume] in Serum or Plasma"
            }
          ],
          "text": "Cholesterol in HDL [Mass/volume] in Serum or Plasma"
        },
        "valueQuantity": {
          "system": "http://unitsofmeasure.org",
          "value": 39.9,
          "unit": "mg/dL",
          "code": "mg/dL"
        },
        "referenceRange": [
          {
            "low": {
              "value": 40,
              "code": "mg/dL",
              "system": "http://unitsofmeasure.org"
            }
          },
          {
            "high": {
              "value": 100,
              "code": "mg/dL",
              "system": "http://unitsofmeasure.org"
            }
          }
        ],
        "interpretation": [
          {
            "coding": [
              {
                "code": "L",
                "system": "http://terminology.hl7.org/CodeSystem/v3-ObservationInterpretation",
                "display": "Low"
              }
            ]
          }
        ],
        "text": {
          "status": "generated",
          "div": "<div xmlns=\"http://www.w3.org/1999/xhtml\"><table class=\"hl7__eu__lab__report\"><tr><th>Test</th><th>28-Jan-2025</th><th>Reference&#xA0;Range</th><th>Unit</th></tr><tr><td>Cholesterol in HDL [Mass/volume] in Serum or Plasma</td><td>39.9</td><td>40 - 100</td><td>L</td><td>mg/dL</td></tr></table></div>"
        },
        "status": "final",
        "subject": {
          "reference": "urn:uuid:0e38f89c-ce33-48a0-ab28-cadee86f27b9",
          "display": "Timothy Smith"
        },
        "effectiveDateTime": "2025-01-28T03:53:59Z",
        "specimen": {
          "reference": "urn:uuid:e60242a2-6c1d-4a5c-a0f6-d06b550c2453"
        }
      }
    },
    {
      "fullUrl": "urn:uuid:fc577c5a-b169-450f-b8a2-52336d408942",
      "resource": {
        "resourceType": "Observation",
        "id": "fc577c5a-b169-450f-b8a2-52336d408942",
        "meta": {
          "profile": [
            "http://hl7.eu/fhir/laboratory/StructureDefinition/Observation-resultslab-eu-lab"
          ]
        },
        "performer": [
          {
            "display": "The Central European Lab"
          }
        ],
        "category": [
          {
            "coding": [
              {
                "system": "http://terminology.hl7.org/CodeSystem/observation-category",
                "code": "laboratory"
              }
            ]
          }
        ],
        "code": {
          "coding": [
            {
              "code": "4548-4",
              "system": "http://loinc.org",
              "display": "Hemoglobin A1c/Hemoglobin.total in Blood"
            }
          ],
          "text": "Hemoglobin A1c/Hemoglobin.total in Blood"
        },
        "valueQuantity": {
          "system": "http://unitsofmeasure.org",
          "value": 5.5,
          "unit": "%",
          "code": "%"
        },
        "referenceRange": [
          {
            "low": {
              "value": 4.5,
              "code": "%",
              "system": "http://unitsofmeasure.org"
            }
          },
          {
            "high": {
              "value": 6.4,
              "code": "%",
              "system": "http://unitsofmeasure.org"
            }
          }
        ],
        "text": {
          "status": "generated",
          "div": "<div xmlns=\"http://www.w3.org/1999/xhtml\"><table class=\"hl7__eu__lab__report\"><tr><th>Test</th><th>28-Jan-2025</th><th>Reference&#xA0;Range</th><th>Unit</th></tr><tr><td>Hemoglobin A1c/Hemoglobin.total in Blood</td><td>5.5</td><td>4.5 - 6.4</td><td></td><td>%</td></tr></table></div>"
        },
        "status": "final",
        "subject": {
          "reference": "urn:uuid:0e38f89c-ce33-48a0-ab28-cadee86f27b9",
          "display": "Timothy Smith"
        },
        "effectiveDateTime": "2025-01-28T03:53:59Z",
        "specimen": {
          "reference": "urn:uuid:f76a6ab7-967e-4469-879c-b22ebca2af67"
        }
      }
    },
    {
      "fullUrl": "urn:uuid:941a93e8-fe75-49f3-b3b6-7619607dfe97",
      "resource": {
        "resourceType": "Observation",
        "id": "941a93e8-fe75-49f3-b3b6-7619607dfe97",
        "meta": {
          "profile": [
            "http://hl7.eu/fhir/laboratory/StructureDefinition/Observation-resultslab-eu-lab"
          ]
        },
        "performer": [
          {
            "display": "The Central European Lab"
          }
        ],
        "category": [
          {
            "coding": [
              {
                "system": "http://terminology.hl7.org/CodeSystem/observation-category",
                "code": "laboratory"
              }
            ]
          }
        ],
        "code": {
          "coding": [
            {
              "code": "89579-7",
              "system": "http://loinc.org",
              "display": "Troponin I.cardiac [Mass/volume] in Serum or Plasma by High sensitivity method"
            }
          ],
          "text": "Troponin I.cardiac [Mass/volume] in Serum or Plasma by High sensitivity method"
        },
        "valueQuantity": {
          "system": "http://unitsofmeasure.org",
          "value": 0,
          "unit": "pg/mL",
          "code": "pg/mL"
        },
        "referenceRange": [
          {
            "low": {
              "value": 0,
              "code": "pg/mL",
              "system": "http://unitsofmeasure.org"
            }
          },
          {
            "high": {
              "value": 19.9,
              "code": "pg/mL",
              "system": "http://unitsofmeasure.org"
            }
          }
        ],
        "text": {
          "status": "generated",
          "div": "<div xmlns=\"http://www.w3.org/1999/xhtml\"><table class=\"hl7__eu__lab__report\"><tr><th>Test</th><th>28-Jan-2025</th><th>Reference&#xA0;Range</th><th>Unit</th></tr><tr><td>Troponin I.cardiac [Mass/volume] in Serum or Plasma by High sensitivity method</td><td>0.0</td><td>0 - 19.9</td><td></td><td>pg/mL</td></tr></table></div>"
        },
        "status": "final",
        "subject": {
          "reference": "urn:uuid:0e38f89c-ce33-48a0-ab28-cadee86f27b9",
          "display": "Timothy Smith"
        },
        "effectiveDateTime": "2025-01-28T03:53:59Z",
        "specimen": {
          "reference": "urn:uuid:e60242a2-6c1d-4a5c-a0f6-d06b550c2453"
        }
      }
    },
    {
      "fullUrl": "urn:uuid:6f0b2fc2-4291-4b0e-85bd-f47930a128bb",
      "resource": {
        "resourceType": "Observation",
        "id": "6f0b2fc2-4291-4b0e-85bd-f47930a128bb",
        "meta": {
          "profile": [
            "http://hl7.eu/fhir/laboratory/StructureDefinition/Observation-resultslab-eu-lab"
          ]
        },
        "performer": [
          {
            "display": "The Central European Lab"
          }
        ],
        "category": [
          {
            "coding": [
              {
                "system": "http://terminology.hl7.org/CodeSystem/observation-category",
                "code": "laboratory"
              }
            ]
          }
        ],
        "code": {
          "coding": [
            {
              "code": "2276-4",
              "system": "http://loinc.org",
              "display": "Ferritin [Mass/volume] in Serum or Plasma"
            }
          ],
          "text": "Ferritin [Mass/volume] in Serum or Plasma"
        },
        "valueQuantity": {
          "system": "http://unitsofmeasure.org",
          "value": 136.8,
          "unit": "ug/L",
          "code": "ug/L"
        },
        "referenceRange": [
          {
            "low": {
              "value": 30,
              "code": "ug/L",
              "system": "http://unitsofmeasure.org"
            }
          },
          {
            "high": {
              "value": 300,
              "code": "ug/L",
              "system": "http://unitsofmeasure.org"
            }
          }
        ],
        "text": {
          "status": "generated",
          "div": "<div xmlns=\"http://www.w3.org/1999/xhtml\"><table class=\"hl7__eu__lab__report\"><tr><th>Test</th><th>28-Jan-2025</th><th>Reference&#xA0;Range</th><th>Unit</th></tr><tr><td>Ferritin [Mass/volume] in Serum or Plasma</td><td>136.8</td><td>30 - 300</td><td></td><td>ug/L</td></tr></table></div>"
        },
        "status": "final",
        "subject": {
          "reference": "urn:uuid:0e38f89c-ce33-48a0-ab28-cadee86f27b9",
          "display": "Timothy Smith"
        },
        "effectiveDateTime": "2025-01-28T03:53:59Z",
        "specimen": {
          "reference": "urn:uuid:e60242a2-6c1d-4a5c-a0f6-d06b550c2453"
        }
      }
    },
    {
      "fullUrl": "urn:uuid:7ee1ac36-1ca1-43cf-93a3-231360b10451",
      "resource": {
        "resourceType": "Observation",
        "id": "7ee1ac36-1ca1-43cf-93a3-231360b10451",
        "meta": {
          "profile": [
            "http://hl7.eu/fhir/laboratory/StructureDefinition/Observation-resultslab-eu-lab"
          ]
        },
        "performer": [
          {
            "display": "The Central European Lab"
          }
        ],
        "category": [
          {
            "coding": [
              {
                "system": "http://terminology.hl7.org/CodeSystem/observation-category",
                "code": "laboratory"
              }
            ]
          }
        ],
        "code": {
          "coding": [
            {
              "code": "2498-4",
              "system": "http://loinc.org",
              "display": "Iron [Mass/volume] in Serum or Plasma"
            }
          ],
          "text": "Iron [Mass/volume] in Serum or Plasma"
        },
        "valueQuantity": {
          "system": "http://unitsofmeasure.org",
          "value": 62.7,
          "unit": "ug/dL",
          "code": "ug/dL"
        },
        "referenceRange": [
          {
            "low": {
              "value": 65,
              "code": "ug/dL",
              "system": "http://unitsofmeasure.org"
            }
          },
          {
            "high": {
              "value": 300,
              "code": "ug/dL",
              "system": "http://unitsofmeasure.org"
            }
          }
        ],
        "interpretation": [
          {
            "coding": [
              {
                "code": "L",
                "system": "http://terminology.hl7.org/CodeSystem/v3-ObservationInterpretation",
                "display": "Low"
              }
            ]
          }
        ],
        "text": {
          "status": "generated",
          "div": "<div xmlns=\"http://www.w3.org/1999/xhtml\"><table class=\"hl7__eu__lab__report\"><tr><th>Test</th><th>28-Jan-2025</th><th>Reference&#xA0;Range</th><th>Unit</th></tr><tr><td>Iron [Mass/volume] in Serum or Plasma</td><td>62.7</td><td>65 - 300</td><td>L</td><td>ug/dL</td></tr></table></div>"
        },
        "status": "final",
        "subject": {
          "reference": "urn:uuid:0e38f89c-ce33-48a0-ab28-cadee86f27b9",
          "display": "Timothy Smith"
        },
        "effectiveDateTime": "2025-01-28T03:53:59Z",
        "specimen": {
          "reference": "urn:uuid:e60242a2-6c1d-4a5c-a0f6-d06b550c2453"
        }
      }
    },
    {
      "fullUrl": "urn:uuid:0757cb73-844b-4db2-8f91-2734786b2411",
      "resource": {
        "resourceType": "Observation",
        "id": "0757cb73-844b-4db2-8f91-2734786b2411",
        "meta": {
          "profile": [
            "http://hl7.eu/fhir/laboratory/StructureDefinition/Observation-resultslab-eu-lab"
          ]
        },
        "performer": [
          {
            "display": "The Central European Lab"
          }
        ],
        "category": [
          {
            "coding": [
              {
                "system": "http://terminology.hl7.org/CodeSystem/observation-category",
                "code": "laboratory"
              }
            ]
          }
        ],
        "code": {
          "coding": [
            {
              "code": "2500-7",
              "system": "http://loinc.org",
              "display": "Iron binding capacity [Mass/volume] in Serum or Plasma"
            }
          ],
          "text": "Iron binding capacity [Mass/volume] in Serum or Plasma"
        },
        "valueQuantity": {
          "system": "http://unitsofmeasure.org",
          "value": 404.4,
          "unit": "ug/dL",
          "code": "ug/dL"
        },
        "referenceRange": [
          {
            "low": {
              "value": 250,
              "code": "ug/dL",
              "system": "http://unitsofmeasure.org"
            }
          },
          {
            "high": {
              "value": 450,
              "code": "ug/dL",
              "system": "http://unitsofmeasure.org"
            }
          }
        ],
        "text": {
          "status": "generated",
          "div": "<div xmlns=\"http://www.w3.org/1999/xhtml\"><table class=\"hl7__eu__lab__report\"><tr><th>Test</th><th>28-Jan-2025</th><th>Reference&#xA0;Range</th><th>Unit</th></tr><tr><td>Iron binding capacity [Mass/volume] in Serum or Plasma</td><td>404.4</td><td>250 - 450</td><td></td><td>ug/dL</td></tr></table></div>"
        },
        "status": "final",
        "subject": {
          "reference": "urn:uuid:0e38f89c-ce33-48a0-ab28-cadee86f27b9",
          "display": "Timothy Smith"
        },
        "effectiveDateTime": "2025-01-28T03:53:59Z",
        "specimen": {
          "reference": "urn:uuid:e60242a2-6c1d-4a5c-a0f6-d06b550c2453"
        }
      }
    },
    {
      "fullUrl": "urn:uuid:492004b6-55d2-4f03-9dfd-bdc477cfbc88",
      "resource": {
        "resourceType": "Observation",
        "id": "492004b6-55d2-4f03-9dfd-bdc477cfbc88",
        "meta": {
          "profile": [
            "http://hl7.eu/fhir/laboratory/StructureDefinition/Observation-resultslab-eu-lab"
          ]
        },
        "performer": [
          {
            "display": "The Central European Lab"
          }
        ],
        "category": [
          {
            "coding": [
              {
                "system": "http://terminology.hl7.org/CodeSystem/observation-category",
                "code": "laboratory"
              }
            ]
          }
        ],
        "code": {
          "coding": [
            {
              "code": "2502-3",
              "system": "http://loinc.org",
              "display": "Iron saturation [Mass Fraction] in Serum or Plasma"
            }
          ],
          "text": "Iron saturation [Mass Fraction] in Serum or Plasma"
        },
        "valueQuantity": {
          "system": "http://unitsofmeasure.org",
          "value": 43.4,
          "unit": "%",
          "code": "%"
        },
        "referenceRange": [
          {
            "low": {
              "value": 15,
              "code": "%",
              "system": "http://unitsofmeasure.org"
            }
          },
          {
            "high": {
              "value": 45,
              "code": "%",
              "system": "http://unitsofmeasure.org"
            }
          }
        ],
        "text": {
          "status": "generated",
          "div": "<div xmlns=\"http://www.w3.org/1999/xhtml\"><table class=\"hl7__eu__lab__report\"><tr><th>Test</th><th>28-Jan-2025</th><th>Reference&#xA0;Range</th><th>Unit</th></tr><tr><td>Iron saturation [Mass Fraction] in Serum or Plasma</td><td>43.4</td><td>15 - 45</td><td></td><td>%</td></tr></table></div>"
        },
        "status": "final",
        "subject": {
          "reference": "urn:uuid:0e38f89c-ce33-48a0-ab28-cadee86f27b9",
          "display": "Timothy Smith"
        },
        "effectiveDateTime": "2025-01-28T03:53:59Z",
        "specimen": {
          "reference": "urn:uuid:e60242a2-6c1d-4a5c-a0f6-d06b550c2453"
        }
      }
    },
    {
      "fullUrl": "urn:uuid:3b9b4f70-21b1-4756-b478-7bfdab613f1a",
      "resource": {
        "resourceType": "Device",
        "id": "3b9b4f70-21b1-4756-b478-7bfdab613f1a",
        "deviceName": [
          {
            "name": "SYNDERAI Synthetic Generator",
            "type": "manufacturer-name"
          }
        ],
        "version": [
          {
            "value": "5.0"
          }
        ],
        "text": {
          "status": "generated",
          "div": "<div xmlns=\"http://www.w3.org/1999/xhtml\">SYNDERAI Synthetic Generator v5.0</div>"
        },
        "status": "active\"",
        "distinctIdentifier": "synderai-generator-50",
        "manufacturer": "SYNDERAI Project"
      }
    },
    {
      "fullUrl": "urn:uuid:39d37cb3-04cc-481a-9e9f-cb3f449f03c9",
      "resource": {
        "resourceType": "Provenance",
        "id": "39d37cb3-04cc-481a-9e9f-cb3f449f03c9",
        "target": [
          {
            "reference": "Patient/0e38f89c-ce33-48a0-ab28-cadee86f27b9"
          },
          {
            "reference": "Bundle/e3e68d0a-7768-49bd-a245-41d484e213a2"
          },
          {
            "reference": "Composition/2604dbf2-935b-46bf-b812-b451f20e55bc"
          },
          {
            "reference": "PractitionerRole/d1b66196-2767-4512-95a1-273497a520fd"
          },
          {
            "reference": "Practitioner/38b320d4-499b-415b-b583-e57bb3e707e7"
          },
          {
            "reference": "PractitionerRole/aa6b9adc-ebb6-4e46-b631-1656e4194361"
          },
          {
            "reference": "Organization/be18f341-2323-411a-b69f-d861810a9d4a"
          }
        ],
        "activity": {
          "text": "Synthetic Example Data Generation"
        },
        "policy": [
          "https://synderai.net/synderai-synthetic-data-policy"
        ],
        "agent": [
          {
            "type": {
              "text": "author"
            },
            "who": {
              "reference": "Device/3b9b4f70-21b1-4756-b478-7bfdab613f1a"
            }
          }
        ],
        "reason": [
          {
            "text": "Interoperability Testing and Training (non-clinical use)"
          }
        ],
        "text": {
          "status": "generated",
          "div": "<div xmlns=\"http://www.w3.org/1999/xhtml\">Provenance for SYNDERAI Synthetic Example Data Resource</div>"
        },
        "recorded": "2025-01-28T04:53:59Z"
      }
    },
    {
      "fullUrl": "urn:uuid:d1b66196-2767-4512-95a1-273497a520fd",
      "resource": {
        "resourceType": "PractitionerRole",
        "id": "d1b66196-2767-4512-95a1-273497a520fd",
        "meta": {
          "profile": [
            "http://hl7.eu/fhir/base/StructureDefinition/practitionerRole-eu"
          ]
        },
        "text": {
          "status": "generated",
          "div": "<div xmlns=\"http://www.w3.org/1999/xhtml\">Laboratory Role Id: d1b66196-2767-4512-95a1-273497a520fd</div>"
        },
        "practitioner": {
          "reference": "urn:uuid:38b320d4-499b-415b-b583-e57bb3e707e7"
        }
      }
    },
    {
      "fullUrl": "urn:uuid:38b320d4-499b-415b-b583-e57bb3e707e7",
      "resource": {
        "resourceType": "Practitioner",
        "id": "38b320d4-499b-415b-b583-e57bb3e707e7",
        "meta": {
          "profile": [
            "http://hl7.eu/fhir/base/StructureDefinition/practitioner-eu"
          ]
        },
        "identifier": [
          {
            "assigner": {
              "display": "HL7 Europe"
            },
            "system": "urn:oid:2.16.840.1.113883.2.51.999",
            "value": "785ccc0f-3185-4047-87ef-1cfc0874a7cf"
          }
        ],
        "name": [
          {
            "prefix": [
              "dr"
            ],
            "given": [
              "Ex"
            ],
            "family": "Ample"
          }
        ],
        "address": [
          {
            "line": [
              "Laboratoire Central Europenne",
              "Boulevard du Jardin Botanique 32"
            ],
            "postalCode": "1000",
            "city": "Brussels",
            "country": "Belgium"
          }
        ],
        "text": {
          "status": "generated",
          "div": "<div xmlns=\"http://www.w3.org/1999/xhtml\">Laboratory: Laboratoire Central Europenne, 1000 Brussels, Belgium</div>"
        }
      }
    }
  ],
  "type": "document",
  "timestamp": "2025-01-28T04:53:59Z"
}
