{
  "resourceType": "Bundle",
  "id": "29b25dcf-0fff-4d77-bbcc-fed0d602deb0",
  "meta": {
    "profile": [
      "http://hl7.eu/fhir/laboratory/StructureDefinition/Bundle-eu-lab"
    ]
  },
  "identifier": {
    "assigner": {
      "display": "HL7 Europe"
    },
    "system": "urn:oid:2.16.840.1.113883.2.51.999",
    "value": "d59871f2-8b9a-479c-b8f0-68117f250a7c"
  },
  "entry": [
    {
      "fullUrl": "urn:uuid:d5322ca8-c4e7-42fb-9580-a7b1f005894d",
      "resource": {
        "resourceType": "Composition",
        "id": "d5322ca8-c4e7-42fb-9580-a7b1f005894d",
        "meta": {
          "profile": [
            "http://hl7.eu/fhir/laboratory/StructureDefinition/Composition-eu-lab"
          ]
        },
        "identifier": {
          "assigner": {
            "display": "HL7 Europe"
          },
          "system": "urn:oid:2.16.840.1.113883.2.51.999",
          "value": "1aafed9d-7feb-49be-a761-4c4374f95e25"
        },
        "author": [
          {
            "reference": "urn:uuid:690ac6e3-12e9-423b-bb21-2eef01940701"
          }
        ],
        "category": [
          {
            "coding": [
              {
                "code": "26436-6",
                "system": "http://loinc.org",
                "display": "Laboratory studies (set)"
              }
            ]
          }
        ],
        "type": {
          "coding": [
            {
              "code": "11502-2",
              "system": "http://loinc.org",
              "display": "Laboratory report"
            }
          ],
          "text": "Laboratory Report"
        },
        "section": [
          {
            "code": {
              "coding": [
                {
                  "code": "26436-6",
                  "system": "http://loinc.org",
                  "display": "Laboratory studies (set)"
                }
              ],
              "text": "Laboratory studies"
            },
            "section": [
              {
                "code": {
                  "coding": [
                    {
                      "code": "$18719-5",
                      "system": "http://loinc.org",
                      "display": "Chemistry studies (set)"
                    }
                  ],
                  "text": "Chemistry"
                },
                "entry": [
                  {
                    "reference": "urn:uuid:87d7054e-4434-416c-a795-1af0ce1bbecd"
                  },
                  {
                    "reference": "urn:uuid:9cc581ae-2d7f-441f-970d-80d081d2040d"
                  },
                  {
                    "reference": "urn:uuid:454f85f9-ada9-4195-bc7a-f6fb7325d4ec"
                  },
                  {
                    "reference": "urn:uuid:a3bcfc41-d3a8-4ad8-bc98-28543ff52435"
                  },
                  {
                    "reference": "urn:uuid:0bdac27c-47ab-4be4-9188-c6add6b789ab"
                  },
                  {
                    "reference": "urn:uuid:2eb6f3dc-ba0d-4ec7-a2a6-5b77dc6a2723"
                  },
                  {
                    "reference": "urn:uuid:e50fdaf6-cb3f-4cd1-8941-33cf2c5fdf05"
                  },
                  {
                    "reference": "urn:uuid:6d5b65ab-4d2e-4862-943d-79ba9f2b04a1"
                  },
                  {
                    "reference": "urn:uuid:54bd8a83-5e25-4e77-b44d-946974387952"
                  },
                  {
                    "reference": "urn:uuid:fbc4c166-b765-4205-9d5a-47078dab8173"
                  },
                  {
                    "reference": "urn:uuid:9bd57320-d06b-4d03-ab52-f71f36accf23"
                  },
                  {
                    "reference": "urn:uuid:86c159b0-fe91-47ed-8ff0-57b64a6898b2"
                  },
                  {
                    "reference": "urn:uuid:275ae5df-5027-409d-978b-c16b4a2714f0"
                  }
                ],
                "text": {
                  "status": "generated",
                  "div": "<div xmlns=\"http://www.w3.org/1999/xhtml\"><h3>Chemistry</h3><table class=\"hl7__eu__lab__report\"><thead><tr><th>Test</th><th>28-FEB-2019</th><th>Reference&#xA0;Range</th><th>Unit</th></tr></thead><tbody><tr><td>Glucose [Mass/volume] in Serum or Plasma</td><td><strong>64.2 L</strong></td><td>70 - 140</td><td>mg/dL</td></tr><tr><td>Urea nitrogen [Mass/volume] in Serum or Plasma</td><td>14.0</td><td>7 - 50</td><td>mg/dL</td></tr><tr><td>Creatinine [Mass/volume] in Serum or Plasma</td><td><strong>1.5 H</strong></td><td>0.6 - 1.1</td><td>mg/dL</td></tr><tr><td>Calcium [Mass/volume] in Serum or Plasma</td><td>9.8</td><td>8.5 - 10.5</td><td>mg/dL</td></tr><tr><td>Sodium [Moles/volume] in Serum or Plasma</td><td>139.9</td><td>135 - 145</td><td>mmol/L</td></tr><tr><td>Potassium [Moles/volume] in Serum or Plasma</td><td>3.9</td><td>3.5 - 5.1</td><td>mmol/L</td></tr><tr><td>Chloride [Moles/volume] in Serum or Plasma</td><td>107.9</td><td>98 - 108</td><td>mmol/L</td></tr><tr><td>Carbon dioxide, total [Moles/volume] in Serum or Plasma</td><td>26.5</td><td>22 - 32</td><td>mmol/L</td></tr><tr><td>Ketones [Presence] in Urine by Test strip</td><td>Urine ketone test = trace</td><td></td><td></td></tr><tr><td>Cholesterol [Mass/volume] in Serum or Plasma</td><td>184.5</td><td>125 - 200</td><td>mg/dL</td></tr><tr><td>Triglyceride [Mass/volume] in Serum or Plasma</td><td>122.8</td><td>10 - 175</td><td>mg/dL</td></tr><tr><td>Cholesterol in LDL [Mass/volume] in Serum or Plasma by Direct assay</td><td>97.1</td><td>0 - 130</td><td>mg/dL</td></tr><tr><td>Cholesterol in HDL [Mass/volume] in Serum or Plasma</td><td>62.8</td><td>40 - 100</td><td>mg/dL</td></tr></tbody></table></div>"
                },
                "title": "Chemistry"
              },
              {
                "code": {
                  "coding": [
                    {
                      "code": "$18729-4",
                      "system": "http://loinc.org",
                      "display": "Urinalysis studies (set)"
                    }
                  ],
                  "text": "Urinalysis"
                },
                "entry": [
                  {
                    "reference": "urn:uuid:5f902fab-fc3d-4a12-a7cc-a59e7ec93d11"
                  },
                  {
                    "reference": "urn:uuid:4b284a11-ec16-4537-ab3d-df260a640f28"
                  },
                  {
                    "reference": "urn:uuid:55c0c8b6-81dc-4d18-af7f-a56ee5ef1a0e"
                  },
                  {
                    "reference": "urn:uuid:cfdf6a98-70b3-40fa-93d9-6eb5769f0847"
                  },
                  {
                    "reference": "urn:uuid:2c742b19-ea53-453c-94f4-1098cfdf1701"
                  },
                  {
                    "reference": "urn:uuid:ca881599-f6c7-49de-bed0-ffab2d3bf3ab"
                  },
                  {
                    "reference": "urn:uuid:c1a3457a-960e-468c-986f-05b1675cf362"
                  },
                  {
                    "reference": "urn:uuid:6f5f3b2f-9611-48ea-be45-1eb34c026a22"
                  },
                  {
                    "reference": "urn:uuid:7b356553-09fc-464c-a5d3-575be6def66e"
                  },
                  {
                    "reference": "urn:uuid:c1480bfe-c283-492d-975f-8bd6e9f093be"
                  },
                  {
                    "reference": "urn:uuid:2cf088d8-aae4-43c8-b4ca-acecfd9747e1"
                  },
                  {
                    "reference": "urn:uuid:72a98611-e07b-4f2a-8453-87a8b1dcd040"
                  }
                ],
                "text": {
                  "status": "generated",
                  "div": "<div xmlns=\"http://www.w3.org/1999/xhtml\"><h3>Urinalysis</h3><table class=\"hl7__eu__lab__report\"><thead><tr><th>Test</th><th>28-FEB-2019</th><th>Reference&#xA0;Range</th><th>Unit</th></tr></thead><tbody><tr><td>Glucose [Mass/volume] in Urine by Test strip</td><td><strong>1.0 H</strong></td><td>0.8 - 0</td><td>mg/dL</td></tr><tr><td>Glucose [Presence] in Urine by Test strip</td><td>++</td><td></td><td></td></tr><tr><td>Bilirubin.total [Mass/volume] in Urine by Test strip</td><td><strong>1.4 H</strong></td><td>0 - 1</td><td>mg/dL</td></tr><tr><td>Bilirubin.total [Presence] in Urine by Test strip</td><td>Finding of bilirubin in urine</td><td></td><td></td></tr><tr><td>Ketones [Mass/volume] in Urine by Test strip</td><td>14.3</td><td>0 - 20</td><td>mg/dL</td></tr><tr><td>Specific gravity of Urine by Test strip</td><td><strong>1.0 L</strong></td><td>1.01 - 1.03</td><td>{nominal}</td></tr><tr><td>pH of Urine by Test strip</td><td>5.6</td><td>4.6 - 7</td><td>pH</td></tr><tr><td>Protein [Mass/volume] in Urine by Test strip</td><td><strong>109.2 H</strong></td><td>0 - 15</td><td>mg/dL</td></tr><tr><td>Protein [Presence] in Urine by Test strip</td><td>Urine protein test = +</td><td></td><td></td></tr><tr><td>Nitrite [Presence] in Urine by Test strip</td><td>Urine nitrite negative</td><td></td><td></td></tr><tr><td>Hemoglobin [Presence] in Urine by Test strip</td><td>Urine blood test = negative</td><td></td><td></td></tr><tr><td>Leukocyte esterase [Presence] in Urine by Test strip</td><td>Urine leukocyte test negative</td><td></td><td></td></tr></tbody></table></div>"
                },
                "title": "Urinalysis"
              },
              {
                "code": {
                  "coding": [
                    {
                      "code": "$LP7846-1",
                      "system": "http://loinc.org",
                      "display": "Specimen information"
                    }
                  ],
                  "text": "Specimen information"
                },
                "entry": [
                  {
                    "reference": "urn:uuid:f9a3f4a4-5d40-40c6-95e9-d644278f4af7"
                  },
                  {
                    "reference": "urn:uuid:b6a47b59-e962-4a90-9b9b-f1fc3bda3213"
                  },
                  {
                    "reference": "urn:uuid:4a7ea519-0689-4c28-b973-03c2b8f24e8e"
                  },
                  {
                    "reference": "urn:uuid:acbcd842-d4a3-433c-87d0-d4f8b66327de"
                  }
                ],
                "text": {
                  "status": "generated",
                  "div": "<div xmlns=\"http://www.w3.org/1999/xhtml\"><h3>Specimen information</h3><table class=\"hl7__eu__lab__report\"><thead><tr><th>Test</th><th>28-FEB-2019</th><th>Specimen</th><th></th></tr></thead><tbody><tr><td>Appearance of Urine</td><td>Cloudy urine</td><td>Urine</td><td></td></tr><tr><td>Odor of Urine</td><td>Urine smell ammoniacal</td><td>Urine</td><td></td></tr><tr><td>Clarity of Urine</td><td>Translucent</td><td>Urine</td><td></td></tr><tr><td>Color of Urine</td><td>Brown color</td><td>Urine</td><td></td></tr></tbody></table></div>"
                },
                "title": "Specimen information"
              }
            ],
            "title": "Laboratory Report"
          },
          {
            "text": {
              "status": "generated",
              "div": "<div xmlns=\"http://www.w3.org/1999/xhtml\"><h3>Annotation</h3><table class=\"hl7__eu__lab__report\"><tr><th>Conclusion and Recommendations based on this report and previous findings known to us</th></tr><tr><td>The patient shows mild hypoglycemia and elevated creatinine, suggesting possible renal impairment. Urinalysis reveals proteinuria, glucosuria, bilirubinuria, low specific gravity, and abnormal urine appearance (cloudy, brown, ammoniacal), which may indicate renal dysfunction and possible hepatic involvement. No evidence of urinary tract infection. Recommend further evaluation of renal and hepatic function and clinical correlation.</td></tr></table></div>"
            },
            "code": {
              "coding": [
                {
                  "system": "http://loinc.org",
                  "code": "48767-8",
                  "display": "Annotation comment"
                }
              ]
            },
            "title": "Annotation comment"
          }
        ],
        "status": "final",
        "subject": {
          "reference": "urn:uuid:203e15a1-1944-49ad-bfb1-cc1ab1c9442c",
          "display": "Marthe Gallet"
        },
        "date": "2019-02-28T20:05:43Z",
        "title": "Laboratory Report",
        "confidentiality": "N"
      }
    },
    {
      "fullUrl": "urn:uuid:e3a5a78f-c308-45e5-b9c7-d12e360ff679",
      "resource": {
        "resourceType": "DiagnosticReport",
        "id": "e3a5a78f-c308-45e5-b9c7-d12e360ff679",
        "meta": {
          "profile": [
            "http://hl7.eu/fhir/laboratory/StructureDefinition/DiagnosticReport-eu-lab"
          ]
        },
        "identifier": [
          {
            "assigner": {
              "display": "HL7 Europe"
            },
            "system": "urn:oid:2.16.840.1.113883.2.51.999",
            "value": "79514740-b42d-40de-bf20-48a052679e49"
          }
        ],
        "extension": [
          {
            "url": "http://hl7.org/fhir/5.0/StructureDefinition/extension-DiagnosticReport.composition",
            "valueReference": {
              "reference": "urn:uuid:1aafed9d-7feb-49be-a761-4c4374f95e25"
            }
          }
        ],
        "category": [
          {
            "coding": [
              {
                "code": "26436-6",
                "system": "http://loinc.org",
                "display": "Laboratory studies (set)"
              }
            ]
          }
        ],
        "specimen": [
          {
            "reference": "urn:uuid:17c6d42c-aeab-4480-9f3c-06532a9259de"
          },
          {
            "reference": "urn:uuid:e7a83964-ded0-420d-bfd7-5729e74afd77"
          }
        ],
        "result": [
          {
            "reference": "urn:uuid:87d7054e-4434-416c-a795-1af0ce1bbecd"
          },
          {
            "reference": "urn:uuid:9cc581ae-2d7f-441f-970d-80d081d2040d"
          },
          {
            "reference": "urn:uuid:454f85f9-ada9-4195-bc7a-f6fb7325d4ec"
          },
          {
            "reference": "urn:uuid:a3bcfc41-d3a8-4ad8-bc98-28543ff52435"
          },
          {
            "reference": "urn:uuid:0bdac27c-47ab-4be4-9188-c6add6b789ab"
          },
          {
            "reference": "urn:uuid:2eb6f3dc-ba0d-4ec7-a2a6-5b77dc6a2723"
          },
          {
            "reference": "urn:uuid:e50fdaf6-cb3f-4cd1-8941-33cf2c5fdf05"
          },
          {
            "reference": "urn:uuid:6d5b65ab-4d2e-4862-943d-79ba9f2b04a1"
          },
          {
            "reference": "urn:uuid:f9a3f4a4-5d40-40c6-95e9-d644278f4af7"
          },
          {
            "reference": "urn:uuid:b6a47b59-e962-4a90-9b9b-f1fc3bda3213"
          },
          {
            "reference": "urn:uuid:4a7ea519-0689-4c28-b973-03c2b8f24e8e"
          },
          {
            "reference": "urn:uuid:acbcd842-d4a3-433c-87d0-d4f8b66327de"
          },
          {
            "reference": "urn:uuid:5f902fab-fc3d-4a12-a7cc-a59e7ec93d11"
          },
          {
            "reference": "urn:uuid:4b284a11-ec16-4537-ab3d-df260a640f28"
          },
          {
            "reference": "urn:uuid:55c0c8b6-81dc-4d18-af7f-a56ee5ef1a0e"
          },
          {
            "reference": "urn:uuid:cfdf6a98-70b3-40fa-93d9-6eb5769f0847"
          },
          {
            "reference": "urn:uuid:2c742b19-ea53-453c-94f4-1098cfdf1701"
          },
          {
            "reference": "urn:uuid:54bd8a83-5e25-4e77-b44d-946974387952"
          },
          {
            "reference": "urn:uuid:ca881599-f6c7-49de-bed0-ffab2d3bf3ab"
          },
          {
            "reference": "urn:uuid:c1a3457a-960e-468c-986f-05b1675cf362"
          },
          {
            "reference": "urn:uuid:6f5f3b2f-9611-48ea-be45-1eb34c026a22"
          },
          {
            "reference": "urn:uuid:7b356553-09fc-464c-a5d3-575be6def66e"
          },
          {
            "reference": "urn:uuid:c1480bfe-c283-492d-975f-8bd6e9f093be"
          },
          {
            "reference": "urn:uuid:2cf088d8-aae4-43c8-b4ca-acecfd9747e1"
          },
          {
            "reference": "urn:uuid:72a98611-e07b-4f2a-8453-87a8b1dcd040"
          },
          {
            "reference": "urn:uuid:fbc4c166-b765-4205-9d5a-47078dab8173"
          },
          {
            "reference": "urn:uuid:9bd57320-d06b-4d03-ab52-f71f36accf23"
          },
          {
            "reference": "urn:uuid:86c159b0-fe91-47ed-8ff0-57b64a6898b2"
          },
          {
            "reference": "urn:uuid:275ae5df-5027-409d-978b-c16b4a2714f0"
          }
        ],
        "status": "registered",
        "code": {
          "coding": [
            {
              "code": "11502-2",
              "system": "http://loinc.org",
              "display": "Laboratory report"
            }
          ]
        },
        "subject": {
          "reference": "urn:uuid:203e15a1-1944-49ad-bfb1-cc1ab1c9442c",
          "display": "Marthe Gallet"
        }
      }
    },
    {
      "fullUrl": "urn:uuid:203e15a1-1944-49ad-bfb1-cc1ab1c9442c",
      "resource": {
        "resourceType": "Patient",
        "id": "203e15a1-1944-49ad-bfb1-cc1ab1c9442c",
        "meta": {
          "security": [
            {
              "system": "http://terminology.hl7.org/CodeSystem/v3-ActReason",
              "code": "HTEST"
            },
            {
              "system": "http://terminology.hl7.org/CodeSystem/v3-ActReason",
              "code": "TRAIN"
            }
          ],
          "tag": [
            {
              "system": "https://synderai.net/fhir/CodeSystem/tags",
              "code": "synthetic",
              "display": "SYNDERAI Synthetic data"
            }
          ],
          "profile": [
            "http://hl7.eu/fhir/base/StructureDefinition/patient-eu-core"
          ]
        },
        "identifier": [
          {
            "type": {
              "coding": [
                {
                  "code": "PT",
                  "system": "http://terminology.hl7.org/CodeSystem/v2-0203"
                }
              ]
            },
            "system": "http://ec.europa.eu/identifier/eci",
            "value": "9444-947487-6"
          },
          {
            "type": {
              "coding": [
                {
                  "code": "MR",
                  "system": "http://terminology.hl7.org/CodeSystem/v2-0203"
                }
              ]
            },
            "system": "http://local.setting.eu/identifier",
            "value": "854228d5-a476-2d9c-a1d7-c3202375a617"
          }
        ],
        "name": [
          {
            "family": "Gallet"
          },
          {
            "given": [
              "Marthe"
            ]
          },
          {
            "text": "Marthe Gallet"
          }
        ],
        "address": [
          {
            "line": [
              "3, rue Emmanuel Goncalves"
            ],
            "use": "home",
            "type": "physical",
            "postalCode": "49490",
            "city": "Briand",
            "country": "France"
          }
        ],
        "telecom": [
          {
            "system": "phone",
            "value": "+33 1 70 99 82 74"
          }
        ],
        "extension": [
          {
            "url": "http://hl7.org/fhir/StructureDefinition/patient-nationality",
            "valueCodeableConcept": {
              "coding": [
                {
                  "code": "FR",
                  "system": "http://hl7.org/fhir/ValueSet/country"
                }
              ]
            }
          }
        ],
        "text": {
          "status": "generated",
          "div": "<div xmlns=\"http://www.w3.org/1999/xhtml\"><table class=\"hl7__ips\"><tr><td>Marthe Gallet</td><td>female</td><td>29-Oct-1950</td></tr></table></div>"
        },
        "gender": "female",
        "birthDate": "1950-10-29"
      }
    },
    {
      "fullUrl": "urn:uuid:c85c7ea9-c5ba-4465-a523-2a7a8ab89194",
      "resource": {
        "resourceType": "ServiceRequest",
        "id": "c85c7ea9-c5ba-4465-a523-2a7a8ab89194",
        "meta": {
          "profile": [
            "http://hl7.eu/fhir/laboratory/StructureDefinition/ServiceRequest-eu-lab"
          ]
        },
        "identifier": [
          {
            "system": "http://example.org",
            "value": "95a45c2b-1513-452d-b4d3-b0a0fa28f31e"
          }
        ],
        "specimen": [
          {
            "reference": "urn:uuid:17c6d42c-aeab-4480-9f3c-06532a9259de"
          },
          {
            "reference": "urn:uuid:e7a83964-ded0-420d-bfd7-5729e74afd77"
          }
        ],
        "reasonCode": [
          {
            "coding": [
              {
                "code": "431856006",
                "system": "http://snomed.info/sct",
                "display": "Chronic kidney disease stage 2"
              }
            ]
          },
          {
            "coding": [
              {
                "code": "90781000119102",
                "system": "http://snomed.info/sct",
                "display": "Microalbuminuria due to type 2 diabetes mellitus"
              }
            ]
          },
          {
            "coding": [
              {
                "code": "127013003",
                "system": "http://snomed.info/sct",
                "display": "Disorder of kidney due to diabetes mellitus"
              }
            ]
          },
          {
            "coding": [
              {
                "code": "431855005",
                "system": "http://snomed.info/sct",
                "display": "Chronic kidney disease stage 1"
              }
            ]
          },
          {
            "coding": [
              {
                "code": "55822004",
                "system": "http://snomed.info/sct",
                "display": "Hyperlipidemia"
              }
            ]
          },
          {
            "coding": [
              {
                "code": "59621000",
                "system": "http://snomed.info/sct",
                "display": "Essential hypertension"
              }
            ]
          }
        ],
        "status": "active",
        "intent": "order",
        "code": {
          "coding": [
            {
              "code": "108252007",
              "system": "http://snomed.info/sct",
              "display": "Laboratory procedure"
            }
          ]
        },
        "subject": {
          "reference": "urn:uuid:203e15a1-1944-49ad-bfb1-cc1ab1c9442c",
          "display": "Marthe Gallet"
        },
        "requester": {
          "reference": "urn:uuid:5333c185-bffe-450a-9382-ab4d0d1ffc84"
        }
      }
    },
    {
      "fullUrl": "urn:uuid:5333c185-bffe-450a-9382-ab4d0d1ffc84",
      "resource": {
        "resourceType": "PractitionerRole",
        "id": "5333c185-bffe-450a-9382-ab4d0d1ffc84",
        "meta": {
          "profile": [
            "http://hl7.eu/fhir/base/StructureDefinition/practitionerRole-eu"
          ]
        },
        "text": {
          "status": "generated",
          "div": "<div xmlns=\"http://www.w3.org/1999/xhtml\">Provider Role Id: 5333c185-bffe-450a-9382-ab4d0d1ffc84</div>"
        },
        "organization": {
          "reference": "urn:uuid:eb7abb06-0aea-4d34-9db7-cbdf7d493bc5"
        }
      }
    },
    {
      "fullUrl": "urn:uuid:eb7abb06-0aea-4d34-9db7-cbdf7d493bc5",
      "resource": {
        "resourceType": "Organization",
        "id": "eb7abb06-0aea-4d34-9db7-cbdf7d493bc5",
        "meta": {
          "profile": [
            "http://hl7.eu/fhir/base/StructureDefinition/organization-eu"
          ]
        },
        "identifier": [
          {
            "assigner": {
              "display": "HL7 Europe"
            },
            "system": "urn:oid:2.16.840.1.113883.2.51.999",
            "value": "a5bf0657-a841-420c-bf19-a53d5a9ee70b"
          }
        ],
        "address": [
          {
            "line": [
              "Rue Larrey nan"
            ],
            "city": "Angers",
            "postalCode": "49100",
            "country": "France"
          }
        ],
        "text": {
          "status": "generated",
          "div": "<div xmlns=\"http://www.w3.org/1999/xhtml\">Provider Organization: CHU d&#039;Angers</div>"
        },
        "name": "CHU d&#039;Angers"
      }
    },
    {
      "fullUrl": "urn:uuid:17c6d42c-aeab-4480-9f3c-06532a9259de",
      "resource": {
        "resourceType": "Specimen",
        "id": "17c6d42c-aeab-4480-9f3c-06532a9259de",
        "meta": {
          "profile": [
            "http://hl7.eu/fhir/laboratory/StructureDefinition/Specimen-eu-lab"
          ]
        },
        "collection": {
          "collectedDateTime": "2019-02-28"
        },
        "text": {
          "status": "generated",
          "div": "<div xmlns=\"http://www.w3.org/1999/xhtml\"><table class=\"hl7__eu__lab__report\"><tr><th>Specimen</th><th>Collection Date</th></tr><tr><td>Acellular blood (serum or plasma) specimen</td><td><span class=\"nb\">28-Feb-2019</span></td></tr></table></div>"
        },
        "type": {
          "coding": [
            {
              "code": "122592007",
              "system": "http://snomed.info/sct",
              "display": "Acellular blood (serum or plasma) specimen"
            }
          ]
        }
      }
    },
    {
      "fullUrl": "urn:uuid:e7a83964-ded0-420d-bfd7-5729e74afd77",
      "resource": {
        "resourceType": "Specimen",
        "id": "e7a83964-ded0-420d-bfd7-5729e74afd77",
        "meta": {
          "profile": [
            "http://hl7.eu/fhir/laboratory/StructureDefinition/Specimen-eu-lab"
          ]
        },
        "collection": {
          "collectedDateTime": "2019-02-28"
        },
        "text": {
          "status": "generated",
          "div": "<div xmlns=\"http://www.w3.org/1999/xhtml\"><table class=\"hl7__eu__lab__report\"><tr><th>Specimen</th><th>Collection Date</th></tr><tr><td>Urine specimen</td><td><span class=\"nb\">28-Feb-2019</span></td></tr></table></div>"
        },
        "type": {
          "coding": [
            {
              "code": "122575003",
              "system": "http://snomed.info/sct",
              "display": "Urine specimen"
            }
          ]
        }
      }
    },
    {
      "fullUrl": "urn:uuid:87d7054e-4434-416c-a795-1af0ce1bbecd",
      "resource": {
        "resourceType": "Observation",
        "id": "87d7054e-4434-416c-a795-1af0ce1bbecd",
        "meta": {
          "profile": [
            "http://hl7.eu/fhir/laboratory/StructureDefinition/Observation-resultslab-eu-lab"
          ]
        },
        "performer": [
          {
            "display": "The Central European Lab"
          }
        ],
        "category": [
          {
            "coding": [
              {
                "system": "http://terminology.hl7.org/CodeSystem/observation-category",
                "code": "laboratory"
              }
            ]
          }
        ],
        "code": {
          "coding": [
            {
              "code": "2345-7",
              "system": "http://loinc.org",
              "display": "Glucose [Mass/volume] in Serum or Plasma"
            }
          ],
          "text": "Glucose [Mass/volume] in Serum or Plasma"
        },
        "valueQuantity": {
          "system": "http://unitsofmeasure.org",
          "value": 64.2,
          "unit": "mg/dL",
          "code": "mg/dL"
        },
        "referenceRange": [
          {
            "low": {
              "value": 70,
              "code": "mg/dL",
              "system": "http://unitsofmeasure.org"
            }
          },
          {
            "high": {
              "value": 140,
              "code": "mg/dL",
              "system": "http://unitsofmeasure.org"
            }
          }
        ],
        "interpretation": [
          {
            "coding": [
              {
                "code": "L",
                "system": "http://terminology.hl7.org/CodeSystem/v3-ObservationInterpretation",
                "display": "Low"
              }
            ]
          }
        ],
        "text": {
          "status": "generated",
          "div": "<div xmlns=\"http://www.w3.org/1999/xhtml\"><table class=\"hl7__eu__lab__report\"><tr><th>Test</th><th>28-Feb-2019</th><th>Reference&#xA0;Range</th><th>Unit</th></tr><tr><td>Glucose [Mass/volume] in Serum or Plasma</td><td>64.2</td><td>70 - 140</td><td>L</td><td>mg/dL</td></tr></table></div>"
        },
        "status": "final",
        "subject": {
          "reference": "urn:uuid:203e15a1-1944-49ad-bfb1-cc1ab1c9442c",
          "display": "Marthe Gallet"
        },
        "effectiveDateTime": "2019-02-28T19:05:43Z",
        "specimen": {
          "reference": "urn:uuid:17c6d42c-aeab-4480-9f3c-06532a9259de"
        }
      }
    },
    {
      "fullUrl": "urn:uuid:9cc581ae-2d7f-441f-970d-80d081d2040d",
      "resource": {
        "resourceType": "Observation",
        "id": "9cc581ae-2d7f-441f-970d-80d081d2040d",
        "meta": {
          "profile": [
            "http://hl7.eu/fhir/laboratory/StructureDefinition/Observation-resultslab-eu-lab"
          ]
        },
        "performer": [
          {
            "display": "The Central European Lab"
          }
        ],
        "category": [
          {
            "coding": [
              {
                "system": "http://terminology.hl7.org/CodeSystem/observation-category",
                "code": "laboratory"
              }
            ]
          }
        ],
        "code": {
          "coding": [
            {
              "code": "3094-0",
              "system": "http://loinc.org",
              "display": "Urea nitrogen [Mass/volume] in Serum or Plasma"
            }
          ],
          "text": "Urea nitrogen [Mass/volume] in Serum or Plasma"
        },
        "valueQuantity": {
          "system": "http://unitsofmeasure.org",
          "value": 14,
          "unit": "mg/dL",
          "code": "mg/dL"
        },
        "referenceRange": [
          {
            "low": {
              "value": 7,
              "code": "mg/dL",
              "system": "http://unitsofmeasure.org"
            }
          },
          {
            "high": {
              "value": 50,
              "code": "mg/dL",
              "system": "http://unitsofmeasure.org"
            }
          }
        ],
        "text": {
          "status": "generated",
          "div": "<div xmlns=\"http://www.w3.org/1999/xhtml\"><table class=\"hl7__eu__lab__report\"><tr><th>Test</th><th>28-Feb-2019</th><th>Reference&#xA0;Range</th><th>Unit</th></tr><tr><td>Urea nitrogen [Mass/volume] in Serum or Plasma</td><td>14.0</td><td>7 - 50</td><td></td><td>mg/dL</td></tr></table></div>"
        },
        "status": "final",
        "subject": {
          "reference": "urn:uuid:203e15a1-1944-49ad-bfb1-cc1ab1c9442c",
          "display": "Marthe Gallet"
        },
        "effectiveDateTime": "2019-02-28T19:05:43Z",
        "specimen": {
          "reference": "urn:uuid:17c6d42c-aeab-4480-9f3c-06532a9259de"
        }
      }
    },
    {
      "fullUrl": "urn:uuid:454f85f9-ada9-4195-bc7a-f6fb7325d4ec",
      "resource": {
        "resourceType": "Observation",
        "id": "454f85f9-ada9-4195-bc7a-f6fb7325d4ec",
        "meta": {
          "profile": [
            "http://hl7.eu/fhir/laboratory/StructureDefinition/Observation-resultslab-eu-lab"
          ]
        },
        "performer": [
          {
            "display": "The Central European Lab"
          }
        ],
        "category": [
          {
            "coding": [
              {
                "system": "http://terminology.hl7.org/CodeSystem/observation-category",
                "code": "laboratory"
              }
            ]
          }
        ],
        "code": {
          "coding": [
            {
              "code": "2160-0",
              "system": "http://loinc.org",
              "display": "Creatinine [Mass/volume] in Serum or Plasma"
            }
          ],
          "text": "Creatinine [Mass/volume] in Serum or Plasma"
        },
        "valueQuantity": {
          "system": "http://unitsofmeasure.org",
          "value": 1.5,
          "unit": "mg/dL",
          "code": "mg/dL"
        },
        "referenceRange": [
          {
            "low": {
              "value": 0.6,
              "code": "mg/dL",
              "system": "http://unitsofmeasure.org"
            }
          },
          {
            "high": {
              "value": 1.1,
              "code": "mg/dL",
              "system": "http://unitsofmeasure.org"
            }
          }
        ],
        "interpretation": [
          {
            "coding": [
              {
                "code": "H",
                "system": "http://terminology.hl7.org/CodeSystem/v3-ObservationInterpretation",
                "display": "High"
              }
            ]
          }
        ],
        "text": {
          "status": "generated",
          "div": "<div xmlns=\"http://www.w3.org/1999/xhtml\"><table class=\"hl7__eu__lab__report\"><tr><th>Test</th><th>28-Feb-2019</th><th>Reference&#xA0;Range</th><th>Unit</th></tr><tr><td>Creatinine [Mass/volume] in Serum or Plasma</td><td>1.5</td><td>0.6 - 1.1</td><td>H</td><td>mg/dL</td></tr></table></div>"
        },
        "status": "final",
        "subject": {
          "reference": "urn:uuid:203e15a1-1944-49ad-bfb1-cc1ab1c9442c",
          "display": "Marthe Gallet"
        },
        "effectiveDateTime": "2019-02-28T19:05:43Z",
        "specimen": {
          "reference": "urn:uuid:17c6d42c-aeab-4480-9f3c-06532a9259de"
        }
      }
    },
    {
      "fullUrl": "urn:uuid:a3bcfc41-d3a8-4ad8-bc98-28543ff52435",
      "resource": {
        "resourceType": "Observation",
        "id": "a3bcfc41-d3a8-4ad8-bc98-28543ff52435",
        "meta": {
          "profile": [
            "http://hl7.eu/fhir/laboratory/StructureDefinition/Observation-resultslab-eu-lab"
          ]
        },
        "performer": [
          {
            "display": "The Central European Lab"
          }
        ],
        "category": [
          {
            "coding": [
              {
                "system": "http://terminology.hl7.org/CodeSystem/observation-category",
                "code": "laboratory"
              }
            ]
          }
        ],
        "code": {
          "coding": [
            {
              "code": "17861-6",
              "system": "http://loinc.org",
              "display": "Calcium [Mass/volume] in Serum or Plasma"
            }
          ],
          "text": "Calcium [Mass/volume] in Serum or Plasma"
        },
        "valueQuantity": {
          "system": "http://unitsofmeasure.org",
          "value": 9.8,
          "unit": "mg/dL",
          "code": "mg/dL"
        },
        "referenceRange": [
          {
            "low": {
              "value": 8.5,
              "code": "mg/dL",
              "system": "http://unitsofmeasure.org"
            }
          },
          {
            "high": {
              "value": 10.5,
              "code": "mg/dL",
              "system": "http://unitsofmeasure.org"
            }
          }
        ],
        "text": {
          "status": "generated",
          "div": "<div xmlns=\"http://www.w3.org/1999/xhtml\"><table class=\"hl7__eu__lab__report\"><tr><th>Test</th><th>28-Feb-2019</th><th>Reference&#xA0;Range</th><th>Unit</th></tr><tr><td>Calcium [Mass/volume] in Serum or Plasma</td><td>9.8</td><td>8.5 - 10.5</td><td></td><td>mg/dL</td></tr></table></div>"
        },
        "status": "final",
        "subject": {
          "reference": "urn:uuid:203e15a1-1944-49ad-bfb1-cc1ab1c9442c",
          "display": "Marthe Gallet"
        },
        "effectiveDateTime": "2019-02-28T19:05:43Z",
        "specimen": {
          "reference": "urn:uuid:17c6d42c-aeab-4480-9f3c-06532a9259de"
        }
      }
    },
    {
      "fullUrl": "urn:uuid:0bdac27c-47ab-4be4-9188-c6add6b789ab",
      "resource": {
        "resourceType": "Observation",
        "id": "0bdac27c-47ab-4be4-9188-c6add6b789ab",
        "meta": {
          "profile": [
            "http://hl7.eu/fhir/laboratory/StructureDefinition/Observation-resultslab-eu-lab"
          ]
        },
        "performer": [
          {
            "display": "The Central European Lab"
          }
        ],
        "category": [
          {
            "coding": [
              {
                "system": "http://terminology.hl7.org/CodeSystem/observation-category",
                "code": "laboratory"
              }
            ]
          }
        ],
        "code": {
          "coding": [
            {
              "code": "2951-2",
              "system": "http://loinc.org",
              "display": "Sodium [Moles/volume] in Serum or Plasma"
            }
          ],
          "text": "Sodium [Moles/volume] in Serum or Plasma"
        },
        "valueQuantity": {
          "system": "http://unitsofmeasure.org",
          "value": 139.9,
          "unit": "mmol/L",
          "code": "mmol/L"
        },
        "referenceRange": [
          {
            "low": {
              "value": 135,
              "code": "mmol/L",
              "system": "http://unitsofmeasure.org"
            }
          },
          {
            "high": {
              "value": 145,
              "code": "mmol/L",
              "system": "http://unitsofmeasure.org"
            }
          }
        ],
        "text": {
          "status": "generated",
          "div": "<div xmlns=\"http://www.w3.org/1999/xhtml\"><table class=\"hl7__eu__lab__report\"><tr><th>Test</th><th>28-Feb-2019</th><th>Reference&#xA0;Range</th><th>Unit</th></tr><tr><td>Sodium [Moles/volume] in Serum or Plasma</td><td>139.9</td><td>135 - 145</td><td></td><td>mmol/L</td></tr></table></div>"
        },
        "status": "final",
        "subject": {
          "reference": "urn:uuid:203e15a1-1944-49ad-bfb1-cc1ab1c9442c",
          "display": "Marthe Gallet"
        },
        "effectiveDateTime": "2019-02-28T19:05:43Z",
        "specimen": {
          "reference": "urn:uuid:17c6d42c-aeab-4480-9f3c-06532a9259de"
        }
      }
    },
    {
      "fullUrl": "urn:uuid:2eb6f3dc-ba0d-4ec7-a2a6-5b77dc6a2723",
      "resource": {
        "resourceType": "Observation",
        "id": "2eb6f3dc-ba0d-4ec7-a2a6-5b77dc6a2723",
        "meta": {
          "profile": [
            "http://hl7.eu/fhir/laboratory/StructureDefinition/Observation-resultslab-eu-lab"
          ]
        },
        "performer": [
          {
            "display": "The Central European Lab"
          }
        ],
        "category": [
          {
            "coding": [
              {
                "system": "http://terminology.hl7.org/CodeSystem/observation-category",
                "code": "laboratory"
              }
            ]
          }
        ],
        "code": {
          "coding": [
            {
              "code": "2823-3",
              "system": "http://loinc.org",
              "display": "Potassium [Moles/volume] in Serum or Plasma"
            }
          ],
          "text": "Potassium [Moles/volume] in Serum or Plasma"
        },
        "valueQuantity": {
          "system": "http://unitsofmeasure.org",
          "value": 3.9,
          "unit": "mmol/L",
          "code": "mmol/L"
        },
        "referenceRange": [
          {
            "low": {
              "value": 3.5,
              "code": "mmol/L",
              "system": "http://unitsofmeasure.org"
            }
          },
          {
            "high": {
              "value": 5.1,
              "code": "mmol/L",
              "system": "http://unitsofmeasure.org"
            }
          }
        ],
        "text": {
          "status": "generated",
          "div": "<div xmlns=\"http://www.w3.org/1999/xhtml\"><table class=\"hl7__eu__lab__report\"><tr><th>Test</th><th>28-Feb-2019</th><th>Reference&#xA0;Range</th><th>Unit</th></tr><tr><td>Potassium [Moles/volume] in Serum or Plasma</td><td>3.9</td><td>3.5 - 5.1</td><td></td><td>mmol/L</td></tr></table></div>"
        },
        "status": "final",
        "subject": {
          "reference": "urn:uuid:203e15a1-1944-49ad-bfb1-cc1ab1c9442c",
          "display": "Marthe Gallet"
        },
        "effectiveDateTime": "2019-02-28T19:05:43Z",
        "specimen": {
          "reference": "urn:uuid:17c6d42c-aeab-4480-9f3c-06532a9259de"
        }
      }
    },
    {
      "fullUrl": "urn:uuid:e50fdaf6-cb3f-4cd1-8941-33cf2c5fdf05",
      "resource": {
        "resourceType": "Observation",
        "id": "e50fdaf6-cb3f-4cd1-8941-33cf2c5fdf05",
        "meta": {
          "profile": [
            "http://hl7.eu/fhir/laboratory/StructureDefinition/Observation-resultslab-eu-lab"
          ]
        },
        "performer": [
          {
            "display": "The Central European Lab"
          }
        ],
        "category": [
          {
            "coding": [
              {
                "system": "http://terminology.hl7.org/CodeSystem/observation-category",
                "code": "laboratory"
              }
            ]
          }
        ],
        "code": {
          "coding": [
            {
              "code": "2075-0",
              "system": "http://loinc.org",
              "display": "Chloride [Moles/volume] in Serum or Plasma"
            }
          ],
          "text": "Chloride [Moles/volume] in Serum or Plasma"
        },
        "valueQuantity": {
          "system": "http://unitsofmeasure.org",
          "value": 107.9,
          "unit": "mmol/L",
          "code": "mmol/L"
        },
        "referenceRange": [
          {
            "low": {
              "value": 98,
              "code": "mmol/L",
              "system": "http://unitsofmeasure.org"
            }
          },
          {
            "high": {
              "value": 108,
              "code": "mmol/L",
              "system": "http://unitsofmeasure.org"
            }
          }
        ],
        "text": {
          "status": "generated",
          "div": "<div xmlns=\"http://www.w3.org/1999/xhtml\"><table class=\"hl7__eu__lab__report\"><tr><th>Test</th><th>28-Feb-2019</th><th>Reference&#xA0;Range</th><th>Unit</th></tr><tr><td>Chloride [Moles/volume] in Serum or Plasma</td><td>107.9</td><td>98 - 108</td><td></td><td>mmol/L</td></tr></table></div>"
        },
        "status": "final",
        "subject": {
          "reference": "urn:uuid:203e15a1-1944-49ad-bfb1-cc1ab1c9442c",
          "display": "Marthe Gallet"
        },
        "effectiveDateTime": "2019-02-28T19:05:43Z",
        "specimen": {
          "reference": "urn:uuid:17c6d42c-aeab-4480-9f3c-06532a9259de"
        }
      }
    },
    {
      "fullUrl": "urn:uuid:6d5b65ab-4d2e-4862-943d-79ba9f2b04a1",
      "resource": {
        "resourceType": "Observation",
        "id": "6d5b65ab-4d2e-4862-943d-79ba9f2b04a1",
        "meta": {
          "profile": [
            "http://hl7.eu/fhir/laboratory/StructureDefinition/Observation-resultslab-eu-lab"
          ]
        },
        "performer": [
          {
            "display": "The Central European Lab"
          }
        ],
        "category": [
          {
            "coding": [
              {
                "system": "http://terminology.hl7.org/CodeSystem/observation-category",
                "code": "laboratory"
              }
            ]
          }
        ],
        "code": {
          "coding": [
            {
              "code": "2028-9",
              "system": "http://loinc.org",
              "display": "Carbon dioxide, total [Moles/volume] in Serum or Plasma"
            }
          ],
          "text": "Carbon dioxide, total [Moles/volume] in Serum or Plasma"
        },
        "valueQuantity": {
          "system": "http://unitsofmeasure.org",
          "value": 26.5,
          "unit": "mmol/L",
          "code": "mmol/L"
        },
        "referenceRange": [
          {
            "low": {
              "value": 22,
              "code": "mmol/L",
              "system": "http://unitsofmeasure.org"
            }
          },
          {
            "high": {
              "value": 32,
              "code": "mmol/L",
              "system": "http://unitsofmeasure.org"
            }
          }
        ],
        "text": {
          "status": "generated",
          "div": "<div xmlns=\"http://www.w3.org/1999/xhtml\"><table class=\"hl7__eu__lab__report\"><tr><th>Test</th><th>28-Feb-2019</th><th>Reference&#xA0;Range</th><th>Unit</th></tr><tr><td>Carbon dioxide, total [Moles/volume] in Serum or Plasma</td><td>26.5</td><td>22 - 32</td><td></td><td>mmol/L</td></tr></table></div>"
        },
        "status": "final",
        "subject": {
          "reference": "urn:uuid:203e15a1-1944-49ad-bfb1-cc1ab1c9442c",
          "display": "Marthe Gallet"
        },
        "effectiveDateTime": "2019-02-28T19:05:43Z",
        "specimen": {
          "reference": "urn:uuid:17c6d42c-aeab-4480-9f3c-06532a9259de"
        }
      }
    },
    {
      "fullUrl": "urn:uuid:f9a3f4a4-5d40-40c6-95e9-d644278f4af7",
      "resource": {
        "resourceType": "Observation",
        "id": "f9a3f4a4-5d40-40c6-95e9-d644278f4af7",
        "meta": {
          "profile": [
            "http://hl7.eu/fhir/laboratory/StructureDefinition/Observation-resultslab-eu-lab"
          ]
        },
        "performer": [
          {
            "display": "The Central European Lab"
          }
        ],
        "category": [
          {
            "coding": [
              {
                "system": "http://terminology.hl7.org/CodeSystem/observation-category",
                "code": "laboratory"
              }
            ]
          }
        ],
        "code": {
          "coding": [
            {
              "code": "5767-9",
              "system": "http://loinc.org",
              "display": "Appearance of Urine"
            }
          ],
          "text": "Appearance of Urine"
        },
        "text": {
          "status": "generated",
          "div": "<div xmlns=\"http://www.w3.org/1999/xhtml\"><table class=\"hl7__eu__lab__report\"><tr><th>Test</th><th>28-Feb-2019</th><th>Reference&#xA0;Range</th><th>Unit</th></tr><tr><td>Appearance of Urine</td></tr></table></div>"
        },
        "status": "final",
        "subject": {
          "reference": "urn:uuid:203e15a1-1944-49ad-bfb1-cc1ab1c9442c",
          "display": "Marthe Gallet"
        },
        "effectiveDateTime": "2019-02-28T19:05:43Z",
        "specimen": {
          "reference": "urn:uuid:e7a83964-ded0-420d-bfd7-5729e74afd77"
        }
      }
    },
    {
      "fullUrl": "urn:uuid:b6a47b59-e962-4a90-9b9b-f1fc3bda3213",
      "resource": {
        "resourceType": "Observation",
        "id": "b6a47b59-e962-4a90-9b9b-f1fc3bda3213",
        "meta": {
          "profile": [
            "http://hl7.eu/fhir/laboratory/StructureDefinition/Observation-resultslab-eu-lab"
          ]
        },
        "performer": [
          {
            "display": "The Central European Lab"
          }
        ],
        "category": [
          {
            "coding": [
              {
                "system": "http://terminology.hl7.org/CodeSystem/observation-category",
                "code": "laboratory"
              }
            ]
          }
        ],
        "code": {
          "coding": [
            {
              "code": "34533-0",
              "system": "http://loinc.org",
              "display": "Odor of Urine"
            }
          ],
          "text": "Odor of Urine"
        },
        "text": {
          "status": "generated",
          "div": "<div xmlns=\"http://www.w3.org/1999/xhtml\"><table class=\"hl7__eu__lab__report\"><tr><th>Test</th><th>28-Feb-2019</th><th>Reference&#xA0;Range</th><th>Unit</th></tr><tr><td>Odor of Urine</td></tr></table></div>"
        },
        "status": "final",
        "subject": {
          "reference": "urn:uuid:203e15a1-1944-49ad-bfb1-cc1ab1c9442c",
          "display": "Marthe Gallet"
        },
        "effectiveDateTime": "2019-02-28T19:05:43Z",
        "specimen": {
          "reference": "urn:uuid:e7a83964-ded0-420d-bfd7-5729e74afd77"
        }
      }
    },
    {
      "fullUrl": "urn:uuid:4a7ea519-0689-4c28-b973-03c2b8f24e8e",
      "resource": {
        "resourceType": "Observation",
        "id": "4a7ea519-0689-4c28-b973-03c2b8f24e8e",
        "meta": {
          "profile": [
            "http://hl7.eu/fhir/laboratory/StructureDefinition/Observation-resultslab-eu-lab"
          ]
        },
        "performer": [
          {
            "display": "The Central European Lab"
          }
        ],
        "category": [
          {
            "coding": [
              {
                "system": "http://terminology.hl7.org/CodeSystem/observation-category",
                "code": "laboratory"
              }
            ]
          }
        ],
        "code": {
          "coding": [
            {
              "code": "32167-9",
              "system": "http://loinc.org",
              "display": "Clarity of Urine"
            }
          ],
          "text": "Clarity of Urine"
        },
        "text": {
          "status": "generated",
          "div": "<div xmlns=\"http://www.w3.org/1999/xhtml\"><table class=\"hl7__eu__lab__report\"><tr><th>Test</th><th>28-Feb-2019</th><th>Reference&#xA0;Range</th><th>Unit</th></tr><tr><td>Clarity of Urine</td></tr></table></div>"
        },
        "status": "final",
        "subject": {
          "reference": "urn:uuid:203e15a1-1944-49ad-bfb1-cc1ab1c9442c",
          "display": "Marthe Gallet"
        },
        "effectiveDateTime": "2019-02-28T19:05:43Z",
        "specimen": {
          "reference": "urn:uuid:e7a83964-ded0-420d-bfd7-5729e74afd77"
        }
      }
    },
    {
      "fullUrl": "urn:uuid:acbcd842-d4a3-433c-87d0-d4f8b66327de",
      "resource": {
        "resourceType": "Observation",
        "id": "acbcd842-d4a3-433c-87d0-d4f8b66327de",
        "meta": {
          "profile": [
            "http://hl7.eu/fhir/laboratory/StructureDefinition/Observation-resultslab-eu-lab"
          ]
        },
        "performer": [
          {
            "display": "The Central European Lab"
          }
        ],
        "category": [
          {
            "coding": [
              {
                "system": "http://terminology.hl7.org/CodeSystem/observation-category",
                "code": "laboratory"
              }
            ]
          }
        ],
        "code": {
          "coding": [
            {
              "code": "5778-6",
              "system": "http://loinc.org",
              "display": "Color of Urine"
            }
          ],
          "text": "Color of Urine"
        },
        "text": {
          "status": "generated",
          "div": "<div xmlns=\"http://www.w3.org/1999/xhtml\"><table class=\"hl7__eu__lab__report\"><tr><th>Test</th><th>28-Feb-2019</th><th>Reference&#xA0;Range</th><th>Unit</th></tr><tr><td>Color of Urine</td></tr></table></div>"
        },
        "status": "final",
        "subject": {
          "reference": "urn:uuid:203e15a1-1944-49ad-bfb1-cc1ab1c9442c",
          "display": "Marthe Gallet"
        },
        "effectiveDateTime": "2019-02-28T19:05:43Z",
        "specimen": {
          "reference": "urn:uuid:e7a83964-ded0-420d-bfd7-5729e74afd77"
        }
      }
    },
    {
      "fullUrl": "urn:uuid:5f902fab-fc3d-4a12-a7cc-a59e7ec93d11",
      "resource": {
        "resourceType": "Observation",
        "id": "5f902fab-fc3d-4a12-a7cc-a59e7ec93d11",
        "meta": {
          "profile": [
            "http://hl7.eu/fhir/laboratory/StructureDefinition/Observation-resultslab-eu-lab"
          ]
        },
        "performer": [
          {
            "display": "The Central European Lab"
          }
        ],
        "category": [
          {
            "coding": [
              {
                "system": "http://terminology.hl7.org/CodeSystem/observation-category",
                "code": "laboratory"
              }
            ]
          }
        ],
        "code": {
          "coding": [
            {
              "code": "5792-7",
              "system": "http://loinc.org",
              "display": "Glucose [Mass/volume] in Urine by Test strip"
            }
          ],
          "text": "Glucose [Mass/volume] in Urine by Test strip"
        },
        "valueQuantity": {
          "system": "http://unitsofmeasure.org",
          "value": 1,
          "unit": "mg/dL",
          "code": "mg/dL"
        },
        "referenceRange": [
          {
            "low": {
              "value": 0.8,
              "code": "mg/dL",
              "system": "http://unitsofmeasure.org"
            }
          },
          {
            "high": {
              "value": 0,
              "code": "mg/dL",
              "system": "http://unitsofmeasure.org"
            }
          }
        ],
        "interpretation": [
          {
            "coding": [
              {
                "code": "H",
                "system": "http://terminology.hl7.org/CodeSystem/v3-ObservationInterpretation",
                "display": "High"
              }
            ]
          }
        ],
        "text": {
          "status": "generated",
          "div": "<div xmlns=\"http://www.w3.org/1999/xhtml\"><table class=\"hl7__eu__lab__report\"><tr><th>Test</th><th>28-Feb-2019</th><th>Reference&#xA0;Range</th><th>Unit</th></tr><tr><td>Glucose [Mass/volume] in Urine by Test strip</td><td>1.0</td><td>0.8 - 0</td><td>H</td><td>mg/dL</td></tr></table></div>"
        },
        "status": "final",
        "subject": {
          "reference": "urn:uuid:203e15a1-1944-49ad-bfb1-cc1ab1c9442c",
          "display": "Marthe Gallet"
        },
        "effectiveDateTime": "2019-02-28T19:05:43Z",
        "specimen": {
          "reference": "urn:uuid:e7a83964-ded0-420d-bfd7-5729e74afd77"
        }
      }
    },
    {
      "fullUrl": "urn:uuid:4b284a11-ec16-4537-ab3d-df260a640f28",
      "resource": {
        "resourceType": "Observation",
        "id": "4b284a11-ec16-4537-ab3d-df260a640f28",
        "meta": {
          "profile": [
            "http://hl7.eu/fhir/laboratory/StructureDefinition/Observation-resultslab-eu-lab"
          ]
        },
        "performer": [
          {
            "display": "The Central European Lab"
          }
        ],
        "category": [
          {
            "coding": [
              {
                "system": "http://terminology.hl7.org/CodeSystem/observation-category",
                "code": "laboratory"
              }
            ]
          }
        ],
        "code": {
          "coding": [
            {
              "code": "25428-4",
              "system": "http://loinc.org",
              "display": "Glucose [Presence] in Urine by Test strip"
            }
          ],
          "text": "Glucose [Presence] in Urine by Test strip"
        },
        "text": {
          "status": "generated",
          "div": "<div xmlns=\"http://www.w3.org/1999/xhtml\"><table class=\"hl7__eu__lab__report\"><tr><th>Test</th><th>28-Feb-2019</th><th>Reference&#xA0;Range</th><th>Unit</th></tr><tr><td>Glucose [Presence] in Urine by Test strip</td></tr></table></div>"
        },
        "status": "final",
        "subject": {
          "reference": "urn:uuid:203e15a1-1944-49ad-bfb1-cc1ab1c9442c",
          "display": "Marthe Gallet"
        },
        "effectiveDateTime": "2019-02-28T19:05:43Z",
        "specimen": {
          "reference": "urn:uuid:e7a83964-ded0-420d-bfd7-5729e74afd77"
        }
      }
    },
    {
      "fullUrl": "urn:uuid:55c0c8b6-81dc-4d18-af7f-a56ee5ef1a0e",
      "resource": {
        "resourceType": "Observation",
        "id": "55c0c8b6-81dc-4d18-af7f-a56ee5ef1a0e",
        "meta": {
          "profile": [
            "http://hl7.eu/fhir/laboratory/StructureDefinition/Observation-resultslab-eu-lab"
          ]
        },
        "performer": [
          {
            "display": "The Central European Lab"
          }
        ],
        "category": [
          {
            "coding": [
              {
                "system": "http://terminology.hl7.org/CodeSystem/observation-category",
                "code": "laboratory"
              }
            ]
          }
        ],
        "code": {
          "coding": [
            {
              "code": "20505-4",
              "system": "http://loinc.org",
              "display": "Bilirubin.total [Mass/volume] in Urine by Test strip"
            }
          ],
          "text": "Bilirubin.total [Mass/volume] in Urine by Test strip"
        },
        "valueQuantity": {
          "system": "http://unitsofmeasure.org",
          "value": 1.4,
          "unit": "mg/dL",
          "code": "mg/dL"
        },
        "referenceRange": [
          {
            "low": {
              "value": 0,
              "code": "mg/dL",
              "system": "http://unitsofmeasure.org"
            }
          },
          {
            "high": {
              "value": 1,
              "code": "mg/dL",
              "system": "http://unitsofmeasure.org"
            }
          }
        ],
        "interpretation": [
          {
            "coding": [
              {
                "code": "H",
                "system": "http://terminology.hl7.org/CodeSystem/v3-ObservationInterpretation",
                "display": "High"
              }
            ]
          }
        ],
        "text": {
          "status": "generated",
          "div": "<div xmlns=\"http://www.w3.org/1999/xhtml\"><table class=\"hl7__eu__lab__report\"><tr><th>Test</th><th>28-Feb-2019</th><th>Reference&#xA0;Range</th><th>Unit</th></tr><tr><td>Bilirubin.total [Mass/volume] in Urine by Test strip</td><td>1.4</td><td>0 - 1</td><td>H</td><td>mg/dL</td></tr></table></div>"
        },
        "status": "final",
        "subject": {
          "reference": "urn:uuid:203e15a1-1944-49ad-bfb1-cc1ab1c9442c",
          "display": "Marthe Gallet"
        },
        "effectiveDateTime": "2019-02-28T19:05:43Z",
        "specimen": {
          "reference": "urn:uuid:e7a83964-ded0-420d-bfd7-5729e74afd77"
        }
      }
    },
    {
      "fullUrl": "urn:uuid:cfdf6a98-70b3-40fa-93d9-6eb5769f0847",
      "resource": {
        "resourceType": "Observation",
        "id": "cfdf6a98-70b3-40fa-93d9-6eb5769f0847",
        "meta": {
          "profile": [
            "http://hl7.eu/fhir/laboratory/StructureDefinition/Observation-resultslab-eu-lab"
          ]
        },
        "performer": [
          {
            "display": "The Central European Lab"
          }
        ],
        "category": [
          {
            "coding": [
              {
                "system": "http://terminology.hl7.org/CodeSystem/observation-category",
                "code": "laboratory"
              }
            ]
          }
        ],
        "code": {
          "coding": [
            {
              "code": "5770-3",
              "system": "http://loinc.org",
              "display": "Bilirubin.total [Presence] in Urine by Test strip"
            }
          ],
          "text": "Bilirubin.total [Presence] in Urine by Test strip"
        },
        "text": {
          "status": "generated",
          "div": "<div xmlns=\"http://www.w3.org/1999/xhtml\"><table class=\"hl7__eu__lab__report\"><tr><th>Test</th><th>28-Feb-2019</th><th>Reference&#xA0;Range</th><th>Unit</th></tr><tr><td>Bilirubin.total [Presence] in Urine by Test strip</td></tr></table></div>"
        },
        "status": "final",
        "subject": {
          "reference": "urn:uuid:203e15a1-1944-49ad-bfb1-cc1ab1c9442c",
          "display": "Marthe Gallet"
        },
        "effectiveDateTime": "2019-02-28T19:05:43Z",
        "specimen": {
          "reference": "urn:uuid:e7a83964-ded0-420d-bfd7-5729e74afd77"
        }
      }
    },
    {
      "fullUrl": "urn:uuid:2c742b19-ea53-453c-94f4-1098cfdf1701",
      "resource": {
        "resourceType": "Observation",
        "id": "2c742b19-ea53-453c-94f4-1098cfdf1701",
        "meta": {
          "profile": [
            "http://hl7.eu/fhir/laboratory/StructureDefinition/Observation-resultslab-eu-lab"
          ]
        },
        "performer": [
          {
            "display": "The Central European Lab"
          }
        ],
        "category": [
          {
            "coding": [
              {
                "system": "http://terminology.hl7.org/CodeSystem/observation-category",
                "code": "laboratory"
              }
            ]
          }
        ],
        "code": {
          "coding": [
            {
              "code": "5797-6",
              "system": "http://loinc.org",
              "display": "Ketones [Mass/volume] in Urine by Test strip"
            }
          ],
          "text": "Ketones [Mass/volume] in Urine by Test strip"
        },
        "valueQuantity": {
          "system": "http://unitsofmeasure.org",
          "value": 14.3,
          "unit": "mg/dL",
          "code": "mg/dL"
        },
        "referenceRange": [
          {
            "low": {
              "value": 0,
              "code": "mg/dL",
              "system": "http://unitsofmeasure.org"
            }
          },
          {
            "high": {
              "value": 20,
              "code": "mg/dL",
              "system": "http://unitsofmeasure.org"
            }
          }
        ],
        "text": {
          "status": "generated",
          "div": "<div xmlns=\"http://www.w3.org/1999/xhtml\"><table class=\"hl7__eu__lab__report\"><tr><th>Test</th><th>28-Feb-2019</th><th>Reference&#xA0;Range</th><th>Unit</th></tr><tr><td>Ketones [Mass/volume] in Urine by Test strip</td><td>14.3</td><td>0 - 20</td><td></td><td>mg/dL</td></tr></table></div>"
        },
        "status": "final",
        "subject": {
          "reference": "urn:uuid:203e15a1-1944-49ad-bfb1-cc1ab1c9442c",
          "display": "Marthe Gallet"
        },
        "effectiveDateTime": "2019-02-28T19:05:43Z",
        "specimen": {
          "reference": "urn:uuid:e7a83964-ded0-420d-bfd7-5729e74afd77"
        }
      }
    },
    {
      "fullUrl": "urn:uuid:54bd8a83-5e25-4e77-b44d-946974387952",
      "resource": {
        "resourceType": "Observation",
        "id": "54bd8a83-5e25-4e77-b44d-946974387952",
        "meta": {
          "profile": [
            "http://hl7.eu/fhir/laboratory/StructureDefinition/Observation-resultslab-eu-lab"
          ]
        },
        "performer": [
          {
            "display": "The Central European Lab"
          }
        ],
        "category": [
          {
            "coding": [
              {
                "system": "http://terminology.hl7.org/CodeSystem/observation-category",
                "code": "laboratory"
              }
            ]
          }
        ],
        "code": {
          "coding": [
            {
              "code": "2514-8",
              "system": "http://loinc.org",
              "display": "Ketones [Presence] in Urine by Test strip"
            }
          ],
          "text": "Ketones [Presence] in Urine by Test strip"
        },
        "text": {
          "status": "generated",
          "div": "<div xmlns=\"http://www.w3.org/1999/xhtml\"><table class=\"hl7__eu__lab__report\"><tr><th>Test</th><th>28-Feb-2019</th><th>Reference&#xA0;Range</th><th>Unit</th></tr><tr><td>Ketones [Presence] in Urine by Test strip</td></tr></table></div>"
        },
        "status": "final",
        "subject": {
          "reference": "urn:uuid:203e15a1-1944-49ad-bfb1-cc1ab1c9442c",
          "display": "Marthe Gallet"
        },
        "effectiveDateTime": "2019-02-28T19:05:43Z",
        "specimen": {
          "reference": "urn:uuid:e7a83964-ded0-420d-bfd7-5729e74afd77"
        }
      }
    },
    {
      "fullUrl": "urn:uuid:ca881599-f6c7-49de-bed0-ffab2d3bf3ab",
      "resource": {
        "resourceType": "Observation",
        "id": "ca881599-f6c7-49de-bed0-ffab2d3bf3ab",
        "meta": {
          "profile": [
            "http://hl7.eu/fhir/laboratory/StructureDefinition/Observation-resultslab-eu-lab"
          ]
        },
        "performer": [
          {
            "display": "The Central European Lab"
          }
        ],
        "category": [
          {
            "coding": [
              {
                "system": "http://terminology.hl7.org/CodeSystem/observation-category",
                "code": "laboratory"
              }
            ]
          }
        ],
        "code": {
          "coding": [
            {
              "code": "5811-5",
              "system": "http://loinc.org",
              "display": "Specific gravity of Urine by Test strip"
            }
          ],
          "text": "Specific gravity of Urine by Test strip"
        },
        "valueQuantity": {
          "system": "http://unitsofmeasure.org",
          "value": 1,
          "unit": "{nominal}",
          "code": "{nominal}"
        },
        "referenceRange": [
          {
            "low": {
              "value": 1.01,
              "code": "g/mL",
              "system": "http://unitsofmeasure.org"
            }
          },
          {
            "high": {
              "value": 1.03,
              "code": "g/mL",
              "system": "http://unitsofmeasure.org"
            }
          }
        ],
        "interpretation": [
          {
            "coding": [
              {
                "code": "L",
                "system": "http://terminology.hl7.org/CodeSystem/v3-ObservationInterpretation",
                "display": "Low"
              }
            ]
          }
        ],
        "text": {
          "status": "generated",
          "div": "<div xmlns=\"http://www.w3.org/1999/xhtml\"><table class=\"hl7__eu__lab__report\"><tr><th>Test</th><th>28-Feb-2019</th><th>Reference&#xA0;Range</th><th>Unit</th></tr><tr><td>Specific gravity of Urine by Test strip</td><td>1.0</td><td>1.01 - 1.03</td><td>L</td><td>{nominal}</td></tr></table></div>"
        },
        "status": "final",
        "subject": {
          "reference": "urn:uuid:203e15a1-1944-49ad-bfb1-cc1ab1c9442c",
          "display": "Marthe Gallet"
        },
        "effectiveDateTime": "2019-02-28T19:05:43Z",
        "specimen": {
          "reference": "urn:uuid:e7a83964-ded0-420d-bfd7-5729e74afd77"
        }
      }
    },
    {
      "fullUrl": "urn:uuid:c1a3457a-960e-468c-986f-05b1675cf362",
      "resource": {
        "resourceType": "Observation",
        "id": "c1a3457a-960e-468c-986f-05b1675cf362",
        "meta": {
          "profile": [
            "http://hl7.eu/fhir/laboratory/StructureDefinition/Observation-resultslab-eu-lab"
          ]
        },
        "performer": [
          {
            "display": "The Central European Lab"
          }
        ],
        "category": [
          {
            "coding": [
              {
                "system": "http://terminology.hl7.org/CodeSystem/observation-category",
                "code": "laboratory"
              }
            ]
          }
        ],
        "code": {
          "coding": [
            {
              "code": "5803-2",
              "system": "http://loinc.org",
              "display": "pH of Urine by Test strip"
            }
          ],
          "text": "pH of Urine by Test strip"
        },
        "valueQuantity": {
          "system": "http://unitsofmeasure.org",
          "value": 5.6,
          "unit": "pH",
          "code": "pH"
        },
        "referenceRange": [
          {
            "low": {
              "value": 4.6,
              "code": "pH",
              "system": "http://unitsofmeasure.org"
            }
          },
          {
            "high": {
              "value": 7,
              "code": "pH",
              "system": "http://unitsofmeasure.org"
            }
          }
        ],
        "text": {
          "status": "generated",
          "div": "<div xmlns=\"http://www.w3.org/1999/xhtml\"><table class=\"hl7__eu__lab__report\"><tr><th>Test</th><th>28-Feb-2019</th><th>Reference&#xA0;Range</th><th>Unit</th></tr><tr><td>pH of Urine by Test strip</td><td>5.6</td><td>4.6 - 7</td><td></td><td>pH</td></tr></table></div>"
        },
        "status": "final",
        "subject": {
          "reference": "urn:uuid:203e15a1-1944-49ad-bfb1-cc1ab1c9442c",
          "display": "Marthe Gallet"
        },
        "effectiveDateTime": "2019-02-28T19:05:43Z",
        "specimen": {
          "reference": "urn:uuid:e7a83964-ded0-420d-bfd7-5729e74afd77"
        }
      }
    },
    {
      "fullUrl": "urn:uuid:6f5f3b2f-9611-48ea-be45-1eb34c026a22",
      "resource": {
        "resourceType": "Observation",
        "id": "6f5f3b2f-9611-48ea-be45-1eb34c026a22",
        "meta": {
          "profile": [
            "http://hl7.eu/fhir/laboratory/StructureDefinition/Observation-resultslab-eu-lab"
          ]
        },
        "performer": [
          {
            "display": "The Central European Lab"
          }
        ],
        "category": [
          {
            "coding": [
              {
                "system": "http://terminology.hl7.org/CodeSystem/observation-category",
                "code": "laboratory"
              }
            ]
          }
        ],
        "code": {
          "coding": [
            {
              "code": "5804-0",
              "system": "http://loinc.org",
              "display": "Protein [Mass/volume] in Urine by Test strip"
            }
          ],
          "text": "Protein [Mass/volume] in Urine by Test strip"
        },
        "valueQuantity": {
          "system": "http://unitsofmeasure.org",
          "value": 109.2,
          "unit": "mg/dL",
          "code": "mg/dL"
        },
        "referenceRange": [
          {
            "low": {
              "value": 0,
              "code": "mg/dL",
              "system": "http://unitsofmeasure.org"
            }
          },
          {
            "high": {
              "value": 15,
              "code": "mg/dL",
              "system": "http://unitsofmeasure.org"
            }
          }
        ],
        "interpretation": [
          {
            "coding": [
              {
                "code": "H",
                "system": "http://terminology.hl7.org/CodeSystem/v3-ObservationInterpretation",
                "display": "High"
              }
            ]
          }
        ],
        "text": {
          "status": "generated",
          "div": "<div xmlns=\"http://www.w3.org/1999/xhtml\"><table class=\"hl7__eu__lab__report\"><tr><th>Test</th><th>28-Feb-2019</th><th>Reference&#xA0;Range</th><th>Unit</th></tr><tr><td>Protein [Mass/volume] in Urine by Test strip</td><td>109.2</td><td>0 - 15</td><td>H</td><td>mg/dL</td></tr></table></div>"
        },
        "status": "final",
        "subject": {
          "reference": "urn:uuid:203e15a1-1944-49ad-bfb1-cc1ab1c9442c",
          "display": "Marthe Gallet"
        },
        "effectiveDateTime": "2019-02-28T19:05:43Z",
        "specimen": {
          "reference": "urn:uuid:e7a83964-ded0-420d-bfd7-5729e74afd77"
        }
      }
    },
    {
      "fullUrl": "urn:uuid:7b356553-09fc-464c-a5d3-575be6def66e",
      "resource": {
        "resourceType": "Observation",
        "id": "7b356553-09fc-464c-a5d3-575be6def66e",
        "meta": {
          "profile": [
            "http://hl7.eu/fhir/laboratory/StructureDefinition/Observation-resultslab-eu-lab"
          ]
        },
        "performer": [
          {
            "display": "The Central European Lab"
          }
        ],
        "category": [
          {
            "coding": [
              {
                "system": "http://terminology.hl7.org/CodeSystem/observation-category",
                "code": "laboratory"
              }
            ]
          }
        ],
        "code": {
          "coding": [
            {
              "code": "20454-5",
              "system": "http://loinc.org",
              "display": "Protein [Presence] in Urine by Test strip"
            }
          ],
          "text": "Protein [Presence] in Urine by Test strip"
        },
        "text": {
          "status": "generated",
          "div": "<div xmlns=\"http://www.w3.org/1999/xhtml\"><table class=\"hl7__eu__lab__report\"><tr><th>Test</th><th>28-Feb-2019</th><th>Reference&#xA0;Range</th><th>Unit</th></tr><tr><td>Protein [Presence] in Urine by Test strip</td></tr></table></div>"
        },
        "status": "final",
        "subject": {
          "reference": "urn:uuid:203e15a1-1944-49ad-bfb1-cc1ab1c9442c",
          "display": "Marthe Gallet"
        },
        "effectiveDateTime": "2019-02-28T19:05:43Z",
        "specimen": {
          "reference": "urn:uuid:e7a83964-ded0-420d-bfd7-5729e74afd77"
        }
      }
    },
    {
      "fullUrl": "urn:uuid:c1480bfe-c283-492d-975f-8bd6e9f093be",
      "resource": {
        "resourceType": "Observation",
        "id": "c1480bfe-c283-492d-975f-8bd6e9f093be",
        "meta": {
          "profile": [
            "http://hl7.eu/fhir/laboratory/StructureDefinition/Observation-resultslab-eu-lab"
          ]
        },
        "performer": [
          {
            "display": "The Central European Lab"
          }
        ],
        "category": [
          {
            "coding": [
              {
                "system": "http://terminology.hl7.org/CodeSystem/observation-category",
                "code": "laboratory"
              }
            ]
          }
        ],
        "code": {
          "coding": [
            {
              "code": "5802-4",
              "system": "http://loinc.org",
              "display": "Nitrite [Presence] in Urine by Test strip"
            }
          ],
          "text": "Nitrite [Presence] in Urine by Test strip"
        },
        "text": {
          "status": "generated",
          "div": "<div xmlns=\"http://www.w3.org/1999/xhtml\"><table class=\"hl7__eu__lab__report\"><tr><th>Test</th><th>28-Feb-2019</th><th>Reference&#xA0;Range</th><th>Unit</th></tr><tr><td>Nitrite [Presence] in Urine by Test strip</td></tr></table></div>"
        },
        "status": "final",
        "subject": {
          "reference": "urn:uuid:203e15a1-1944-49ad-bfb1-cc1ab1c9442c",
          "display": "Marthe Gallet"
        },
        "effectiveDateTime": "2019-02-28T19:05:43Z",
        "specimen": {
          "reference": "urn:uuid:e7a83964-ded0-420d-bfd7-5729e74afd77"
        }
      }
    },
    {
      "fullUrl": "urn:uuid:2cf088d8-aae4-43c8-b4ca-acecfd9747e1",
      "resource": {
        "resourceType": "Observation",
        "id": "2cf088d8-aae4-43c8-b4ca-acecfd9747e1",
        "meta": {
          "profile": [
            "http://hl7.eu/fhir/laboratory/StructureDefinition/Observation-resultslab-eu-lab"
          ]
        },
        "performer": [
          {
            "display": "The Central European Lab"
          }
        ],
        "category": [
          {
            "coding": [
              {
                "system": "http://terminology.hl7.org/CodeSystem/observation-category",
                "code": "laboratory"
              }
            ]
          }
        ],
        "code": {
          "coding": [
            {
              "code": "5794-3",
              "system": "http://loinc.org",
              "display": "Hemoglobin [Presence] in Urine by Test strip"
            }
          ],
          "text": "Hemoglobin [Presence] in Urine by Test strip"
        },
        "text": {
          "status": "generated",
          "div": "<div xmlns=\"http://www.w3.org/1999/xhtml\"><table class=\"hl7__eu__lab__report\"><tr><th>Test</th><th>28-Feb-2019</th><th>Reference&#xA0;Range</th><th>Unit</th></tr><tr><td>Hemoglobin [Presence] in Urine by Test strip</td></tr></table></div>"
        },
        "status": "final",
        "subject": {
          "reference": "urn:uuid:203e15a1-1944-49ad-bfb1-cc1ab1c9442c",
          "display": "Marthe Gallet"
        },
        "effectiveDateTime": "2019-02-28T19:05:43Z",
        "specimen": {
          "reference": "urn:uuid:e7a83964-ded0-420d-bfd7-5729e74afd77"
        }
      }
    },
    {
      "fullUrl": "urn:uuid:72a98611-e07b-4f2a-8453-87a8b1dcd040",
      "resource": {
        "resourceType": "Observation",
        "id": "72a98611-e07b-4f2a-8453-87a8b1dcd040",
        "meta": {
          "profile": [
            "http://hl7.eu/fhir/laboratory/StructureDefinition/Observation-resultslab-eu-lab"
          ]
        },
        "performer": [
          {
            "display": "The Central European Lab"
          }
        ],
        "category": [
          {
            "coding": [
              {
                "system": "http://terminology.hl7.org/CodeSystem/observation-category",
                "code": "laboratory"
              }
            ]
          }
        ],
        "code": {
          "coding": [
            {
              "code": "5799-2",
              "system": "http://loinc.org",
              "display": "Leukocyte esterase [Presence] in Urine by Test strip"
            }
          ],
          "text": "Leukocyte esterase [Presence] in Urine by Test strip"
        },
        "text": {
          "status": "generated",
          "div": "<div xmlns=\"http://www.w3.org/1999/xhtml\"><table class=\"hl7__eu__lab__report\"><tr><th>Test</th><th>28-Feb-2019</th><th>Reference&#xA0;Range</th><th>Unit</th></tr><tr><td>Leukocyte esterase [Presence] in Urine by Test strip</td></tr></table></div>"
        },
        "status": "final",
        "subject": {
          "reference": "urn:uuid:203e15a1-1944-49ad-bfb1-cc1ab1c9442c",
          "display": "Marthe Gallet"
        },
        "effectiveDateTime": "2019-02-28T19:05:43Z",
        "specimen": {
          "reference": "urn:uuid:e7a83964-ded0-420d-bfd7-5729e74afd77"
        }
      }
    },
    {
      "fullUrl": "urn:uuid:fbc4c166-b765-4205-9d5a-47078dab8173",
      "resource": {
        "resourceType": "Observation",
        "id": "fbc4c166-b765-4205-9d5a-47078dab8173",
        "meta": {
          "profile": [
            "http://hl7.eu/fhir/laboratory/StructureDefinition/Observation-resultslab-eu-lab"
          ]
        },
        "performer": [
          {
            "display": "The Central European Lab"
          }
        ],
        "category": [
          {
            "coding": [
              {
                "system": "http://terminology.hl7.org/CodeSystem/observation-category",
                "code": "laboratory"
              }
            ]
          }
        ],
        "code": {
          "coding": [
            {
              "code": "2093-3",
              "system": "http://loinc.org",
              "display": "Cholesterol [Mass/volume] in Serum or Plasma"
            }
          ],
          "text": "Cholesterol [Mass/volume] in Serum or Plasma"
        },
        "valueQuantity": {
          "system": "http://unitsofmeasure.org",
          "value": 184.5,
          "unit": "mg/dL",
          "code": "mg/dL"
        },
        "referenceRange": [
          {
            "low": {
              "value": 125,
              "code": "mg/dL",
              "system": "http://unitsofmeasure.org"
            }
          },
          {
            "high": {
              "value": 200,
              "code": "mg/dL",
              "system": "http://unitsofmeasure.org"
            }
          }
        ],
        "text": {
          "status": "generated",
          "div": "<div xmlns=\"http://www.w3.org/1999/xhtml\"><table class=\"hl7__eu__lab__report\"><tr><th>Test</th><th>28-Feb-2019</th><th>Reference&#xA0;Range</th><th>Unit</th></tr><tr><td>Cholesterol [Mass/volume] in Serum or Plasma</td><td>184.5</td><td>125 - 200</td><td></td><td>mg/dL</td></tr></table></div>"
        },
        "status": "final",
        "subject": {
          "reference": "urn:uuid:203e15a1-1944-49ad-bfb1-cc1ab1c9442c",
          "display": "Marthe Gallet"
        },
        "effectiveDateTime": "2019-02-28T19:05:43Z",
        "specimen": {
          "reference": "urn:uuid:17c6d42c-aeab-4480-9f3c-06532a9259de"
        }
      }
    },
    {
      "fullUrl": "urn:uuid:9bd57320-d06b-4d03-ab52-f71f36accf23",
      "resource": {
        "resourceType": "Observation",
        "id": "9bd57320-d06b-4d03-ab52-f71f36accf23",
        "meta": {
          "profile": [
            "http://hl7.eu/fhir/laboratory/StructureDefinition/Observation-resultslab-eu-lab"
          ]
        },
        "performer": [
          {
            "display": "The Central European Lab"
          }
        ],
        "category": [
          {
            "coding": [
              {
                "system": "http://terminology.hl7.org/CodeSystem/observation-category",
                "code": "laboratory"
              }
            ]
          }
        ],
        "code": {
          "coding": [
            {
              "code": "2571-8",
              "system": "http://loinc.org",
              "display": "Triglyceride [Mass/volume] in Serum or Plasma"
            }
          ],
          "text": "Triglyceride [Mass/volume] in Serum or Plasma"
        },
        "valueQuantity": {
          "system": "http://unitsofmeasure.org",
          "value": 122.8,
          "unit": "mg/dL",
          "code": "mg/dL"
        },
        "referenceRange": [
          {
            "low": {
              "value": 10,
              "code": "mg/dL",
              "system": "http://unitsofmeasure.org"
            }
          },
          {
            "high": {
              "value": 175,
              "code": "mg/dL",
              "system": "http://unitsofmeasure.org"
            }
          }
        ],
        "text": {
          "status": "generated",
          "div": "<div xmlns=\"http://www.w3.org/1999/xhtml\"><table class=\"hl7__eu__lab__report\"><tr><th>Test</th><th>28-Feb-2019</th><th>Reference&#xA0;Range</th><th>Unit</th></tr><tr><td>Triglyceride [Mass/volume] in Serum or Plasma</td><td>122.8</td><td>10 - 175</td><td></td><td>mg/dL</td></tr></table></div>"
        },
        "status": "final",
        "subject": {
          "reference": "urn:uuid:203e15a1-1944-49ad-bfb1-cc1ab1c9442c",
          "display": "Marthe Gallet"
        },
        "effectiveDateTime": "2019-02-28T19:05:43Z",
        "specimen": {
          "reference": "urn:uuid:17c6d42c-aeab-4480-9f3c-06532a9259de"
        }
      }
    },
    {
      "fullUrl": "urn:uuid:86c159b0-fe91-47ed-8ff0-57b64a6898b2",
      "resource": {
        "resourceType": "Observation",
        "id": "86c159b0-fe91-47ed-8ff0-57b64a6898b2",
        "meta": {
          "profile": [
            "http://hl7.eu/fhir/laboratory/StructureDefinition/Observation-resultslab-eu-lab"
          ]
        },
        "performer": [
          {
            "display": "The Central European Lab"
          }
        ],
        "category": [
          {
            "coding": [
              {
                "system": "http://terminology.hl7.org/CodeSystem/observation-category",
                "code": "laboratory"
              }
            ]
          }
        ],
        "code": {
          "coding": [
            {
              "code": "18262-6",
              "system": "http://loinc.org",
              "display": "Cholesterol in LDL [Mass/volume] in Serum or Plasma by Direct assay"
            }
          ],
          "text": "Cholesterol in LDL [Mass/volume] in Serum or Plasma by Direct assay"
        },
        "valueQuantity": {
          "system": "http://unitsofmeasure.org",
          "value": 97.1,
          "unit": "mg/dL",
          "code": "mg/dL"
        },
        "referenceRange": [
          {
            "low": {
              "value": 0,
              "code": "mg/dL",
              "system": "http://unitsofmeasure.org"
            }
          },
          {
            "high": {
              "value": 130,
              "code": "mg/dL",
              "system": "http://unitsofmeasure.org"
            }
          }
        ],
        "text": {
          "status": "generated",
          "div": "<div xmlns=\"http://www.w3.org/1999/xhtml\"><table class=\"hl7__eu__lab__report\"><tr><th>Test</th><th>28-Feb-2019</th><th>Reference&#xA0;Range</th><th>Unit</th></tr><tr><td>Cholesterol in LDL [Mass/volume] in Serum or Plasma by Direct assay</td><td>97.1</td><td>0 - 130</td><td></td><td>mg/dL</td></tr></table></div>"
        },
        "status": "final",
        "subject": {
          "reference": "urn:uuid:203e15a1-1944-49ad-bfb1-cc1ab1c9442c",
          "display": "Marthe Gallet"
        },
        "effectiveDateTime": "2019-02-28T19:05:43Z",
        "specimen": {
          "reference": "urn:uuid:17c6d42c-aeab-4480-9f3c-06532a9259de"
        }
      }
    },
    {
      "fullUrl": "urn:uuid:275ae5df-5027-409d-978b-c16b4a2714f0",
      "resource": {
        "resourceType": "Observation",
        "id": "275ae5df-5027-409d-978b-c16b4a2714f0",
        "meta": {
          "profile": [
            "http://hl7.eu/fhir/laboratory/StructureDefinition/Observation-resultslab-eu-lab"
          ]
        },
        "performer": [
          {
            "display": "The Central European Lab"
          }
        ],
        "category": [
          {
            "coding": [
              {
                "system": "http://terminology.hl7.org/CodeSystem/observation-category",
                "code": "laboratory"
              }
            ]
          }
        ],
        "code": {
          "coding": [
            {
              "code": "2085-9",
              "system": "http://loinc.org",
              "display": "Cholesterol in HDL [Mass/volume] in Serum or Plasma"
            }
          ],
          "text": "Cholesterol in HDL [Mass/volume] in Serum or Plasma"
        },
        "valueQuantity": {
          "system": "http://unitsofmeasure.org",
          "value": 62.8,
          "unit": "mg/dL",
          "code": "mg/dL"
        },
        "referenceRange": [
          {
            "low": {
              "value": 40,
              "code": "mg/dL",
              "system": "http://unitsofmeasure.org"
            }
          },
          {
            "high": {
              "value": 100,
              "code": "mg/dL",
              "system": "http://unitsofmeasure.org"
            }
          }
        ],
        "text": {
          "status": "generated",
          "div": "<div xmlns=\"http://www.w3.org/1999/xhtml\"><table class=\"hl7__eu__lab__report\"><tr><th>Test</th><th>28-Feb-2019</th><th>Reference&#xA0;Range</th><th>Unit</th></tr><tr><td>Cholesterol in HDL [Mass/volume] in Serum or Plasma</td><td>62.8</td><td>40 - 100</td><td></td><td>mg/dL</td></tr></table></div>"
        },
        "status": "final",
        "subject": {
          "reference": "urn:uuid:203e15a1-1944-49ad-bfb1-cc1ab1c9442c",
          "display": "Marthe Gallet"
        },
        "effectiveDateTime": "2019-02-28T19:05:43Z",
        "specimen": {
          "reference": "urn:uuid:17c6d42c-aeab-4480-9f3c-06532a9259de"
        }
      }
    },
    {
      "fullUrl": "urn:uuid:c3021077-b0b5-4242-a024-f4f31e551c41",
      "resource": {
        "resourceType": "Device",
        "id": "c3021077-b0b5-4242-a024-f4f31e551c41",
        "deviceName": [
          {
            "name": "SYNDERAI Synthetic Generator",
            "type": "manufacturer-name"
          }
        ],
        "version": [
          {
            "value": "5.0"
          }
        ],
        "text": {
          "status": "generated",
          "div": "<div xmlns=\"http://www.w3.org/1999/xhtml\">SYNDERAI Synthetic Generator v5.0</div>"
        },
        "status": "active\"",
        "distinctIdentifier": "synderai-generator-50",
        "manufacturer": "SYNDERAI Project"
      }
    },
    {
      "fullUrl": "urn:uuid:5fa53913-2944-4ac8-a4a4-32de55858492",
      "resource": {
        "resourceType": "Provenance",
        "id": "5fa53913-2944-4ac8-a4a4-32de55858492",
        "target": [
          {
            "reference": "Patient/203e15a1-1944-49ad-bfb1-cc1ab1c9442c"
          },
          {
            "reference": "Bundle/29b25dcf-0fff-4d77-bbcc-fed0d602deb0"
          },
          {
            "reference": "Composition/d5322ca8-c4e7-42fb-9580-a7b1f005894d"
          },
          {
            "reference": "PractitionerRole/690ac6e3-12e9-423b-bb21-2eef01940701"
          },
          {
            "reference": "Practitioner/ce3c8008-adf3-40ef-945e-e90721f126ff"
          },
          {
            "reference": "PractitionerRole/5333c185-bffe-450a-9382-ab4d0d1ffc84"
          },
          {
            "reference": "Organization/eb7abb06-0aea-4d34-9db7-cbdf7d493bc5"
          }
        ],
        "activity": {
          "text": "Synthetic Example Data Generation"
        },
        "policy": [
          "https://synderai.net/synderai-synthetic-data-policy"
        ],
        "agent": [
          {
            "type": {
              "text": "author"
            },
            "who": {
              "reference": "Device/c3021077-b0b5-4242-a024-f4f31e551c41"
            }
          }
        ],
        "reason": [
          {
            "text": "Interoperability Testing and Training (non-clinical use)"
          }
        ],
        "text": {
          "status": "generated",
          "div": "<div xmlns=\"http://www.w3.org/1999/xhtml\">Provenance for SYNDERAI Synthetic Example Data Resource</div>"
        },
        "recorded": "2019-02-28T20:05:43Z"
      }
    },
    {
      "fullUrl": "urn:uuid:690ac6e3-12e9-423b-bb21-2eef01940701",
      "resource": {
        "resourceType": "PractitionerRole",
        "id": "690ac6e3-12e9-423b-bb21-2eef01940701",
        "meta": {
          "profile": [
            "http://hl7.eu/fhir/base/StructureDefinition/practitionerRole-eu"
          ]
        },
        "text": {
          "status": "generated",
          "div": "<div xmlns=\"http://www.w3.org/1999/xhtml\">Laboratory Role Id: 690ac6e3-12e9-423b-bb21-2eef01940701</div>"
        },
        "practitioner": {
          "reference": "urn:uuid:ce3c8008-adf3-40ef-945e-e90721f126ff"
        }
      }
    },
    {
      "fullUrl": "urn:uuid:ce3c8008-adf3-40ef-945e-e90721f126ff",
      "resource": {
        "resourceType": "Practitioner",
        "id": "ce3c8008-adf3-40ef-945e-e90721f126ff",
        "meta": {
          "profile": [
            "http://hl7.eu/fhir/base/StructureDefinition/practitioner-eu"
          ]
        },
        "identifier": [
          {
            "assigner": {
              "display": "HL7 Europe"
            },
            "system": "urn:oid:2.16.840.1.113883.2.51.999",
            "value": "5f686485-05d6-4453-900b-56c1a99e7f16"
          }
        ],
        "name": [
          {
            "prefix": [
              "dr"
            ],
            "given": [
              "Ex"
            ],
            "family": "Ample"
          }
        ],
        "address": [
          {
            "line": [
              "Laboratoire Central Europenne",
              "Boulevard du Jardin Botanique 32"
            ],
            "postalCode": "1000",
            "city": "Brussels",
            "country": "Belgium"
          }
        ],
        "text": {
          "status": "generated",
          "div": "<div xmlns=\"http://www.w3.org/1999/xhtml\">Laboratory: Laboratoire Central Europenne, 1000 Brussels, Belgium</div>"
        }
      }
    }
  ],
  "type": "document",
  "timestamp": "2019-02-28T20:05:43Z"
}
