{
  "resourceType": "Bundle",
  "id": "a5190444-570e-4717-a407-5fd0d51201f4",
  "meta": {
    "profile": [
      "http://hl7.eu/fhir/laboratory/StructureDefinition/Bundle-eu-lab"
    ]
  },
  "identifier": {
    "assigner": {
      "display": "HL7 Europe"
    },
    "system": "urn:oid:2.16.840.1.113883.2.51.999",
    "value": "57a33c8f-57d4-4f1a-9858-3e86ea38ad4b"
  },
  "entry": [
    {
      "fullUrl": "urn:uuid:a5af3f63-6834-4c1f-bcd5-d796727d3dd7",
      "resource": {
        "resourceType": "Composition",
        "id": "a5af3f63-6834-4c1f-bcd5-d796727d3dd7",
        "meta": {
          "profile": [
            "http://hl7.eu/fhir/laboratory/StructureDefinition/Composition-eu-lab"
          ]
        },
        "identifier": {
          "assigner": {
            "display": "HL7 Europe"
          },
          "system": "urn:oid:2.16.840.1.113883.2.51.999",
          "value": "86d295ac-4810-4bcd-8202-a6b1e8937914"
        },
        "author": [
          {
            "reference": "urn:uuid:8d134d26-d5c2-42a8-ae08-3780922a2f58"
          }
        ],
        "category": [
          {
            "coding": [
              {
                "code": "26436-6",
                "system": "http://loinc.org",
                "display": "Laboratory studies (set)"
              }
            ]
          }
        ],
        "type": {
          "coding": [
            {
              "code": "11502-2",
              "system": "http://loinc.org",
              "display": "Laboratory report"
            }
          ],
          "text": "Laboratory Report"
        },
        "section": [
          {
            "code": {
              "coding": [
                {
                  "code": "26436-6",
                  "system": "http://loinc.org",
                  "display": "Laboratory studies (set)"
                }
              ],
              "text": "Laboratory studies"
            },
            "section": [
              {
                "code": {
                  "coding": [
                    {
                      "code": "$18723-7",
                      "system": "http://loinc.org",
                      "display": "Hematology studies (set)"
                    }
                  ],
                  "text": "Hematology"
                },
                "entry": [
                  {
                    "reference": "urn:uuid:1472df66-8dcb-4855-9331-a3b47f289e63"
                  },
                  {
                    "reference": "urn:uuid:51e900fe-70e6-405c-a71c-599a5a4896b6"
                  },
                  {
                    "reference": "urn:uuid:91aedec9-c131-4d15-b818-bdbfe837d87c"
                  },
                  {
                    "reference": "urn:uuid:7f99c048-93a3-4f50-8db2-65cb415e06f0"
                  },
                  {
                    "reference": "urn:uuid:d8d67108-6605-443a-a0d0-af16fe239d47"
                  },
                  {
                    "reference": "urn:uuid:f3ef5631-c746-4b9f-b472-8a30b0a37e3b"
                  },
                  {
                    "reference": "urn:uuid:fc2b6191-236e-4c61-89e7-e7bddede9e8e"
                  },
                  {
                    "reference": "urn:uuid:74aaa7d3-2cb8-4649-a857-4dc992f03b30"
                  },
                  {
                    "reference": "urn:uuid:b13646ce-e931-4eac-90ab-c3af391ec014"
                  }
                ],
                "text": {
                  "status": "generated",
                  "div": "<div xmlns=\"http://www.w3.org/1999/xhtml\"><h3>Hematology</h3><table class=\"hl7__eu__lab__report\"><thead><tr><th>Test</th><th>08-NOV-2016</th><th>Reference&#xA0;Range</th><th>Unit</th></tr></thead><tbody><tr><td>Leukocytes [#/volume] in Blood by Automated count</td><td>5.3</td><td>3.4 - 10.6</td><td>10*3/uL</td></tr><tr><td>Erythrocytes [#/volume] in Blood by Automated count</td><td><strong>4.0 L</strong></td><td>4.7 - 5.2</td><td>10*6/uL</td></tr><tr><td>Hemoglobin [Mass/volume] in Blood</td><td>14.0</td><td>11.5 - 16</td><td>g/dL</td></tr><tr><td>Hematocrit [Volume Fraction] of Blood by Automated count</td><td>48.1</td><td>38 - 56</td><td>%</td></tr><tr><td>MCV [Entitic volume] by Automated count</td><td>79.8</td><td>78 - 98</td><td>fL</td></tr><tr><td>MCH [Entitic mass] by Automated count</td><td>27.7</td><td>27 - 34</td><td>pg</td></tr><tr><td>MCHC [Mass/volume] by Automated count</td><td>32.9</td><td>31 - 36</td><td>g/dL</td></tr><tr><td>Erythrocyte distribution width [Ratio] by Automated count</td><td>14.9</td><td>11.6 - 16.5</td><td>%</td></tr><tr><td>Platelets [#/volume] in Blood by Automated count</td><td>373.9</td><td>150 - 450</td><td>10*3/uL</td></tr></tbody></table></div>"
                },
                "title": "Hematology"
              },
              {
                "code": {
                  "coding": [
                    {
                      "code": "$18719-5",
                      "system": "http://loinc.org",
                      "display": "Chemistry studies (set)"
                    }
                  ],
                  "text": "Chemistry"
                },
                "entry": [
                  {
                    "reference": "urn:uuid:3d01f866-2cb5-4e3e-8173-c3a2e856c5de"
                  },
                  {
                    "reference": "urn:uuid:e0476c84-e5a2-49df-9391-b7e70ef162d7"
                  },
                  {
                    "reference": "urn:uuid:38b9ce71-cdbf-4da3-a79d-ff4d0a0c8163"
                  },
                  {
                    "reference": "urn:uuid:2ea18f80-3ff4-4b59-9ae2-944b7b6fc139"
                  },
                  {
                    "reference": "urn:uuid:7ef7e2f4-e3f8-47d9-8fa3-3d8480be0cb6"
                  },
                  {
                    "reference": "urn:uuid:66c61db1-3dbd-4bf7-8451-edcd719f4670"
                  },
                  {
                    "reference": "urn:uuid:d2cc2a33-b70a-4c3d-9181-4a8208bf2cc8"
                  },
                  {
                    "reference": "urn:uuid:5eb8ccf2-7714-428c-8a4a-b8fdb263023c"
                  },
                  {
                    "reference": "urn:uuid:0cadfd0a-3e56-4ba7-9d3a-ea23ae267716"
                  },
                  {
                    "reference": "urn:uuid:4e5a4921-14b3-44d8-ba90-52bec653b2d1"
                  },
                  {
                    "reference": "urn:uuid:9ad29ab9-e574-4749-ac3d-29fa20df616c"
                  },
                  {
                    "reference": "urn:uuid:3713aaac-4761-4c49-afbc-9c2ed8bbe85a"
                  },
                  {
                    "reference": "urn:uuid:d8724839-0fe2-4dee-b570-e3d9862c806d"
                  },
                  {
                    "reference": "urn:uuid:2ac9fdb2-8f53-41e9-bc3e-cdc3708cd252"
                  },
                  {
                    "reference": "urn:uuid:051ba35e-80b8-4b10-a0e3-f1ad766d7738"
                  },
                  {
                    "reference": "urn:uuid:aba814e9-403c-42b7-a4f3-8404d7b4cc7b"
                  },
                  {
                    "reference": "urn:uuid:99d545eb-5a5b-4c9c-ab9f-7ae41e8c5f56"
                  },
                  {
                    "reference": "urn:uuid:c3290395-6250-437c-800a-c5c9bb4be5a1"
                  },
                  {
                    "reference": "urn:uuid:fe637d7a-dd09-4e80-8675-7c627592d057"
                  },
                  {
                    "reference": "urn:uuid:754cd892-8c3b-473d-bf03-631449e28b89"
                  },
                  {
                    "reference": "urn:uuid:78a20c08-2d67-4f3a-bac5-1a8d789ff6ec"
                  },
                  {
                    "reference": "urn:uuid:c8d16be3-f07d-4f21-b4f0-d1331f9b7a42"
                  },
                  {
                    "reference": "urn:uuid:74bb177c-60d8-4ba8-89af-b3e07bd27030"
                  },
                  {
                    "reference": "urn:uuid:b5a475fb-f2b6-4770-8afd-4f7c11df32da"
                  },
                  {
                    "reference": "urn:uuid:f443e2c4-4a70-416f-8055-d93dbe9728bb"
                  }
                ],
                "text": {
                  "status": "generated",
                  "div": "<div xmlns=\"http://www.w3.org/1999/xhtml\"><h3>Chemistry</h3><table class=\"hl7__eu__lab__report\"><thead><tr><th>Test</th><th>08-NOV-2016</th><th>Reference&#xA0;Range</th><th>Unit</th></tr></thead><tbody><tr><td>Glucose [Mass/volume] in Serum or Plasma</td><td>90.6</td><td>70 - 140</td><td>mg/dL</td></tr><tr><td>Urea nitrogen [Mass/volume] in Serum or Plasma</td><td>14.7</td><td>7 - 25</td><td>mg/dL</td></tr><tr><td>Creatinine [Mass/volume] in Serum or Plasma</td><td><strong>2.6 H</strong></td><td>0.6 - 1.3</td><td>mg/dL</td></tr><tr><td>Calcium [Mass/volume] in Serum or Plasma</td><td>9.6</td><td>8.6 - 10.4</td><td>mg/dL</td></tr><tr><td>Sodium [Moles/volume] in Serum or Plasma</td><td>139.2</td><td>135 - 145</td><td>mmol/L</td></tr><tr><td>Potassium [Moles/volume] in Serum or Plasma</td><td>4.0</td><td>3.5 - 5.1</td><td>mmol/L</td></tr><tr><td>Chloride [Moles/volume] in Serum or Plasma</td><td>101.3</td><td>98 - 108</td><td>mmol/L</td></tr><tr><td>Carbon dioxide, total [Moles/volume] in Serum or Plasma</td><td>26.8</td><td>22 - 29</td><td>mmol/L</td></tr><tr><td>Protein [Mass/volume] in Serum or Plasma</td><td>8.1</td><td>6.6 - 8.3</td><td>g/dL</td></tr><tr><td>Albumin [Mass/volume] in Serum or Plasma</td><td>4.7</td><td>3.5 - 5.5</td><td>g/dL</td></tr><tr><td>Bilirubin.total [Mass/volume] in Serum or Plasma</td><td><strong>12.7 H</strong></td><td>0.3 - 1.2</td><td>mg/dL</td></tr><tr><td>Alkaline phosphatase [Enzymatic activity/volume] in Serum or Plasma</td><td>52.8</td><td>40 - 130</td><td>U/L</td></tr><tr><td>Alanine aminotransferase [Enzymatic activity/volume] in Serum or Plasma</td><td>25.1</td><td>7 - 55</td><td>U/L</td></tr><tr><td>Aspartate aminotransferase [Enzymatic activity/volume] in Serum or Plasma</td><td>22.9</td><td>10 - 40</td><td>U/L</td></tr><tr><td>Magnesium [Mass/volume] in Serum or Plasma</td><td><strong>1.7 L</strong></td><td>1.8 - 2.3</td><td>mg/dL</td></tr><tr><td>Phosphate [Mass/volume] in Serum or Plasma</td><td>3.6</td><td>2.5 - 4.5</td><td>mg/dL</td></tr><tr><td>pH of Arterial blood</td><td><strong>7.2 L</strong></td><td>7.35 - 7.45</td><td>[pH]</td></tr><tr><td>Carbon dioxide [Partial pressure] in Arterial blood</td><td>39.3</td><td>35 - 45</td><td>mm[Hg]</td></tr><tr><td>Oxygen [Partial pressure] in Arterial blood</td><td>83.7</td><td>75 - 100</td><td>mm[Hg]</td></tr><tr><td>Bicarbonate [Moles/volume] in Arterial blood</td><td>26.2</td><td>22 - 32</td><td>mmol/L</td></tr><tr><td>Oxygen saturation in Arterial blood</td><td><strong>91.0 L</strong></td><td>95 - 100</td><td>%</td></tr><tr><td>Cholesterol [Mass/volume] in Serum or Plasma</td><td><strong>260.2 H</strong></td><td>125 - 200</td><td>mg/dL</td></tr><tr><td>Triglyceride [Mass/volume] in Serum or Plasma</td><td>131.1</td><td>10 - 175</td><td>mg/dL</td></tr><tr><td>Cholesterol in LDL [Mass/volume] in Serum or Plasma by Direct assay</td><td><strong>181.2 H</strong></td><td>0 - 130</td><td>mg/dL</td></tr><tr><td>Cholesterol in HDL [Mass/volume] in Serum or Plasma</td><td>52.8</td><td>50 - 100</td><td>mg/dL</td></tr></tbody></table></div>"
                },
                "title": "Chemistry"
              },
              {
                "code": {
                  "coding": [
                    {
                      "code": "$18720-3",
                      "system": "http://loinc.org",
                      "display": "Coagulation studies (set)"
                    }
                  ],
                  "text": "Coagulation"
                },
                "entry": [
                  {
                    "reference": "urn:uuid:a0469bcb-6954-41ab-a5cc-c7ec9b76e67c"
                  },
                  {
                    "reference": "urn:uuid:b3e060ce-dec0-4f38-b4ef-b3b1d53508e9"
                  },
                  {
                    "reference": "urn:uuid:5d2b0b3f-793b-4cae-bcb7-cf4b39071c52"
                  }
                ],
                "text": {
                  "status": "generated",
                  "div": "<div xmlns=\"http://www.w3.org/1999/xhtml\"><h3>Coagulation</h3><table class=\"hl7__eu__lab__report\"><thead><tr><th>Test</th><th>08-NOV-2016</th><th>Reference&#xA0;Range</th><th>Unit</th></tr></thead><tbody><tr><td>Prothrombin time (PT)</td><td>11.6</td><td>11 - 15</td><td>s</td></tr><tr><td>INR in Platelet poor plasma by Coagulation assay</td><td>1.2</td><td>0.9 - 3</td><td>{INR}</td></tr><tr><td>aPTT in Blood by Coagulation assay</td><td>31.2</td><td>25 - 40</td><td>s</td></tr></tbody></table></div>"
                },
                "title": "Coagulation"
              }
            ],
            "title": "Laboratory Report"
          },
          {
            "text": {
              "status": "generated",
              "div": "<div xmlns=\"http://www.w3.org/1999/xhtml\"><h3>Annotation</h3><table class=\"hl7__eu__lab__report\"><tr><th>Conclusion and Recommendations based on this report and previous findings known to us</th></tr><tr><td>The patient shows mild normocytic anemia, elevated creatinine suggesting impaired renal function, markedly increased total bilirubin with normal liver enzymes (possible pre-hepatic or post-hepatic cause), mild hypomagnesemia, metabolic acidosis (low pH, normal pCO₂, normal bicarbonate), and hypoxemia. Lipid profile reveals hypercholesterolemia and high LDL. Other parameters are within normal limits. Recommend further evaluation of renal and hepatobiliary function and assessment of anemia and acid-base status.</td></tr></table></div>"
            },
            "code": {
              "coding": [
                {
                  "system": "http://loinc.org",
                  "code": "48767-8",
                  "display": "Annotation comment"
                }
              ]
            },
            "title": "Annotation comment"
          }
        ],
        "status": "final",
        "subject": {
          "reference": "urn:uuid:0e9e2742-d7ce-4918-acc9-3f7228c7aa1b",
          "display": "Ludmila Vávrová"
        },
        "date": "2016-11-08T15:35:23Z",
        "title": "Laboratory Report",
        "confidentiality": "N"
      }
    },
    {
      "fullUrl": "urn:uuid:06037d78-8c48-4642-95f0-3cd0611bdeda",
      "resource": {
        "resourceType": "DiagnosticReport",
        "id": "06037d78-8c48-4642-95f0-3cd0611bdeda",
        "meta": {
          "profile": [
            "http://hl7.eu/fhir/laboratory/StructureDefinition/DiagnosticReport-eu-lab"
          ]
        },
        "identifier": [
          {
            "assigner": {
              "display": "HL7 Europe"
            },
            "system": "urn:oid:2.16.840.1.113883.2.51.999",
            "value": "f696f755-a222-4d81-893b-7ecaa9259acc"
          }
        ],
        "extension": [
          {
            "url": "http://hl7.org/fhir/5.0/StructureDefinition/extension-DiagnosticReport.composition",
            "valueReference": {
              "reference": "urn:uuid:86d295ac-4810-4bcd-8202-a6b1e8937914"
            }
          }
        ],
        "category": [
          {
            "coding": [
              {
                "code": "26436-6",
                "system": "http://loinc.org",
                "display": "Laboratory studies (set)"
              }
            ]
          }
        ],
        "specimen": [
          {
            "reference": "urn:uuid:0890d392-398c-42e5-9a68-26be53654617"
          },
          {
            "reference": "urn:uuid:0890d392-398c-42e5-9a68-26be53654617"
          },
          {
            "reference": "urn:uuid:2ad1358d-8643-41ba-84e5-ee2f8e548cfe"
          },
          {
            "reference": "urn:uuid:63760ffd-1776-43ce-80e6-317b22b55374"
          },
          {
            "reference": "urn:uuid:6052c630-c837-45df-bf14-f06b732b5237"
          }
        ],
        "result": [
          {
            "reference": "urn:uuid:1472df66-8dcb-4855-9331-a3b47f289e63"
          },
          {
            "reference": "urn:uuid:51e900fe-70e6-405c-a71c-599a5a4896b6"
          },
          {
            "reference": "urn:uuid:91aedec9-c131-4d15-b818-bdbfe837d87c"
          },
          {
            "reference": "urn:uuid:7f99c048-93a3-4f50-8db2-65cb415e06f0"
          },
          {
            "reference": "urn:uuid:d8d67108-6605-443a-a0d0-af16fe239d47"
          },
          {
            "reference": "urn:uuid:f3ef5631-c746-4b9f-b472-8a30b0a37e3b"
          },
          {
            "reference": "urn:uuid:fc2b6191-236e-4c61-89e7-e7bddede9e8e"
          },
          {
            "reference": "urn:uuid:74aaa7d3-2cb8-4649-a857-4dc992f03b30"
          },
          {
            "reference": "urn:uuid:b13646ce-e931-4eac-90ab-c3af391ec014"
          },
          {
            "reference": "urn:uuid:3d01f866-2cb5-4e3e-8173-c3a2e856c5de"
          },
          {
            "reference": "urn:uuid:e0476c84-e5a2-49df-9391-b7e70ef162d7"
          },
          {
            "reference": "urn:uuid:38b9ce71-cdbf-4da3-a79d-ff4d0a0c8163"
          },
          {
            "reference": "urn:uuid:2ea18f80-3ff4-4b59-9ae2-944b7b6fc139"
          },
          {
            "reference": "urn:uuid:7ef7e2f4-e3f8-47d9-8fa3-3d8480be0cb6"
          },
          {
            "reference": "urn:uuid:66c61db1-3dbd-4bf7-8451-edcd719f4670"
          },
          {
            "reference": "urn:uuid:d2cc2a33-b70a-4c3d-9181-4a8208bf2cc8"
          },
          {
            "reference": "urn:uuid:5eb8ccf2-7714-428c-8a4a-b8fdb263023c"
          },
          {
            "reference": "urn:uuid:0cadfd0a-3e56-4ba7-9d3a-ea23ae267716"
          },
          {
            "reference": "urn:uuid:4e5a4921-14b3-44d8-ba90-52bec653b2d1"
          },
          {
            "reference": "urn:uuid:9ad29ab9-e574-4749-ac3d-29fa20df616c"
          },
          {
            "reference": "urn:uuid:3713aaac-4761-4c49-afbc-9c2ed8bbe85a"
          },
          {
            "reference": "urn:uuid:d8724839-0fe2-4dee-b570-e3d9862c806d"
          },
          {
            "reference": "urn:uuid:2ac9fdb2-8f53-41e9-bc3e-cdc3708cd252"
          },
          {
            "reference": "urn:uuid:051ba35e-80b8-4b10-a0e3-f1ad766d7738"
          },
          {
            "reference": "urn:uuid:aba814e9-403c-42b7-a4f3-8404d7b4cc7b"
          },
          {
            "reference": "urn:uuid:a0469bcb-6954-41ab-a5cc-c7ec9b76e67c"
          },
          {
            "reference": "urn:uuid:b3e060ce-dec0-4f38-b4ef-b3b1d53508e9"
          },
          {
            "reference": "urn:uuid:5d2b0b3f-793b-4cae-bcb7-cf4b39071c52"
          },
          {
            "reference": "urn:uuid:99d545eb-5a5b-4c9c-ab9f-7ae41e8c5f56"
          },
          {
            "reference": "urn:uuid:c3290395-6250-437c-800a-c5c9bb4be5a1"
          },
          {
            "reference": "urn:uuid:fe637d7a-dd09-4e80-8675-7c627592d057"
          },
          {
            "reference": "urn:uuid:754cd892-8c3b-473d-bf03-631449e28b89"
          },
          {
            "reference": "urn:uuid:78a20c08-2d67-4f3a-bac5-1a8d789ff6ec"
          },
          {
            "reference": "urn:uuid:c8d16be3-f07d-4f21-b4f0-d1331f9b7a42"
          },
          {
            "reference": "urn:uuid:74bb177c-60d8-4ba8-89af-b3e07bd27030"
          },
          {
            "reference": "urn:uuid:b5a475fb-f2b6-4770-8afd-4f7c11df32da"
          },
          {
            "reference": "urn:uuid:f443e2c4-4a70-416f-8055-d93dbe9728bb"
          }
        ],
        "status": "registered",
        "code": {
          "coding": [
            {
              "code": "11502-2",
              "system": "http://loinc.org",
              "display": "Laboratory report"
            }
          ]
        },
        "subject": {
          "reference": "urn:uuid:0e9e2742-d7ce-4918-acc9-3f7228c7aa1b",
          "display": "Ludmila Vávrová"
        }
      }
    },
    {
      "fullUrl": "urn:uuid:0e9e2742-d7ce-4918-acc9-3f7228c7aa1b",
      "resource": {
        "resourceType": "Patient",
        "id": "0e9e2742-d7ce-4918-acc9-3f7228c7aa1b",
        "meta": {
          "security": [
            {
              "system": "http://terminology.hl7.org/CodeSystem/v3-ActReason",
              "code": "HTEST"
            },
            {
              "system": "http://terminology.hl7.org/CodeSystem/v3-ActReason",
              "code": "TRAIN"
            }
          ],
          "tag": [
            {
              "system": "https://synderai.net/fhir/CodeSystem/tags",
              "code": "synthetic",
              "display": "SYNDERAI Synthetic data"
            }
          ],
          "profile": [
            "http://hl7.eu/fhir/base/StructureDefinition/patient-eu-core"
          ]
        },
        "identifier": [
          {
            "type": {
              "coding": [
                {
                  "code": "PT",
                  "system": "http://terminology.hl7.org/CodeSystem/v2-0203"
                }
              ]
            },
            "system": "http://ec.europa.eu/identifier/eci",
            "value": "1992-540676-1"
          },
          {
            "type": {
              "coding": [
                {
                  "code": "MR",
                  "system": "http://terminology.hl7.org/CodeSystem/v2-0203"
                }
              ]
            },
            "system": "http://local.setting.eu/identifier",
            "value": "7c533aae-6e7f-89aa-dfdc-8ff900a5990b"
          }
        ],
        "name": [
          {
            "family": "Vávrová"
          },
          {
            "given": [
              "Ludmila"
            ]
          },
          {
            "text": "Ludmila Vávrová"
          }
        ],
        "address": [
          {
            "line": [
              "Šárovo Kolo 116"
            ],
            "use": "home",
            "type": "physical",
            "postalCode": "29471",
            "city": "Bakov nad Jizerou",
            "country": "Czechia"
          }
        ],
        "telecom": [
          {
            "system": "phone",
            "value": "00420 607 610 889"
          }
        ],
        "extension": [
          {
            "url": "http://hl7.org/fhir/StructureDefinition/patient-nationality",
            "valueCodeableConcept": {
              "coding": [
                {
                  "code": "CZ",
                  "system": "http://hl7.org/fhir/ValueSet/country"
                }
              ]
            }
          }
        ],
        "text": {
          "status": "generated",
          "div": "<div xmlns=\"http://www.w3.org/1999/xhtml\"><table class=\"hl7__ips\"><tr><td>Ludmila Vávrová</td><td>female</td><td>08-Aug-1940</td></tr></table></div>"
        },
        "gender": "female",
        "birthDate": "1940-08-08"
      }
    },
    {
      "fullUrl": "urn:uuid:ab1e2831-aee0-42f5-9798-d144a8fddd38",
      "resource": {
        "resourceType": "ServiceRequest",
        "id": "ab1e2831-aee0-42f5-9798-d144a8fddd38",
        "meta": {
          "profile": [
            "http://hl7.eu/fhir/laboratory/StructureDefinition/ServiceRequest-eu-lab"
          ]
        },
        "identifier": [
          {
            "system": "http://example.org",
            "value": "1c3cb258-ff2a-431c-966f-cf084f6f324d"
          }
        ],
        "specimen": [
          {
            "reference": "urn:uuid:0890d392-398c-42e5-9a68-26be53654617"
          },
          {
            "reference": "urn:uuid:2ad1358d-8643-41ba-84e5-ee2f8e548cfe"
          },
          {
            "reference": "urn:uuid:63760ffd-1776-43ce-80e6-317b22b55374"
          },
          {
            "reference": "urn:uuid:6052c630-c837-45df-bf14-f06b732b5237"
          }
        ],
        "reasonCode": [
          {
            "coding": [
              {
                "code": "414545008",
                "system": "http://snomed.info/sct",
                "display": "Ischemic heart disease"
              }
            ]
          },
          {
            "coding": [
              {
                "code": "64859006",
                "system": "http://snomed.info/sct",
                "display": "Osteoporosis"
              }
            ]
          },
          {
            "coding": [
              {
                "code": "6525002",
                "system": "http://snomed.info/sct",
                "display": "Dependent drug abuse"
              }
            ]
          },
          {
            "coding": [
              {
                "code": "55822004",
                "system": "http://snomed.info/sct",
                "display": "Hyperlipidemia"
              }
            ]
          },
          {
            "coding": [
              {
                "code": "124171000119105",
                "system": "http://snomed.info/sct",
                "display": "Chronic intractable migraine without aura"
              }
            ]
          },
          {
            "coding": [
              {
                "code": "196416002",
                "system": "http://snomed.info/sct",
                "display": "Impacted molars"
              }
            ]
          },
          {
            "coding": [
              {
                "code": "239872002",
                "system": "http://snomed.info/sct",
                "display": "Osteoarthritis of hip"
              }
            ]
          },
          {
            "coding": [
              {
                "code": "40055000",
                "system": "http://snomed.info/sct",
                "display": "Chronic sinusitis"
              }
            ]
          }
        ],
        "status": "active",
        "intent": "order",
        "code": {
          "coding": [
            {
              "code": "108252007",
              "system": "http://snomed.info/sct",
              "display": "Laboratory procedure"
            }
          ]
        },
        "subject": {
          "reference": "urn:uuid:0e9e2742-d7ce-4918-acc9-3f7228c7aa1b",
          "display": "Ludmila Vávrová"
        },
        "requester": {
          "reference": "urn:uuid:0b0b0333-4e72-4685-8edc-e3064f652256"
        }
      }
    },
    {
      "fullUrl": "urn:uuid:0b0b0333-4e72-4685-8edc-e3064f652256",
      "resource": {
        "resourceType": "PractitionerRole",
        "id": "0b0b0333-4e72-4685-8edc-e3064f652256",
        "meta": {
          "profile": [
            "http://hl7.eu/fhir/base/StructureDefinition/practitionerRole-eu"
          ]
        },
        "text": {
          "status": "generated",
          "div": "<div xmlns=\"http://www.w3.org/1999/xhtml\">Provider Role Id: 0b0b0333-4e72-4685-8edc-e3064f652256</div>"
        },
        "organization": {
          "reference": "urn:uuid:50dbe1e2-63f5-475c-a2c9-dc0d66fecdd2"
        }
      }
    },
    {
      "fullUrl": "urn:uuid:50dbe1e2-63f5-475c-a2c9-dc0d66fecdd2",
      "resource": {
        "resourceType": "Organization",
        "id": "50dbe1e2-63f5-475c-a2c9-dc0d66fecdd2",
        "meta": {
          "profile": [
            "http://hl7.eu/fhir/base/StructureDefinition/organization-eu"
          ]
        },
        "identifier": [
          {
            "assigner": {
              "display": "HL7 Europe"
            },
            "system": "urn:oid:2.16.840.1.113883.2.51.999",
            "value": "96a20b49-cd0a-468d-977a-b6fd4cba65f6"
          }
        ],
        "address": [
          {
            "city": "Kosmonosy",
            "postalCode": "293 06",
            "country": "Czechia"
          }
        ],
        "text": {
          "status": "generated",
          "div": "<div xmlns=\"http://www.w3.org/1999/xhtml\">Provider Organization: Psychiatrická nemocnice Kosmonosy</div>"
        },
        "name": "Psychiatrická nemocnice Kosmonosy"
      }
    },
    {
      "fullUrl": "urn:uuid:0890d392-398c-42e5-9a68-26be53654617",
      "resource": {
        "resourceType": "Specimen",
        "id": "0890d392-398c-42e5-9a68-26be53654617",
        "meta": {
          "profile": [
            "http://hl7.eu/fhir/laboratory/StructureDefinition/Specimen-eu-lab"
          ]
        },
        "collection": {
          "collectedDateTime": "2016-11-08"
        },
        "text": {
          "status": "generated",
          "div": "<div xmlns=\"http://www.w3.org/1999/xhtml\"><table class=\"hl7__eu__lab__report\"><tr><th>Specimen</th><th>Collection Date</th></tr><tr><td>Whole blood specimen (specimen)</td><td><span class=\"nb\">08-Nov-2016</span></td></tr></table></div>"
        },
        "type": {
          "coding": [
            {
              "code": "258580003",
              "system": "http://snomed.info/sct",
              "display": "Whole blood specimen (specimen)"
            }
          ]
        }
      }
    },
    {
      "fullUrl": "urn:uuid:0890d392-398c-42e5-9a68-26be53654617",
      "resource": {
        "resourceType": "Specimen",
        "id": "0890d392-398c-42e5-9a68-26be53654617",
        "meta": {
          "profile": [
            "http://hl7.eu/fhir/laboratory/StructureDefinition/Specimen-eu-lab"
          ]
        },
        "collection": {
          "collectedDateTime": "2016-11-08"
        },
        "text": {
          "status": "generated",
          "div": "<div xmlns=\"http://www.w3.org/1999/xhtml\"><table class=\"hl7__eu__lab__report\"><tr><th>Specimen</th><th>Collection Date</th></tr><tr><td>Whole blood specimen (specimen)</td><td><span class=\"nb\">08-Nov-2016</span></td></tr></table></div>"
        },
        "type": {
          "coding": [
            {
              "code": "258580003",
              "system": "http://snomed.info/sct",
              "display": "Whole blood specimen (specimen)"
            }
          ]
        }
      }
    },
    {
      "fullUrl": "urn:uuid:2ad1358d-8643-41ba-84e5-ee2f8e548cfe",
      "resource": {
        "resourceType": "Specimen",
        "id": "2ad1358d-8643-41ba-84e5-ee2f8e548cfe",
        "meta": {
          "profile": [
            "http://hl7.eu/fhir/laboratory/StructureDefinition/Specimen-eu-lab"
          ]
        },
        "collection": {
          "collectedDateTime": "2016-11-08"
        },
        "text": {
          "status": "generated",
          "div": "<div xmlns=\"http://www.w3.org/1999/xhtml\"><table class=\"hl7__eu__lab__report\"><tr><th>Specimen</th><th>Collection Date</th></tr><tr><td>Acellular blood (serum or plasma) specimen</td><td><span class=\"nb\">08-Nov-2016</span></td></tr></table></div>"
        },
        "type": {
          "coding": [
            {
              "code": "122592007",
              "system": "http://snomed.info/sct",
              "display": "Acellular blood (serum or plasma) specimen"
            }
          ]
        }
      }
    },
    {
      "fullUrl": "urn:uuid:63760ffd-1776-43ce-80e6-317b22b55374",
      "resource": {
        "resourceType": "Specimen",
        "id": "63760ffd-1776-43ce-80e6-317b22b55374",
        "meta": {
          "profile": [
            "http://hl7.eu/fhir/laboratory/StructureDefinition/Specimen-eu-lab"
          ]
        },
        "collection": {
          "collectedDateTime": "2016-11-08"
        },
        "text": {
          "status": "generated",
          "div": "<div xmlns=\"http://www.w3.org/1999/xhtml\"><table class=\"hl7__eu__lab__report\"><tr><th>Specimen</th><th>Collection Date</th></tr><tr><td>Platelet poor plasma specimen</td><td><span class=\"nb\">08-Nov-2016</span></td></tr></table></div>"
        },
        "type": {
          "coding": [
            {
              "code": "119362004",
              "system": "http://snomed.info/sct",
              "display": "Platelet poor plasma specimen"
            }
          ]
        }
      }
    },
    {
      "fullUrl": "urn:uuid:6052c630-c837-45df-bf14-f06b732b5237",
      "resource": {
        "resourceType": "Specimen",
        "id": "6052c630-c837-45df-bf14-f06b732b5237",
        "meta": {
          "profile": [
            "http://hl7.eu/fhir/laboratory/StructureDefinition/Specimen-eu-lab"
          ]
        },
        "collection": {
          "collectedDateTime": "2016-11-08"
        },
        "text": {
          "status": "generated",
          "div": "<div xmlns=\"http://www.w3.org/1999/xhtml\"><table class=\"hl7__eu__lab__report\"><tr><th>Specimen</th><th>Collection Date</th></tr><tr><td>Arterial blood specimen</td><td><span class=\"nb\">08-Nov-2016</span></td></tr></table></div>"
        },
        "type": {
          "coding": [
            {
              "code": "122552005",
              "system": "http://snomed.info/sct",
              "display": "Arterial blood specimen"
            }
          ]
        }
      }
    },
    {
      "fullUrl": "urn:uuid:1472df66-8dcb-4855-9331-a3b47f289e63",
      "resource": {
        "resourceType": "Observation",
        "id": "1472df66-8dcb-4855-9331-a3b47f289e63",
        "meta": {
          "profile": [
            "http://hl7.eu/fhir/laboratory/StructureDefinition/Observation-resultslab-eu-lab"
          ]
        },
        "performer": [
          {
            "display": "The Central European Lab"
          }
        ],
        "category": [
          {
            "coding": [
              {
                "system": "http://terminology.hl7.org/CodeSystem/observation-category",
                "code": "laboratory"
              }
            ]
          }
        ],
        "code": {
          "coding": [
            {
              "code": "6690-2",
              "system": "http://loinc.org",
              "display": "Leukocytes [#/volume] in Blood by Automated count"
            }
          ],
          "text": "Leukocytes [#/volume] in Blood by Automated count"
        },
        "valueQuantity": {
          "system": "http://unitsofmeasure.org",
          "value": 5.3,
          "unit": "10*3/uL",
          "code": "10*3/uL"
        },
        "referenceRange": [
          {
            "low": {
              "value": 3.4,
              "code": "10*3/uL",
              "system": "http://unitsofmeasure.org"
            }
          },
          {
            "high": {
              "value": 10.6,
              "code": "10*3/uL",
              "system": "http://unitsofmeasure.org"
            }
          }
        ],
        "text": {
          "status": "generated",
          "div": "<div xmlns=\"http://www.w3.org/1999/xhtml\"><table class=\"hl7__eu__lab__report\"><tr><th>Test</th><th>08-Nov-2016</th><th>Reference&#xA0;Range</th><th>Unit</th></tr><tr><td>Leukocytes [#/volume] in Blood by Automated count</td><td>5.3</td><td>3.4 - 10.6</td><td></td><td>10*3/uL</td></tr></table></div>"
        },
        "status": "final",
        "subject": {
          "reference": "urn:uuid:0e9e2742-d7ce-4918-acc9-3f7228c7aa1b",
          "display": "Ludmila Vávrová"
        },
        "effectiveDateTime": "2016-11-08T14:35:23Z",
        "specimen": {
          "reference": "urn:uuid:0890d392-398c-42e5-9a68-26be53654617"
        }
      }
    },
    {
      "fullUrl": "urn:uuid:51e900fe-70e6-405c-a71c-599a5a4896b6",
      "resource": {
        "resourceType": "Observation",
        "id": "51e900fe-70e6-405c-a71c-599a5a4896b6",
        "meta": {
          "profile": [
            "http://hl7.eu/fhir/laboratory/StructureDefinition/Observation-resultslab-eu-lab"
          ]
        },
        "performer": [
          {
            "display": "The Central European Lab"
          }
        ],
        "category": [
          {
            "coding": [
              {
                "system": "http://terminology.hl7.org/CodeSystem/observation-category",
                "code": "laboratory"
              }
            ]
          }
        ],
        "code": {
          "coding": [
            {
              "code": "789-8",
              "system": "http://loinc.org",
              "display": "Erythrocytes [#/volume] in Blood by Automated count"
            }
          ],
          "text": "Erythrocytes [#/volume] in Blood by Automated count"
        },
        "valueQuantity": {
          "system": "http://unitsofmeasure.org",
          "value": 4,
          "unit": "10*6/uL",
          "code": "10*6/uL"
        },
        "referenceRange": [
          {
            "low": {
              "value": 4.7,
              "code": "10*6/uL",
              "system": "http://unitsofmeasure.org"
            }
          },
          {
            "high": {
              "value": 5.2,
              "code": "10*6/uL",
              "system": "http://unitsofmeasure.org"
            }
          }
        ],
        "interpretation": [
          {
            "coding": [
              {
                "code": "L",
                "system": "http://terminology.hl7.org/CodeSystem/v3-ObservationInterpretation",
                "display": "Low"
              }
            ]
          }
        ],
        "text": {
          "status": "generated",
          "div": "<div xmlns=\"http://www.w3.org/1999/xhtml\"><table class=\"hl7__eu__lab__report\"><tr><th>Test</th><th>08-Nov-2016</th><th>Reference&#xA0;Range</th><th>Unit</th></tr><tr><td>Erythrocytes [#/volume] in Blood by Automated count</td><td>4.0</td><td>4.7 - 5.2</td><td>L</td><td>10*6/uL</td></tr></table></div>"
        },
        "status": "final",
        "subject": {
          "reference": "urn:uuid:0e9e2742-d7ce-4918-acc9-3f7228c7aa1b",
          "display": "Ludmila Vávrová"
        },
        "effectiveDateTime": "2016-11-08T14:35:23Z",
        "specimen": {
          "reference": "urn:uuid:0890d392-398c-42e5-9a68-26be53654617"
        }
      }
    },
    {
      "fullUrl": "urn:uuid:91aedec9-c131-4d15-b818-bdbfe837d87c",
      "resource": {
        "resourceType": "Observation",
        "id": "91aedec9-c131-4d15-b818-bdbfe837d87c",
        "meta": {
          "profile": [
            "http://hl7.eu/fhir/laboratory/StructureDefinition/Observation-resultslab-eu-lab"
          ]
        },
        "performer": [
          {
            "display": "The Central European Lab"
          }
        ],
        "category": [
          {
            "coding": [
              {
                "system": "http://terminology.hl7.org/CodeSystem/observation-category",
                "code": "laboratory"
              }
            ]
          }
        ],
        "code": {
          "coding": [
            {
              "code": "718-7",
              "system": "http://loinc.org",
              "display": "Hemoglobin [Mass/volume] in Blood"
            }
          ],
          "text": "Hemoglobin [Mass/volume] in Blood"
        },
        "valueQuantity": {
          "system": "http://unitsofmeasure.org",
          "value": 14,
          "unit": "g/dL",
          "code": "g/dL"
        },
        "referenceRange": [
          {
            "low": {
              "value": 11.5,
              "code": "g/dL",
              "system": "http://unitsofmeasure.org"
            }
          },
          {
            "high": {
              "value": 16,
              "code": "g/dL",
              "system": "http://unitsofmeasure.org"
            }
          }
        ],
        "text": {
          "status": "generated",
          "div": "<div xmlns=\"http://www.w3.org/1999/xhtml\"><table class=\"hl7__eu__lab__report\"><tr><th>Test</th><th>08-Nov-2016</th><th>Reference&#xA0;Range</th><th>Unit</th></tr><tr><td>Hemoglobin [Mass/volume] in Blood</td><td>14.0</td><td>11.5 - 16</td><td></td><td>g/dL</td></tr></table></div>"
        },
        "status": "final",
        "subject": {
          "reference": "urn:uuid:0e9e2742-d7ce-4918-acc9-3f7228c7aa1b",
          "display": "Ludmila Vávrová"
        },
        "effectiveDateTime": "2016-11-08T14:35:23Z",
        "specimen": {
          "reference": "urn:uuid:0890d392-398c-42e5-9a68-26be53654617"
        }
      }
    },
    {
      "fullUrl": "urn:uuid:7f99c048-93a3-4f50-8db2-65cb415e06f0",
      "resource": {
        "resourceType": "Observation",
        "id": "7f99c048-93a3-4f50-8db2-65cb415e06f0",
        "meta": {
          "profile": [
            "http://hl7.eu/fhir/laboratory/StructureDefinition/Observation-resultslab-eu-lab"
          ]
        },
        "performer": [
          {
            "display": "The Central European Lab"
          }
        ],
        "category": [
          {
            "coding": [
              {
                "system": "http://terminology.hl7.org/CodeSystem/observation-category",
                "code": "laboratory"
              }
            ]
          }
        ],
        "code": {
          "coding": [
            {
              "code": "4544-3",
              "system": "http://loinc.org",
              "display": "Hematocrit [Volume Fraction] of Blood by Automated count"
            }
          ],
          "text": "Hematocrit [Volume Fraction] of Blood by Automated count"
        },
        "valueQuantity": {
          "system": "http://unitsofmeasure.org",
          "value": 48.1,
          "unit": "%",
          "code": "%"
        },
        "referenceRange": [
          {
            "low": {
              "value": 38,
              "code": "%",
              "system": "http://unitsofmeasure.org"
            }
          },
          {
            "high": {
              "value": 56,
              "code": "%",
              "system": "http://unitsofmeasure.org"
            }
          }
        ],
        "text": {
          "status": "generated",
          "div": "<div xmlns=\"http://www.w3.org/1999/xhtml\"><table class=\"hl7__eu__lab__report\"><tr><th>Test</th><th>08-Nov-2016</th><th>Reference&#xA0;Range</th><th>Unit</th></tr><tr><td>Hematocrit [Volume Fraction] of Blood by Automated count</td><td>48.1</td><td>38 - 56</td><td></td><td>%</td></tr></table></div>"
        },
        "status": "final",
        "subject": {
          "reference": "urn:uuid:0e9e2742-d7ce-4918-acc9-3f7228c7aa1b",
          "display": "Ludmila Vávrová"
        },
        "effectiveDateTime": "2016-11-08T14:35:23Z",
        "specimen": {
          "reference": "urn:uuid:0890d392-398c-42e5-9a68-26be53654617"
        }
      }
    },
    {
      "fullUrl": "urn:uuid:d8d67108-6605-443a-a0d0-af16fe239d47",
      "resource": {
        "resourceType": "Observation",
        "id": "d8d67108-6605-443a-a0d0-af16fe239d47",
        "meta": {
          "profile": [
            "http://hl7.eu/fhir/laboratory/StructureDefinition/Observation-resultslab-eu-lab"
          ]
        },
        "performer": [
          {
            "display": "The Central European Lab"
          }
        ],
        "category": [
          {
            "coding": [
              {
                "system": "http://terminology.hl7.org/CodeSystem/observation-category",
                "code": "laboratory"
              }
            ]
          }
        ],
        "code": {
          "coding": [
            {
              "code": "787-2",
              "system": "http://loinc.org",
              "display": "MCV [Entitic volume] by Automated count"
            }
          ],
          "text": "MCV [Entitic volume] by Automated count"
        },
        "valueQuantity": {
          "system": "http://unitsofmeasure.org",
          "value": 79.8,
          "unit": "fL",
          "code": "fL"
        },
        "referenceRange": [
          {
            "low": {
              "value": 78,
              "code": "fL",
              "system": "http://unitsofmeasure.org"
            }
          },
          {
            "high": {
              "value": 98,
              "code": "fL",
              "system": "http://unitsofmeasure.org"
            }
          }
        ],
        "text": {
          "status": "generated",
          "div": "<div xmlns=\"http://www.w3.org/1999/xhtml\"><table class=\"hl7__eu__lab__report\"><tr><th>Test</th><th>08-Nov-2016</th><th>Reference&#xA0;Range</th><th>Unit</th></tr><tr><td>MCV [Entitic volume] by Automated count</td><td>79.8</td><td>78 - 98</td><td></td><td>fL</td></tr></table></div>"
        },
        "status": "final",
        "subject": {
          "reference": "urn:uuid:0e9e2742-d7ce-4918-acc9-3f7228c7aa1b",
          "display": "Ludmila Vávrová"
        },
        "effectiveDateTime": "2016-11-08T14:35:23Z",
        "specimen": {
          "reference": "urn:uuid:0890d392-398c-42e5-9a68-26be53654617"
        }
      }
    },
    {
      "fullUrl": "urn:uuid:f3ef5631-c746-4b9f-b472-8a30b0a37e3b",
      "resource": {
        "resourceType": "Observation",
        "id": "f3ef5631-c746-4b9f-b472-8a30b0a37e3b",
        "meta": {
          "profile": [
            "http://hl7.eu/fhir/laboratory/StructureDefinition/Observation-resultslab-eu-lab"
          ]
        },
        "performer": [
          {
            "display": "The Central European Lab"
          }
        ],
        "category": [
          {
            "coding": [
              {
                "system": "http://terminology.hl7.org/CodeSystem/observation-category",
                "code": "laboratory"
              }
            ]
          }
        ],
        "code": {
          "coding": [
            {
              "code": "785-6",
              "system": "http://loinc.org",
              "display": "MCH [Entitic mass] by Automated count"
            }
          ],
          "text": "MCH [Entitic mass] by Automated count"
        },
        "valueQuantity": {
          "system": "http://unitsofmeasure.org",
          "value": 27.7,
          "unit": "pg",
          "code": "pg"
        },
        "referenceRange": [
          {
            "low": {
              "value": 27,
              "code": "pg",
              "system": "http://unitsofmeasure.org"
            }
          },
          {
            "high": {
              "value": 34,
              "code": "pg",
              "system": "http://unitsofmeasure.org"
            }
          }
        ],
        "text": {
          "status": "generated",
          "div": "<div xmlns=\"http://www.w3.org/1999/xhtml\"><table class=\"hl7__eu__lab__report\"><tr><th>Test</th><th>08-Nov-2016</th><th>Reference&#xA0;Range</th><th>Unit</th></tr><tr><td>MCH [Entitic mass] by Automated count</td><td>27.7</td><td>27 - 34</td><td></td><td>pg</td></tr></table></div>"
        },
        "status": "final",
        "subject": {
          "reference": "urn:uuid:0e9e2742-d7ce-4918-acc9-3f7228c7aa1b",
          "display": "Ludmila Vávrová"
        },
        "effectiveDateTime": "2016-11-08T14:35:23Z",
        "specimen": {
          "reference": "urn:uuid:0890d392-398c-42e5-9a68-26be53654617"
        }
      }
    },
    {
      "fullUrl": "urn:uuid:fc2b6191-236e-4c61-89e7-e7bddede9e8e",
      "resource": {
        "resourceType": "Observation",
        "id": "fc2b6191-236e-4c61-89e7-e7bddede9e8e",
        "meta": {
          "profile": [
            "http://hl7.eu/fhir/laboratory/StructureDefinition/Observation-resultslab-eu-lab"
          ]
        },
        "performer": [
          {
            "display": "The Central European Lab"
          }
        ],
        "category": [
          {
            "coding": [
              {
                "system": "http://terminology.hl7.org/CodeSystem/observation-category",
                "code": "laboratory"
              }
            ]
          }
        ],
        "code": {
          "coding": [
            {
              "code": "786-4",
              "system": "http://loinc.org",
              "display": "MCHC [Mass/volume] by Automated count"
            }
          ],
          "text": "MCHC [Mass/volume] by Automated count"
        },
        "valueQuantity": {
          "system": "http://unitsofmeasure.org",
          "value": 32.9,
          "unit": "g/dL",
          "code": "g/dL"
        },
        "referenceRange": [
          {
            "low": {
              "value": 31,
              "code": "g/dL",
              "system": "http://unitsofmeasure.org"
            }
          },
          {
            "high": {
              "value": 36,
              "code": "g/dL",
              "system": "http://unitsofmeasure.org"
            }
          }
        ],
        "text": {
          "status": "generated",
          "div": "<div xmlns=\"http://www.w3.org/1999/xhtml\"><table class=\"hl7__eu__lab__report\"><tr><th>Test</th><th>08-Nov-2016</th><th>Reference&#xA0;Range</th><th>Unit</th></tr><tr><td>MCHC [Mass/volume] by Automated count</td><td>32.9</td><td>31 - 36</td><td></td><td>g/dL</td></tr></table></div>"
        },
        "status": "final",
        "subject": {
          "reference": "urn:uuid:0e9e2742-d7ce-4918-acc9-3f7228c7aa1b",
          "display": "Ludmila Vávrová"
        },
        "effectiveDateTime": "2016-11-08T14:35:23Z",
        "specimen": {
          "reference": "urn:uuid:0890d392-398c-42e5-9a68-26be53654617"
        }
      }
    },
    {
      "fullUrl": "urn:uuid:74aaa7d3-2cb8-4649-a857-4dc992f03b30",
      "resource": {
        "resourceType": "Observation",
        "id": "74aaa7d3-2cb8-4649-a857-4dc992f03b30",
        "meta": {
          "profile": [
            "http://hl7.eu/fhir/laboratory/StructureDefinition/Observation-resultslab-eu-lab"
          ]
        },
        "performer": [
          {
            "display": "The Central European Lab"
          }
        ],
        "category": [
          {
            "coding": [
              {
                "system": "http://terminology.hl7.org/CodeSystem/observation-category",
                "code": "laboratory"
              }
            ]
          }
        ],
        "code": {
          "coding": [
            {
              "code": "788-0",
              "system": "http://loinc.org",
              "display": "Erythrocyte distribution width [Ratio] by Automated count"
            }
          ],
          "text": "Erythrocyte distribution width [Ratio] by Automated count"
        },
        "valueQuantity": {
          "system": "http://unitsofmeasure.org",
          "value": 14.9,
          "unit": "%",
          "code": "%"
        },
        "referenceRange": [
          {
            "low": {
              "value": 11.6,
              "code": "%",
              "system": "http://unitsofmeasure.org"
            }
          },
          {
            "high": {
              "value": 16.5,
              "code": "%",
              "system": "http://unitsofmeasure.org"
            }
          }
        ],
        "text": {
          "status": "generated",
          "div": "<div xmlns=\"http://www.w3.org/1999/xhtml\"><table class=\"hl7__eu__lab__report\"><tr><th>Test</th><th>08-Nov-2016</th><th>Reference&#xA0;Range</th><th>Unit</th></tr><tr><td>Erythrocyte distribution width [Ratio] by Automated count</td><td>14.9</td><td>11.6 - 16.5</td><td></td><td>%</td></tr></table></div>"
        },
        "status": "final",
        "subject": {
          "reference": "urn:uuid:0e9e2742-d7ce-4918-acc9-3f7228c7aa1b",
          "display": "Ludmila Vávrová"
        },
        "effectiveDateTime": "2016-11-08T14:35:23Z",
        "specimen": {
          "reference": "urn:uuid:0890d392-398c-42e5-9a68-26be53654617"
        }
      }
    },
    {
      "fullUrl": "urn:uuid:b13646ce-e931-4eac-90ab-c3af391ec014",
      "resource": {
        "resourceType": "Observation",
        "id": "b13646ce-e931-4eac-90ab-c3af391ec014",
        "meta": {
          "profile": [
            "http://hl7.eu/fhir/laboratory/StructureDefinition/Observation-resultslab-eu-lab"
          ]
        },
        "performer": [
          {
            "display": "The Central European Lab"
          }
        ],
        "category": [
          {
            "coding": [
              {
                "system": "http://terminology.hl7.org/CodeSystem/observation-category",
                "code": "laboratory"
              }
            ]
          }
        ],
        "code": {
          "coding": [
            {
              "code": "777-3",
              "system": "http://loinc.org",
              "display": "Platelets [#/volume] in Blood by Automated count"
            }
          ],
          "text": "Platelets [#/volume] in Blood by Automated count"
        },
        "valueQuantity": {
          "system": "http://unitsofmeasure.org",
          "value": 373.9,
          "unit": "10*3/uL",
          "code": "10*3/uL"
        },
        "referenceRange": [
          {
            "low": {
              "value": 150,
              "code": "10*3/uL",
              "system": "http://unitsofmeasure.org"
            }
          },
          {
            "high": {
              "value": 450,
              "code": "10*3/uL",
              "system": "http://unitsofmeasure.org"
            }
          }
        ],
        "text": {
          "status": "generated",
          "div": "<div xmlns=\"http://www.w3.org/1999/xhtml\"><table class=\"hl7__eu__lab__report\"><tr><th>Test</th><th>08-Nov-2016</th><th>Reference&#xA0;Range</th><th>Unit</th></tr><tr><td>Platelets [#/volume] in Blood by Automated count</td><td>373.9</td><td>150 - 450</td><td></td><td>10*3/uL</td></tr></table></div>"
        },
        "status": "final",
        "subject": {
          "reference": "urn:uuid:0e9e2742-d7ce-4918-acc9-3f7228c7aa1b",
          "display": "Ludmila Vávrová"
        },
        "effectiveDateTime": "2016-11-08T14:35:23Z",
        "specimen": {
          "reference": "urn:uuid:0890d392-398c-42e5-9a68-26be53654617"
        }
      }
    },
    {
      "fullUrl": "urn:uuid:3d01f866-2cb5-4e3e-8173-c3a2e856c5de",
      "resource": {
        "resourceType": "Observation",
        "id": "3d01f866-2cb5-4e3e-8173-c3a2e856c5de",
        "meta": {
          "profile": [
            "http://hl7.eu/fhir/laboratory/StructureDefinition/Observation-resultslab-eu-lab"
          ]
        },
        "performer": [
          {
            "display": "The Central European Lab"
          }
        ],
        "category": [
          {
            "coding": [
              {
                "system": "http://terminology.hl7.org/CodeSystem/observation-category",
                "code": "laboratory"
              }
            ]
          }
        ],
        "code": {
          "coding": [
            {
              "code": "2345-7",
              "system": "http://loinc.org",
              "display": "Glucose [Mass/volume] in Serum or Plasma"
            }
          ],
          "text": "Glucose [Mass/volume] in Serum or Plasma"
        },
        "valueQuantity": {
          "system": "http://unitsofmeasure.org",
          "value": 90.6,
          "unit": "mg/dL",
          "code": "mg/dL"
        },
        "referenceRange": [
          {
            "low": {
              "value": 70,
              "code": "mg/dL",
              "system": "http://unitsofmeasure.org"
            }
          },
          {
            "high": {
              "value": 140,
              "code": "mg/dL",
              "system": "http://unitsofmeasure.org"
            }
          }
        ],
        "text": {
          "status": "generated",
          "div": "<div xmlns=\"http://www.w3.org/1999/xhtml\"><table class=\"hl7__eu__lab__report\"><tr><th>Test</th><th>08-Nov-2016</th><th>Reference&#xA0;Range</th><th>Unit</th></tr><tr><td>Glucose [Mass/volume] in Serum or Plasma</td><td>90.6</td><td>70 - 140</td><td></td><td>mg/dL</td></tr></table></div>"
        },
        "status": "final",
        "subject": {
          "reference": "urn:uuid:0e9e2742-d7ce-4918-acc9-3f7228c7aa1b",
          "display": "Ludmila Vávrová"
        },
        "effectiveDateTime": "2016-11-08T14:35:23Z",
        "specimen": {
          "reference": "urn:uuid:2ad1358d-8643-41ba-84e5-ee2f8e548cfe"
        }
      }
    },
    {
      "fullUrl": "urn:uuid:e0476c84-e5a2-49df-9391-b7e70ef162d7",
      "resource": {
        "resourceType": "Observation",
        "id": "e0476c84-e5a2-49df-9391-b7e70ef162d7",
        "meta": {
          "profile": [
            "http://hl7.eu/fhir/laboratory/StructureDefinition/Observation-resultslab-eu-lab"
          ]
        },
        "performer": [
          {
            "display": "The Central European Lab"
          }
        ],
        "category": [
          {
            "coding": [
              {
                "system": "http://terminology.hl7.org/CodeSystem/observation-category",
                "code": "laboratory"
              }
            ]
          }
        ],
        "code": {
          "coding": [
            {
              "code": "3094-0",
              "system": "http://loinc.org",
              "display": "Urea nitrogen [Mass/volume] in Serum or Plasma"
            }
          ],
          "text": "Urea nitrogen [Mass/volume] in Serum or Plasma"
        },
        "valueQuantity": {
          "system": "http://unitsofmeasure.org",
          "value": 14.7,
          "unit": "mg/dL",
          "code": "mg/dL"
        },
        "referenceRange": [
          {
            "low": {
              "value": 7,
              "code": "mg/dL",
              "system": "http://unitsofmeasure.org"
            }
          },
          {
            "high": {
              "value": 25,
              "code": "mg/dL",
              "system": "http://unitsofmeasure.org"
            }
          }
        ],
        "text": {
          "status": "generated",
          "div": "<div xmlns=\"http://www.w3.org/1999/xhtml\"><table class=\"hl7__eu__lab__report\"><tr><th>Test</th><th>08-Nov-2016</th><th>Reference&#xA0;Range</th><th>Unit</th></tr><tr><td>Urea nitrogen [Mass/volume] in Serum or Plasma</td><td>14.7</td><td>7 - 25</td><td></td><td>mg/dL</td></tr></table></div>"
        },
        "status": "final",
        "subject": {
          "reference": "urn:uuid:0e9e2742-d7ce-4918-acc9-3f7228c7aa1b",
          "display": "Ludmila Vávrová"
        },
        "effectiveDateTime": "2016-11-08T14:35:23Z",
        "specimen": {
          "reference": "urn:uuid:2ad1358d-8643-41ba-84e5-ee2f8e548cfe"
        }
      }
    },
    {
      "fullUrl": "urn:uuid:38b9ce71-cdbf-4da3-a79d-ff4d0a0c8163",
      "resource": {
        "resourceType": "Observation",
        "id": "38b9ce71-cdbf-4da3-a79d-ff4d0a0c8163",
        "meta": {
          "profile": [
            "http://hl7.eu/fhir/laboratory/StructureDefinition/Observation-resultslab-eu-lab"
          ]
        },
        "performer": [
          {
            "display": "The Central European Lab"
          }
        ],
        "category": [
          {
            "coding": [
              {
                "system": "http://terminology.hl7.org/CodeSystem/observation-category",
                "code": "laboratory"
              }
            ]
          }
        ],
        "code": {
          "coding": [
            {
              "code": "2160-0",
              "system": "http://loinc.org",
              "display": "Creatinine [Mass/volume] in Serum or Plasma"
            }
          ],
          "text": "Creatinine [Mass/volume] in Serum or Plasma"
        },
        "valueQuantity": {
          "system": "http://unitsofmeasure.org",
          "value": 2.6,
          "unit": "mg/dL",
          "code": "mg/dL"
        },
        "referenceRange": [
          {
            "low": {
              "value": 0.6,
              "code": "mg/dL",
              "system": "http://unitsofmeasure.org"
            }
          },
          {
            "high": {
              "value": 1.3,
              "code": "mg/dL",
              "system": "http://unitsofmeasure.org"
            }
          }
        ],
        "interpretation": [
          {
            "coding": [
              {
                "code": "H",
                "system": "http://terminology.hl7.org/CodeSystem/v3-ObservationInterpretation",
                "display": "High"
              }
            ]
          }
        ],
        "text": {
          "status": "generated",
          "div": "<div xmlns=\"http://www.w3.org/1999/xhtml\"><table class=\"hl7__eu__lab__report\"><tr><th>Test</th><th>08-Nov-2016</th><th>Reference&#xA0;Range</th><th>Unit</th></tr><tr><td>Creatinine [Mass/volume] in Serum or Plasma</td><td>2.6</td><td>0.6 - 1.3</td><td>H</td><td>mg/dL</td></tr></table></div>"
        },
        "status": "final",
        "subject": {
          "reference": "urn:uuid:0e9e2742-d7ce-4918-acc9-3f7228c7aa1b",
          "display": "Ludmila Vávrová"
        },
        "effectiveDateTime": "2016-11-08T14:35:23Z",
        "specimen": {
          "reference": "urn:uuid:2ad1358d-8643-41ba-84e5-ee2f8e548cfe"
        }
      }
    },
    {
      "fullUrl": "urn:uuid:2ea18f80-3ff4-4b59-9ae2-944b7b6fc139",
      "resource": {
        "resourceType": "Observation",
        "id": "2ea18f80-3ff4-4b59-9ae2-944b7b6fc139",
        "meta": {
          "profile": [
            "http://hl7.eu/fhir/laboratory/StructureDefinition/Observation-resultslab-eu-lab"
          ]
        },
        "performer": [
          {
            "display": "The Central European Lab"
          }
        ],
        "category": [
          {
            "coding": [
              {
                "system": "http://terminology.hl7.org/CodeSystem/observation-category",
                "code": "laboratory"
              }
            ]
          }
        ],
        "code": {
          "coding": [
            {
              "code": "17861-6",
              "system": "http://loinc.org",
              "display": "Calcium [Mass/volume] in Serum or Plasma"
            }
          ],
          "text": "Calcium [Mass/volume] in Serum or Plasma"
        },
        "valueQuantity": {
          "system": "http://unitsofmeasure.org",
          "value": 9.6,
          "unit": "mg/dL",
          "code": "mg/dL"
        },
        "referenceRange": [
          {
            "low": {
              "value": 8.6,
              "code": "mg/dL",
              "system": "http://unitsofmeasure.org"
            }
          },
          {
            "high": {
              "value": 10.4,
              "code": "mg/dL",
              "system": "http://unitsofmeasure.org"
            }
          }
        ],
        "text": {
          "status": "generated",
          "div": "<div xmlns=\"http://www.w3.org/1999/xhtml\"><table class=\"hl7__eu__lab__report\"><tr><th>Test</th><th>08-Nov-2016</th><th>Reference&#xA0;Range</th><th>Unit</th></tr><tr><td>Calcium [Mass/volume] in Serum or Plasma</td><td>9.6</td><td>8.6 - 10.4</td><td></td><td>mg/dL</td></tr></table></div>"
        },
        "status": "final",
        "subject": {
          "reference": "urn:uuid:0e9e2742-d7ce-4918-acc9-3f7228c7aa1b",
          "display": "Ludmila Vávrová"
        },
        "effectiveDateTime": "2016-11-08T14:35:23Z",
        "specimen": {
          "reference": "urn:uuid:2ad1358d-8643-41ba-84e5-ee2f8e548cfe"
        }
      }
    },
    {
      "fullUrl": "urn:uuid:7ef7e2f4-e3f8-47d9-8fa3-3d8480be0cb6",
      "resource": {
        "resourceType": "Observation",
        "id": "7ef7e2f4-e3f8-47d9-8fa3-3d8480be0cb6",
        "meta": {
          "profile": [
            "http://hl7.eu/fhir/laboratory/StructureDefinition/Observation-resultslab-eu-lab"
          ]
        },
        "performer": [
          {
            "display": "The Central European Lab"
          }
        ],
        "category": [
          {
            "coding": [
              {
                "system": "http://terminology.hl7.org/CodeSystem/observation-category",
                "code": "laboratory"
              }
            ]
          }
        ],
        "code": {
          "coding": [
            {
              "code": "2951-2",
              "system": "http://loinc.org",
              "display": "Sodium [Moles/volume] in Serum or Plasma"
            }
          ],
          "text": "Sodium [Moles/volume] in Serum or Plasma"
        },
        "valueQuantity": {
          "system": "http://unitsofmeasure.org",
          "value": 139.2,
          "unit": "mmol/L",
          "code": "mmol/L"
        },
        "referenceRange": [
          {
            "low": {
              "value": 135,
              "code": "mmol/L",
              "system": "http://unitsofmeasure.org"
            }
          },
          {
            "high": {
              "value": 145,
              "code": "mmol/L",
              "system": "http://unitsofmeasure.org"
            }
          }
        ],
        "text": {
          "status": "generated",
          "div": "<div xmlns=\"http://www.w3.org/1999/xhtml\"><table class=\"hl7__eu__lab__report\"><tr><th>Test</th><th>08-Nov-2016</th><th>Reference&#xA0;Range</th><th>Unit</th></tr><tr><td>Sodium [Moles/volume] in Serum or Plasma</td><td>139.2</td><td>135 - 145</td><td></td><td>mmol/L</td></tr></table></div>"
        },
        "status": "final",
        "subject": {
          "reference": "urn:uuid:0e9e2742-d7ce-4918-acc9-3f7228c7aa1b",
          "display": "Ludmila Vávrová"
        },
        "effectiveDateTime": "2016-11-08T14:35:23Z",
        "specimen": {
          "reference": "urn:uuid:2ad1358d-8643-41ba-84e5-ee2f8e548cfe"
        }
      }
    },
    {
      "fullUrl": "urn:uuid:66c61db1-3dbd-4bf7-8451-edcd719f4670",
      "resource": {
        "resourceType": "Observation",
        "id": "66c61db1-3dbd-4bf7-8451-edcd719f4670",
        "meta": {
          "profile": [
            "http://hl7.eu/fhir/laboratory/StructureDefinition/Observation-resultslab-eu-lab"
          ]
        },
        "performer": [
          {
            "display": "The Central European Lab"
          }
        ],
        "category": [
          {
            "coding": [
              {
                "system": "http://terminology.hl7.org/CodeSystem/observation-category",
                "code": "laboratory"
              }
            ]
          }
        ],
        "code": {
          "coding": [
            {
              "code": "2823-3",
              "system": "http://loinc.org",
              "display": "Potassium [Moles/volume] in Serum or Plasma"
            }
          ],
          "text": "Potassium [Moles/volume] in Serum or Plasma"
        },
        "valueQuantity": {
          "system": "http://unitsofmeasure.org",
          "value": 4,
          "unit": "mmol/L",
          "code": "mmol/L"
        },
        "referenceRange": [
          {
            "low": {
              "value": 3.5,
              "code": "mmol/L",
              "system": "http://unitsofmeasure.org"
            }
          },
          {
            "high": {
              "value": 5.1,
              "code": "mmol/L",
              "system": "http://unitsofmeasure.org"
            }
          }
        ],
        "text": {
          "status": "generated",
          "div": "<div xmlns=\"http://www.w3.org/1999/xhtml\"><table class=\"hl7__eu__lab__report\"><tr><th>Test</th><th>08-Nov-2016</th><th>Reference&#xA0;Range</th><th>Unit</th></tr><tr><td>Potassium [Moles/volume] in Serum or Plasma</td><td>4.0</td><td>3.5 - 5.1</td><td></td><td>mmol/L</td></tr></table></div>"
        },
        "status": "final",
        "subject": {
          "reference": "urn:uuid:0e9e2742-d7ce-4918-acc9-3f7228c7aa1b",
          "display": "Ludmila Vávrová"
        },
        "effectiveDateTime": "2016-11-08T14:35:23Z",
        "specimen": {
          "reference": "urn:uuid:2ad1358d-8643-41ba-84e5-ee2f8e548cfe"
        }
      }
    },
    {
      "fullUrl": "urn:uuid:d2cc2a33-b70a-4c3d-9181-4a8208bf2cc8",
      "resource": {
        "resourceType": "Observation",
        "id": "d2cc2a33-b70a-4c3d-9181-4a8208bf2cc8",
        "meta": {
          "profile": [
            "http://hl7.eu/fhir/laboratory/StructureDefinition/Observation-resultslab-eu-lab"
          ]
        },
        "performer": [
          {
            "display": "The Central European Lab"
          }
        ],
        "category": [
          {
            "coding": [
              {
                "system": "http://terminology.hl7.org/CodeSystem/observation-category",
                "code": "laboratory"
              }
            ]
          }
        ],
        "code": {
          "coding": [
            {
              "code": "2075-0",
              "system": "http://loinc.org",
              "display": "Chloride [Moles/volume] in Serum or Plasma"
            }
          ],
          "text": "Chloride [Moles/volume] in Serum or Plasma"
        },
        "valueQuantity": {
          "system": "http://unitsofmeasure.org",
          "value": 101.3,
          "unit": "mmol/L",
          "code": "mmol/L"
        },
        "referenceRange": [
          {
            "low": {
              "value": 98,
              "code": "mmol/L",
              "system": "http://unitsofmeasure.org"
            }
          },
          {
            "high": {
              "value": 108,
              "code": "mmol/L",
              "system": "http://unitsofmeasure.org"
            }
          }
        ],
        "text": {
          "status": "generated",
          "div": "<div xmlns=\"http://www.w3.org/1999/xhtml\"><table class=\"hl7__eu__lab__report\"><tr><th>Test</th><th>08-Nov-2016</th><th>Reference&#xA0;Range</th><th>Unit</th></tr><tr><td>Chloride [Moles/volume] in Serum or Plasma</td><td>101.3</td><td>98 - 108</td><td></td><td>mmol/L</td></tr></table></div>"
        },
        "status": "final",
        "subject": {
          "reference": "urn:uuid:0e9e2742-d7ce-4918-acc9-3f7228c7aa1b",
          "display": "Ludmila Vávrová"
        },
        "effectiveDateTime": "2016-11-08T14:35:23Z",
        "specimen": {
          "reference": "urn:uuid:2ad1358d-8643-41ba-84e5-ee2f8e548cfe"
        }
      }
    },
    {
      "fullUrl": "urn:uuid:5eb8ccf2-7714-428c-8a4a-b8fdb263023c",
      "resource": {
        "resourceType": "Observation",
        "id": "5eb8ccf2-7714-428c-8a4a-b8fdb263023c",
        "meta": {
          "profile": [
            "http://hl7.eu/fhir/laboratory/StructureDefinition/Observation-resultslab-eu-lab"
          ]
        },
        "performer": [
          {
            "display": "The Central European Lab"
          }
        ],
        "category": [
          {
            "coding": [
              {
                "system": "http://terminology.hl7.org/CodeSystem/observation-category",
                "code": "laboratory"
              }
            ]
          }
        ],
        "code": {
          "coding": [
            {
              "code": "2028-9",
              "system": "http://loinc.org",
              "display": "Carbon dioxide, total [Moles/volume] in Serum or Plasma"
            }
          ],
          "text": "Carbon dioxide, total [Moles/volume] in Serum or Plasma"
        },
        "valueQuantity": {
          "system": "http://unitsofmeasure.org",
          "value": 26.8,
          "unit": "mmol/L",
          "code": "mmol/L"
        },
        "referenceRange": [
          {
            "low": {
              "value": 22,
              "code": "mmol/L",
              "system": "http://unitsofmeasure.org"
            }
          },
          {
            "high": {
              "value": 29,
              "code": "mmol/L",
              "system": "http://unitsofmeasure.org"
            }
          }
        ],
        "text": {
          "status": "generated",
          "div": "<div xmlns=\"http://www.w3.org/1999/xhtml\"><table class=\"hl7__eu__lab__report\"><tr><th>Test</th><th>08-Nov-2016</th><th>Reference&#xA0;Range</th><th>Unit</th></tr><tr><td>Carbon dioxide, total [Moles/volume] in Serum or Plasma</td><td>26.8</td><td>22 - 29</td><td></td><td>mmol/L</td></tr></table></div>"
        },
        "status": "final",
        "subject": {
          "reference": "urn:uuid:0e9e2742-d7ce-4918-acc9-3f7228c7aa1b",
          "display": "Ludmila Vávrová"
        },
        "effectiveDateTime": "2016-11-08T14:35:23Z",
        "specimen": {
          "reference": "urn:uuid:2ad1358d-8643-41ba-84e5-ee2f8e548cfe"
        }
      }
    },
    {
      "fullUrl": "urn:uuid:0cadfd0a-3e56-4ba7-9d3a-ea23ae267716",
      "resource": {
        "resourceType": "Observation",
        "id": "0cadfd0a-3e56-4ba7-9d3a-ea23ae267716",
        "meta": {
          "profile": [
            "http://hl7.eu/fhir/laboratory/StructureDefinition/Observation-resultslab-eu-lab"
          ]
        },
        "performer": [
          {
            "display": "The Central European Lab"
          }
        ],
        "category": [
          {
            "coding": [
              {
                "system": "http://terminology.hl7.org/CodeSystem/observation-category",
                "code": "laboratory"
              }
            ]
          }
        ],
        "code": {
          "coding": [
            {
              "code": "2885-2",
              "system": "http://loinc.org",
              "display": "Protein [Mass/volume] in Serum or Plasma"
            }
          ],
          "text": "Protein [Mass/volume] in Serum or Plasma"
        },
        "valueQuantity": {
          "system": "http://unitsofmeasure.org",
          "value": 8.1,
          "unit": "g/dL",
          "code": "g/dL"
        },
        "referenceRange": [
          {
            "low": {
              "value": 6.6,
              "code": "g/dL",
              "system": "http://unitsofmeasure.org"
            }
          },
          {
            "high": {
              "value": 8.3,
              "code": "g/dL",
              "system": "http://unitsofmeasure.org"
            }
          }
        ],
        "text": {
          "status": "generated",
          "div": "<div xmlns=\"http://www.w3.org/1999/xhtml\"><table class=\"hl7__eu__lab__report\"><tr><th>Test</th><th>08-Nov-2016</th><th>Reference&#xA0;Range</th><th>Unit</th></tr><tr><td>Protein [Mass/volume] in Serum or Plasma</td><td>8.1</td><td>6.6 - 8.3</td><td></td><td>g/dL</td></tr></table></div>"
        },
        "status": "final",
        "subject": {
          "reference": "urn:uuid:0e9e2742-d7ce-4918-acc9-3f7228c7aa1b",
          "display": "Ludmila Vávrová"
        },
        "effectiveDateTime": "2016-11-08T14:35:23Z",
        "specimen": {
          "reference": "urn:uuid:2ad1358d-8643-41ba-84e5-ee2f8e548cfe"
        }
      }
    },
    {
      "fullUrl": "urn:uuid:4e5a4921-14b3-44d8-ba90-52bec653b2d1",
      "resource": {
        "resourceType": "Observation",
        "id": "4e5a4921-14b3-44d8-ba90-52bec653b2d1",
        "meta": {
          "profile": [
            "http://hl7.eu/fhir/laboratory/StructureDefinition/Observation-resultslab-eu-lab"
          ]
        },
        "performer": [
          {
            "display": "The Central European Lab"
          }
        ],
        "category": [
          {
            "coding": [
              {
                "system": "http://terminology.hl7.org/CodeSystem/observation-category",
                "code": "laboratory"
              }
            ]
          }
        ],
        "code": {
          "coding": [
            {
              "code": "1751-7",
              "system": "http://loinc.org",
              "display": "Albumin [Mass/volume] in Serum or Plasma"
            }
          ],
          "text": "Albumin [Mass/volume] in Serum or Plasma"
        },
        "valueQuantity": {
          "system": "http://unitsofmeasure.org",
          "value": 4.7,
          "unit": "g/dL",
          "code": "g/dL"
        },
        "referenceRange": [
          {
            "low": {
              "value": 3.5,
              "code": "g/dL",
              "system": "http://unitsofmeasure.org"
            }
          },
          {
            "high": {
              "value": 5.5,
              "code": "g/dL",
              "system": "http://unitsofmeasure.org"
            }
          }
        ],
        "text": {
          "status": "generated",
          "div": "<div xmlns=\"http://www.w3.org/1999/xhtml\"><table class=\"hl7__eu__lab__report\"><tr><th>Test</th><th>08-Nov-2016</th><th>Reference&#xA0;Range</th><th>Unit</th></tr><tr><td>Albumin [Mass/volume] in Serum or Plasma</td><td>4.7</td><td>3.5 - 5.5</td><td></td><td>g/dL</td></tr></table></div>"
        },
        "status": "final",
        "subject": {
          "reference": "urn:uuid:0e9e2742-d7ce-4918-acc9-3f7228c7aa1b",
          "display": "Ludmila Vávrová"
        },
        "effectiveDateTime": "2016-11-08T14:35:23Z",
        "specimen": {
          "reference": "urn:uuid:2ad1358d-8643-41ba-84e5-ee2f8e548cfe"
        }
      }
    },
    {
      "fullUrl": "urn:uuid:9ad29ab9-e574-4749-ac3d-29fa20df616c",
      "resource": {
        "resourceType": "Observation",
        "id": "9ad29ab9-e574-4749-ac3d-29fa20df616c",
        "meta": {
          "profile": [
            "http://hl7.eu/fhir/laboratory/StructureDefinition/Observation-resultslab-eu-lab"
          ]
        },
        "performer": [
          {
            "display": "The Central European Lab"
          }
        ],
        "category": [
          {
            "coding": [
              {
                "system": "http://terminology.hl7.org/CodeSystem/observation-category",
                "code": "laboratory"
              }
            ]
          }
        ],
        "code": {
          "coding": [
            {
              "code": "1975-2",
              "system": "http://loinc.org",
              "display": "Bilirubin.total [Mass/volume] in Serum or Plasma"
            }
          ],
          "text": "Bilirubin.total [Mass/volume] in Serum or Plasma"
        },
        "valueQuantity": {
          "system": "http://unitsofmeasure.org",
          "value": 12.7,
          "unit": "mg/dL",
          "code": "mg/dL"
        },
        "referenceRange": [
          {
            "low": {
              "value": 0.3,
              "code": "mg/dL",
              "system": "http://unitsofmeasure.org"
            }
          },
          {
            "high": {
              "value": 1.2,
              "code": "mg/dL",
              "system": "http://unitsofmeasure.org"
            }
          }
        ],
        "interpretation": [
          {
            "coding": [
              {
                "code": "H",
                "system": "http://terminology.hl7.org/CodeSystem/v3-ObservationInterpretation",
                "display": "High"
              }
            ]
          }
        ],
        "text": {
          "status": "generated",
          "div": "<div xmlns=\"http://www.w3.org/1999/xhtml\"><table class=\"hl7__eu__lab__report\"><tr><th>Test</th><th>08-Nov-2016</th><th>Reference&#xA0;Range</th><th>Unit</th></tr><tr><td>Bilirubin.total [Mass/volume] in Serum or Plasma</td><td>12.7</td><td>0.3 - 1.2</td><td>H</td><td>mg/dL</td></tr></table></div>"
        },
        "status": "final",
        "subject": {
          "reference": "urn:uuid:0e9e2742-d7ce-4918-acc9-3f7228c7aa1b",
          "display": "Ludmila Vávrová"
        },
        "effectiveDateTime": "2016-11-08T14:35:23Z",
        "specimen": {
          "reference": "urn:uuid:2ad1358d-8643-41ba-84e5-ee2f8e548cfe"
        }
      }
    },
    {
      "fullUrl": "urn:uuid:3713aaac-4761-4c49-afbc-9c2ed8bbe85a",
      "resource": {
        "resourceType": "Observation",
        "id": "3713aaac-4761-4c49-afbc-9c2ed8bbe85a",
        "meta": {
          "profile": [
            "http://hl7.eu/fhir/laboratory/StructureDefinition/Observation-resultslab-eu-lab"
          ]
        },
        "performer": [
          {
            "display": "The Central European Lab"
          }
        ],
        "category": [
          {
            "coding": [
              {
                "system": "http://terminology.hl7.org/CodeSystem/observation-category",
                "code": "laboratory"
              }
            ]
          }
        ],
        "code": {
          "coding": [
            {
              "code": "6768-6",
              "system": "http://loinc.org",
              "display": "Alkaline phosphatase [Enzymatic activity/volume] in Serum or Plasma"
            }
          ],
          "text": "Alkaline phosphatase [Enzymatic activity/volume] in Serum or Plasma"
        },
        "valueQuantity": {
          "system": "http://unitsofmeasure.org",
          "value": 52.8,
          "unit": "U/L",
          "code": "U/L"
        },
        "referenceRange": [
          {
            "low": {
              "value": 40,
              "code": "U/L",
              "system": "http://unitsofmeasure.org"
            }
          },
          {
            "high": {
              "value": 130,
              "code": "U/L",
              "system": "http://unitsofmeasure.org"
            }
          }
        ],
        "text": {
          "status": "generated",
          "div": "<div xmlns=\"http://www.w3.org/1999/xhtml\"><table class=\"hl7__eu__lab__report\"><tr><th>Test</th><th>08-Nov-2016</th><th>Reference&#xA0;Range</th><th>Unit</th></tr><tr><td>Alkaline phosphatase [Enzymatic activity/volume] in Serum or Plasma</td><td>52.8</td><td>40 - 130</td><td></td><td>U/L</td></tr></table></div>"
        },
        "status": "final",
        "subject": {
          "reference": "urn:uuid:0e9e2742-d7ce-4918-acc9-3f7228c7aa1b",
          "display": "Ludmila Vávrová"
        },
        "effectiveDateTime": "2016-11-08T14:35:23Z",
        "specimen": {
          "reference": "urn:uuid:2ad1358d-8643-41ba-84e5-ee2f8e548cfe"
        }
      }
    },
    {
      "fullUrl": "urn:uuid:d8724839-0fe2-4dee-b570-e3d9862c806d",
      "resource": {
        "resourceType": "Observation",
        "id": "d8724839-0fe2-4dee-b570-e3d9862c806d",
        "meta": {
          "profile": [
            "http://hl7.eu/fhir/laboratory/StructureDefinition/Observation-resultslab-eu-lab"
          ]
        },
        "performer": [
          {
            "display": "The Central European Lab"
          }
        ],
        "category": [
          {
            "coding": [
              {
                "system": "http://terminology.hl7.org/CodeSystem/observation-category",
                "code": "laboratory"
              }
            ]
          }
        ],
        "code": {
          "coding": [
            {
              "code": "1742-6",
              "system": "http://loinc.org",
              "display": "Alanine aminotransferase [Enzymatic activity/volume] in Serum or Plasma"
            }
          ],
          "text": "Alanine aminotransferase [Enzymatic activity/volume] in Serum or Plasma"
        },
        "valueQuantity": {
          "system": "http://unitsofmeasure.org",
          "value": 25.1,
          "unit": "U/L",
          "code": "U/L"
        },
        "referenceRange": [
          {
            "low": {
              "value": 7,
              "code": "U/L",
              "system": "http://unitsofmeasure.org"
            }
          },
          {
            "high": {
              "value": 55,
              "code": "U/L",
              "system": "http://unitsofmeasure.org"
            }
          }
        ],
        "text": {
          "status": "generated",
          "div": "<div xmlns=\"http://www.w3.org/1999/xhtml\"><table class=\"hl7__eu__lab__report\"><tr><th>Test</th><th>08-Nov-2016</th><th>Reference&#xA0;Range</th><th>Unit</th></tr><tr><td>Alanine aminotransferase [Enzymatic activity/volume] in Serum or Plasma</td><td>25.1</td><td>7 - 55</td><td></td><td>U/L</td></tr></table></div>"
        },
        "status": "final",
        "subject": {
          "reference": "urn:uuid:0e9e2742-d7ce-4918-acc9-3f7228c7aa1b",
          "display": "Ludmila Vávrová"
        },
        "effectiveDateTime": "2016-11-08T14:35:23Z",
        "specimen": {
          "reference": "urn:uuid:2ad1358d-8643-41ba-84e5-ee2f8e548cfe"
        }
      }
    },
    {
      "fullUrl": "urn:uuid:2ac9fdb2-8f53-41e9-bc3e-cdc3708cd252",
      "resource": {
        "resourceType": "Observation",
        "id": "2ac9fdb2-8f53-41e9-bc3e-cdc3708cd252",
        "meta": {
          "profile": [
            "http://hl7.eu/fhir/laboratory/StructureDefinition/Observation-resultslab-eu-lab"
          ]
        },
        "performer": [
          {
            "display": "The Central European Lab"
          }
        ],
        "category": [
          {
            "coding": [
              {
                "system": "http://terminology.hl7.org/CodeSystem/observation-category",
                "code": "laboratory"
              }
            ]
          }
        ],
        "code": {
          "coding": [
            {
              "code": "1920-8",
              "system": "http://loinc.org",
              "display": "Aspartate aminotransferase [Enzymatic activity/volume] in Serum or Plasma"
            }
          ],
          "text": "Aspartate aminotransferase [Enzymatic activity/volume] in Serum or Plasma"
        },
        "valueQuantity": {
          "system": "http://unitsofmeasure.org",
          "value": 22.9,
          "unit": "U/L",
          "code": "U/L"
        },
        "referenceRange": [
          {
            "low": {
              "value": 10,
              "code": "U/L",
              "system": "http://unitsofmeasure.org"
            }
          },
          {
            "high": {
              "value": 40,
              "code": "U/L",
              "system": "http://unitsofmeasure.org"
            }
          }
        ],
        "text": {
          "status": "generated",
          "div": "<div xmlns=\"http://www.w3.org/1999/xhtml\"><table class=\"hl7__eu__lab__report\"><tr><th>Test</th><th>08-Nov-2016</th><th>Reference&#xA0;Range</th><th>Unit</th></tr><tr><td>Aspartate aminotransferase [Enzymatic activity/volume] in Serum or Plasma</td><td>22.9</td><td>10 - 40</td><td></td><td>U/L</td></tr></table></div>"
        },
        "status": "final",
        "subject": {
          "reference": "urn:uuid:0e9e2742-d7ce-4918-acc9-3f7228c7aa1b",
          "display": "Ludmila Vávrová"
        },
        "effectiveDateTime": "2016-11-08T14:35:23Z",
        "specimen": {
          "reference": "urn:uuid:2ad1358d-8643-41ba-84e5-ee2f8e548cfe"
        }
      }
    },
    {
      "fullUrl": "urn:uuid:051ba35e-80b8-4b10-a0e3-f1ad766d7738",
      "resource": {
        "resourceType": "Observation",
        "id": "051ba35e-80b8-4b10-a0e3-f1ad766d7738",
        "meta": {
          "profile": [
            "http://hl7.eu/fhir/laboratory/StructureDefinition/Observation-resultslab-eu-lab"
          ]
        },
        "performer": [
          {
            "display": "The Central European Lab"
          }
        ],
        "category": [
          {
            "coding": [
              {
                "system": "http://terminology.hl7.org/CodeSystem/observation-category",
                "code": "laboratory"
              }
            ]
          }
        ],
        "code": {
          "coding": [
            {
              "code": "19123-9",
              "system": "http://loinc.org",
              "display": "Magnesium [Mass/volume] in Serum or Plasma"
            }
          ],
          "text": "Magnesium [Mass/volume] in Serum or Plasma"
        },
        "valueQuantity": {
          "system": "http://unitsofmeasure.org",
          "value": 1.7,
          "unit": "mg/dL",
          "code": "mg/dL"
        },
        "referenceRange": [
          {
            "low": {
              "value": 1.8,
              "code": "mg/dL",
              "system": "http://unitsofmeasure.org"
            }
          },
          {
            "high": {
              "value": 2.3,
              "code": "mg/dL",
              "system": "http://unitsofmeasure.org"
            }
          }
        ],
        "interpretation": [
          {
            "coding": [
              {
                "code": "L",
                "system": "http://terminology.hl7.org/CodeSystem/v3-ObservationInterpretation",
                "display": "Low"
              }
            ]
          }
        ],
        "text": {
          "status": "generated",
          "div": "<div xmlns=\"http://www.w3.org/1999/xhtml\"><table class=\"hl7__eu__lab__report\"><tr><th>Test</th><th>08-Nov-2016</th><th>Reference&#xA0;Range</th><th>Unit</th></tr><tr><td>Magnesium [Mass/volume] in Serum or Plasma</td><td>1.7</td><td>1.8 - 2.3</td><td>L</td><td>mg/dL</td></tr></table></div>"
        },
        "status": "final",
        "subject": {
          "reference": "urn:uuid:0e9e2742-d7ce-4918-acc9-3f7228c7aa1b",
          "display": "Ludmila Vávrová"
        },
        "effectiveDateTime": "2016-11-08T14:35:23Z",
        "specimen": {
          "reference": "urn:uuid:2ad1358d-8643-41ba-84e5-ee2f8e548cfe"
        }
      }
    },
    {
      "fullUrl": "urn:uuid:aba814e9-403c-42b7-a4f3-8404d7b4cc7b",
      "resource": {
        "resourceType": "Observation",
        "id": "aba814e9-403c-42b7-a4f3-8404d7b4cc7b",
        "meta": {
          "profile": [
            "http://hl7.eu/fhir/laboratory/StructureDefinition/Observation-resultslab-eu-lab"
          ]
        },
        "performer": [
          {
            "display": "The Central European Lab"
          }
        ],
        "category": [
          {
            "coding": [
              {
                "system": "http://terminology.hl7.org/CodeSystem/observation-category",
                "code": "laboratory"
              }
            ]
          }
        ],
        "code": {
          "coding": [
            {
              "code": "2777-1",
              "system": "http://loinc.org",
              "display": "Phosphate [Mass/volume] in Serum or Plasma"
            }
          ],
          "text": "Phosphate [Mass/volume] in Serum or Plasma"
        },
        "valueQuantity": {
          "system": "http://unitsofmeasure.org",
          "value": 3.6,
          "unit": "mg/dL",
          "code": "mg/dL"
        },
        "referenceRange": [
          {
            "low": {
              "value": 2.5,
              "code": "mg/dL",
              "system": "http://unitsofmeasure.org"
            }
          },
          {
            "high": {
              "value": 4.5,
              "code": "mg/dL",
              "system": "http://unitsofmeasure.org"
            }
          }
        ],
        "text": {
          "status": "generated",
          "div": "<div xmlns=\"http://www.w3.org/1999/xhtml\"><table class=\"hl7__eu__lab__report\"><tr><th>Test</th><th>08-Nov-2016</th><th>Reference&#xA0;Range</th><th>Unit</th></tr><tr><td>Phosphate [Mass/volume] in Serum or Plasma</td><td>3.6</td><td>2.5 - 4.5</td><td></td><td>mg/dL</td></tr></table></div>"
        },
        "status": "final",
        "subject": {
          "reference": "urn:uuid:0e9e2742-d7ce-4918-acc9-3f7228c7aa1b",
          "display": "Ludmila Vávrová"
        },
        "effectiveDateTime": "2016-11-08T14:35:23Z",
        "specimen": {
          "reference": "urn:uuid:2ad1358d-8643-41ba-84e5-ee2f8e548cfe"
        }
      }
    },
    {
      "fullUrl": "urn:uuid:a0469bcb-6954-41ab-a5cc-c7ec9b76e67c",
      "resource": {
        "resourceType": "Observation",
        "id": "a0469bcb-6954-41ab-a5cc-c7ec9b76e67c",
        "meta": {
          "profile": [
            "http://hl7.eu/fhir/laboratory/StructureDefinition/Observation-resultslab-eu-lab"
          ]
        },
        "performer": [
          {
            "display": "The Central European Lab"
          }
        ],
        "category": [
          {
            "coding": [
              {
                "system": "http://terminology.hl7.org/CodeSystem/observation-category",
                "code": "laboratory"
              }
            ]
          }
        ],
        "code": {
          "coding": [
            {
              "code": "5902-2",
              "system": "http://loinc.org",
              "display": "Prothrombin time (PT)"
            }
          ],
          "text": "Prothrombin time (PT)"
        },
        "valueQuantity": {
          "system": "http://unitsofmeasure.org",
          "value": 11.6,
          "unit": "s",
          "code": "s"
        },
        "referenceRange": [
          {
            "low": {
              "value": 11,
              "code": "s",
              "system": "http://unitsofmeasure.org"
            }
          },
          {
            "high": {
              "value": 15,
              "code": "s",
              "system": "http://unitsofmeasure.org"
            }
          }
        ],
        "text": {
          "status": "generated",
          "div": "<div xmlns=\"http://www.w3.org/1999/xhtml\"><table class=\"hl7__eu__lab__report\"><tr><th>Test</th><th>08-Nov-2016</th><th>Reference&#xA0;Range</th><th>Unit</th></tr><tr><td>Prothrombin time (PT)</td><td>11.6</td><td>11 - 15</td><td></td><td>s</td></tr></table></div>"
        },
        "status": "final",
        "subject": {
          "reference": "urn:uuid:0e9e2742-d7ce-4918-acc9-3f7228c7aa1b",
          "display": "Ludmila Vávrová"
        },
        "effectiveDateTime": "2016-11-08T14:35:23Z",
        "specimen": {
          "reference": "urn:uuid:63760ffd-1776-43ce-80e6-317b22b55374"
        }
      }
    },
    {
      "fullUrl": "urn:uuid:b3e060ce-dec0-4f38-b4ef-b3b1d53508e9",
      "resource": {
        "resourceType": "Observation",
        "id": "b3e060ce-dec0-4f38-b4ef-b3b1d53508e9",
        "meta": {
          "profile": [
            "http://hl7.eu/fhir/laboratory/StructureDefinition/Observation-resultslab-eu-lab"
          ]
        },
        "performer": [
          {
            "display": "The Central European Lab"
          }
        ],
        "category": [
          {
            "coding": [
              {
                "system": "http://terminology.hl7.org/CodeSystem/observation-category",
                "code": "laboratory"
              }
            ]
          }
        ],
        "code": {
          "coding": [
            {
              "code": "6301-6",
              "system": "http://loinc.org",
              "display": "INR in Platelet poor plasma by Coagulation assay"
            }
          ],
          "text": "INR in Platelet poor plasma by Coagulation assay"
        },
        "valueQuantity": {
          "system": "http://unitsofmeasure.org",
          "value": 1.2,
          "unit": "{INR}",
          "code": "{INR}"
        },
        "referenceRange": [
          {
            "low": {
              "value": 0.9,
              "code": "INR",
              "system": "http://unitsofmeasure.org"
            }
          },
          {
            "high": {
              "value": 3,
              "code": "INR",
              "system": "http://unitsofmeasure.org"
            }
          }
        ],
        "text": {
          "status": "generated",
          "div": "<div xmlns=\"http://www.w3.org/1999/xhtml\"><table class=\"hl7__eu__lab__report\"><tr><th>Test</th><th>08-Nov-2016</th><th>Reference&#xA0;Range</th><th>Unit</th></tr><tr><td>INR in Platelet poor plasma by Coagulation assay</td><td>1.2</td><td>0.9 - 3</td><td></td><td>{INR}</td></tr></table></div>"
        },
        "status": "final",
        "subject": {
          "reference": "urn:uuid:0e9e2742-d7ce-4918-acc9-3f7228c7aa1b",
          "display": "Ludmila Vávrová"
        },
        "effectiveDateTime": "2016-11-08T14:35:23Z",
        "specimen": {
          "reference": "urn:uuid:63760ffd-1776-43ce-80e6-317b22b55374"
        }
      }
    },
    {
      "fullUrl": "urn:uuid:5d2b0b3f-793b-4cae-bcb7-cf4b39071c52",
      "resource": {
        "resourceType": "Observation",
        "id": "5d2b0b3f-793b-4cae-bcb7-cf4b39071c52",
        "meta": {
          "profile": [
            "http://hl7.eu/fhir/laboratory/StructureDefinition/Observation-resultslab-eu-lab"
          ]
        },
        "performer": [
          {
            "display": "The Central European Lab"
          }
        ],
        "category": [
          {
            "coding": [
              {
                "system": "http://terminology.hl7.org/CodeSystem/observation-category",
                "code": "laboratory"
              }
            ]
          }
        ],
        "code": {
          "coding": [
            {
              "code": "3173-2",
              "system": "http://loinc.org",
              "display": "aPTT in Blood by Coagulation assay"
            }
          ],
          "text": "aPTT in Blood by Coagulation assay"
        },
        "valueQuantity": {
          "system": "http://unitsofmeasure.org",
          "value": 31.2,
          "unit": "s",
          "code": "s"
        },
        "referenceRange": [
          {
            "low": {
              "value": 25,
              "code": "seconds",
              "system": "http://unitsofmeasure.org"
            }
          },
          {
            "high": {
              "value": 40,
              "code": "seconds",
              "system": "http://unitsofmeasure.org"
            }
          }
        ],
        "text": {
          "status": "generated",
          "div": "<div xmlns=\"http://www.w3.org/1999/xhtml\"><table class=\"hl7__eu__lab__report\"><tr><th>Test</th><th>08-Nov-2016</th><th>Reference&#xA0;Range</th><th>Unit</th></tr><tr><td>aPTT in Blood by Coagulation assay</td><td>31.2</td><td>25 - 40</td><td></td><td>s</td></tr></table></div>"
        },
        "status": "final",
        "subject": {
          "reference": "urn:uuid:0e9e2742-d7ce-4918-acc9-3f7228c7aa1b",
          "display": "Ludmila Vávrová"
        },
        "effectiveDateTime": "2016-11-08T14:35:23Z",
        "specimen": {
          "reference": "urn:uuid:0890d392-398c-42e5-9a68-26be53654617"
        }
      }
    },
    {
      "fullUrl": "urn:uuid:99d545eb-5a5b-4c9c-ab9f-7ae41e8c5f56",
      "resource": {
        "resourceType": "Observation",
        "id": "99d545eb-5a5b-4c9c-ab9f-7ae41e8c5f56",
        "meta": {
          "profile": [
            "http://hl7.eu/fhir/laboratory/StructureDefinition/Observation-resultslab-eu-lab"
          ]
        },
        "performer": [
          {
            "display": "The Central European Lab"
          }
        ],
        "category": [
          {
            "coding": [
              {
                "system": "http://terminology.hl7.org/CodeSystem/observation-category",
                "code": "laboratory"
              }
            ]
          }
        ],
        "code": {
          "coding": [
            {
              "code": "2744-1",
              "system": "http://loinc.org",
              "display": "pH of Arterial blood"
            }
          ],
          "text": "pH of Arterial blood"
        },
        "valueQuantity": {
          "system": "http://unitsofmeasure.org",
          "value": 7.2,
          "unit": "[pH]",
          "code": "[pH]"
        },
        "referenceRange": [
          {
            "low": {
              "value": 7.35,
              "code": "pH",
              "system": "http://unitsofmeasure.org"
            }
          },
          {
            "high": {
              "value": 7.45,
              "code": "pH",
              "system": "http://unitsofmeasure.org"
            }
          }
        ],
        "interpretation": [
          {
            "coding": [
              {
                "code": "L",
                "system": "http://terminology.hl7.org/CodeSystem/v3-ObservationInterpretation",
                "display": "Low"
              }
            ]
          }
        ],
        "text": {
          "status": "generated",
          "div": "<div xmlns=\"http://www.w3.org/1999/xhtml\"><table class=\"hl7__eu__lab__report\"><tr><th>Test</th><th>08-Nov-2016</th><th>Reference&#xA0;Range</th><th>Unit</th></tr><tr><td>pH of Arterial blood</td><td>7.2</td><td>7.35 - 7.45</td><td>L</td><td>[pH]</td></tr></table></div>"
        },
        "status": "final",
        "subject": {
          "reference": "urn:uuid:0e9e2742-d7ce-4918-acc9-3f7228c7aa1b",
          "display": "Ludmila Vávrová"
        },
        "effectiveDateTime": "2016-11-08T14:35:23Z",
        "specimen": {
          "reference": "urn:uuid:6052c630-c837-45df-bf14-f06b732b5237"
        }
      }
    },
    {
      "fullUrl": "urn:uuid:c3290395-6250-437c-800a-c5c9bb4be5a1",
      "resource": {
        "resourceType": "Observation",
        "id": "c3290395-6250-437c-800a-c5c9bb4be5a1",
        "meta": {
          "profile": [
            "http://hl7.eu/fhir/laboratory/StructureDefinition/Observation-resultslab-eu-lab"
          ]
        },
        "performer": [
          {
            "display": "The Central European Lab"
          }
        ],
        "category": [
          {
            "coding": [
              {
                "system": "http://terminology.hl7.org/CodeSystem/observation-category",
                "code": "laboratory"
              }
            ]
          }
        ],
        "code": {
          "coding": [
            {
              "code": "2019-8",
              "system": "http://loinc.org",
              "display": "Carbon dioxide [Partial pressure] in Arterial blood"
            }
          ],
          "text": "Carbon dioxide [Partial pressure] in Arterial blood"
        },
        "valueQuantity": {
          "system": "http://unitsofmeasure.org",
          "value": 39.3,
          "unit": "mm[Hg]",
          "code": "mm[Hg]"
        },
        "referenceRange": [
          {
            "low": {
              "value": 35,
              "code": "mm[Hg]",
              "system": "http://unitsofmeasure.org"
            }
          },
          {
            "high": {
              "value": 45,
              "code": "mm[Hg]",
              "system": "http://unitsofmeasure.org"
            }
          }
        ],
        "text": {
          "status": "generated",
          "div": "<div xmlns=\"http://www.w3.org/1999/xhtml\"><table class=\"hl7__eu__lab__report\"><tr><th>Test</th><th>08-Nov-2016</th><th>Reference&#xA0;Range</th><th>Unit</th></tr><tr><td>Carbon dioxide [Partial pressure] in Arterial blood</td><td>39.3</td><td>35 - 45</td><td></td><td>mm[Hg]</td></tr></table></div>"
        },
        "status": "final",
        "subject": {
          "reference": "urn:uuid:0e9e2742-d7ce-4918-acc9-3f7228c7aa1b",
          "display": "Ludmila Vávrová"
        },
        "effectiveDateTime": "2016-11-08T14:35:23Z",
        "specimen": {
          "reference": "urn:uuid:6052c630-c837-45df-bf14-f06b732b5237"
        }
      }
    },
    {
      "fullUrl": "urn:uuid:fe637d7a-dd09-4e80-8675-7c627592d057",
      "resource": {
        "resourceType": "Observation",
        "id": "fe637d7a-dd09-4e80-8675-7c627592d057",
        "meta": {
          "profile": [
            "http://hl7.eu/fhir/laboratory/StructureDefinition/Observation-resultslab-eu-lab"
          ]
        },
        "performer": [
          {
            "display": "The Central European Lab"
          }
        ],
        "category": [
          {
            "coding": [
              {
                "system": "http://terminology.hl7.org/CodeSystem/observation-category",
                "code": "laboratory"
              }
            ]
          }
        ],
        "code": {
          "coding": [
            {
              "code": "2703-7",
              "system": "http://loinc.org",
              "display": "Oxygen [Partial pressure] in Arterial blood"
            }
          ],
          "text": "Oxygen [Partial pressure] in Arterial blood"
        },
        "valueQuantity": {
          "system": "http://unitsofmeasure.org",
          "value": 83.7,
          "unit": "mm[Hg]",
          "code": "mm[Hg]"
        },
        "referenceRange": [
          {
            "low": {
              "value": 75,
              "code": "mm[Hg]",
              "system": "http://unitsofmeasure.org"
            }
          },
          {
            "high": {
              "value": 100,
              "code": "mm[Hg]",
              "system": "http://unitsofmeasure.org"
            }
          }
        ],
        "text": {
          "status": "generated",
          "div": "<div xmlns=\"http://www.w3.org/1999/xhtml\"><table class=\"hl7__eu__lab__report\"><tr><th>Test</th><th>08-Nov-2016</th><th>Reference&#xA0;Range</th><th>Unit</th></tr><tr><td>Oxygen [Partial pressure] in Arterial blood</td><td>83.7</td><td>75 - 100</td><td></td><td>mm[Hg]</td></tr></table></div>"
        },
        "status": "final",
        "subject": {
          "reference": "urn:uuid:0e9e2742-d7ce-4918-acc9-3f7228c7aa1b",
          "display": "Ludmila Vávrová"
        },
        "effectiveDateTime": "2016-11-08T14:35:23Z",
        "specimen": {
          "reference": "urn:uuid:6052c630-c837-45df-bf14-f06b732b5237"
        }
      }
    },
    {
      "fullUrl": "urn:uuid:754cd892-8c3b-473d-bf03-631449e28b89",
      "resource": {
        "resourceType": "Observation",
        "id": "754cd892-8c3b-473d-bf03-631449e28b89",
        "meta": {
          "profile": [
            "http://hl7.eu/fhir/laboratory/StructureDefinition/Observation-resultslab-eu-lab"
          ]
        },
        "performer": [
          {
            "display": "The Central European Lab"
          }
        ],
        "category": [
          {
            "coding": [
              {
                "system": "http://terminology.hl7.org/CodeSystem/observation-category",
                "code": "laboratory"
              }
            ]
          }
        ],
        "code": {
          "coding": [
            {
              "code": "1960-4",
              "system": "http://loinc.org",
              "display": "Bicarbonate [Moles/volume] in Arterial blood"
            }
          ],
          "text": "Bicarbonate [Moles/volume] in Arterial blood"
        },
        "valueQuantity": {
          "system": "http://unitsofmeasure.org",
          "value": 26.2,
          "unit": "mmol/L",
          "code": "mmol/L"
        },
        "referenceRange": [
          {
            "low": {
              "value": 22,
              "code": "mmol/L",
              "system": "http://unitsofmeasure.org"
            }
          },
          {
            "high": {
              "value": 32,
              "code": "mmol/L",
              "system": "http://unitsofmeasure.org"
            }
          }
        ],
        "text": {
          "status": "generated",
          "div": "<div xmlns=\"http://www.w3.org/1999/xhtml\"><table class=\"hl7__eu__lab__report\"><tr><th>Test</th><th>08-Nov-2016</th><th>Reference&#xA0;Range</th><th>Unit</th></tr><tr><td>Bicarbonate [Moles/volume] in Arterial blood</td><td>26.2</td><td>22 - 32</td><td></td><td>mmol/L</td></tr></table></div>"
        },
        "status": "final",
        "subject": {
          "reference": "urn:uuid:0e9e2742-d7ce-4918-acc9-3f7228c7aa1b",
          "display": "Ludmila Vávrová"
        },
        "effectiveDateTime": "2016-11-08T14:35:23Z",
        "specimen": {
          "reference": "urn:uuid:6052c630-c837-45df-bf14-f06b732b5237"
        }
      }
    },
    {
      "fullUrl": "urn:uuid:78a20c08-2d67-4f3a-bac5-1a8d789ff6ec",
      "resource": {
        "resourceType": "Observation",
        "id": "78a20c08-2d67-4f3a-bac5-1a8d789ff6ec",
        "meta": {
          "profile": [
            "http://hl7.eu/fhir/laboratory/StructureDefinition/Observation-resultslab-eu-lab"
          ]
        },
        "performer": [
          {
            "display": "The Central European Lab"
          }
        ],
        "category": [
          {
            "coding": [
              {
                "system": "http://terminology.hl7.org/CodeSystem/observation-category",
                "code": "laboratory"
              }
            ]
          }
        ],
        "code": {
          "coding": [
            {
              "code": "2708-6",
              "system": "http://loinc.org",
              "display": "Oxygen saturation in Arterial blood"
            }
          ],
          "text": "Oxygen saturation in Arterial blood"
        },
        "valueQuantity": {
          "system": "http://unitsofmeasure.org",
          "value": 91,
          "unit": "%",
          "code": "%"
        },
        "referenceRange": [
          {
            "low": {
              "value": 95,
              "code": "%",
              "system": "http://unitsofmeasure.org"
            }
          },
          {
            "high": {
              "value": 100,
              "code": "%",
              "system": "http://unitsofmeasure.org"
            }
          }
        ],
        "interpretation": [
          {
            "coding": [
              {
                "code": "L",
                "system": "http://terminology.hl7.org/CodeSystem/v3-ObservationInterpretation",
                "display": "Low"
              }
            ]
          }
        ],
        "text": {
          "status": "generated",
          "div": "<div xmlns=\"http://www.w3.org/1999/xhtml\"><table class=\"hl7__eu__lab__report\"><tr><th>Test</th><th>08-Nov-2016</th><th>Reference&#xA0;Range</th><th>Unit</th></tr><tr><td>Oxygen saturation in Arterial blood</td><td>91.0</td><td>95 - 100</td><td>L</td><td>%</td></tr></table></div>"
        },
        "status": "final",
        "subject": {
          "reference": "urn:uuid:0e9e2742-d7ce-4918-acc9-3f7228c7aa1b",
          "display": "Ludmila Vávrová"
        },
        "effectiveDateTime": "2016-11-08T14:35:23Z",
        "specimen": {
          "reference": "urn:uuid:6052c630-c837-45df-bf14-f06b732b5237"
        }
      }
    },
    {
      "fullUrl": "urn:uuid:c8d16be3-f07d-4f21-b4f0-d1331f9b7a42",
      "resource": {
        "resourceType": "Observation",
        "id": "c8d16be3-f07d-4f21-b4f0-d1331f9b7a42",
        "meta": {
          "profile": [
            "http://hl7.eu/fhir/laboratory/StructureDefinition/Observation-resultslab-eu-lab"
          ]
        },
        "performer": [
          {
            "display": "The Central European Lab"
          }
        ],
        "category": [
          {
            "coding": [
              {
                "system": "http://terminology.hl7.org/CodeSystem/observation-category",
                "code": "laboratory"
              }
            ]
          }
        ],
        "code": {
          "coding": [
            {
              "code": "2093-3",
              "system": "http://loinc.org",
              "display": "Cholesterol [Mass/volume] in Serum or Plasma"
            }
          ],
          "text": "Cholesterol [Mass/volume] in Serum or Plasma"
        },
        "valueQuantity": {
          "system": "http://unitsofmeasure.org",
          "value": 260.2,
          "unit": "mg/dL",
          "code": "mg/dL"
        },
        "referenceRange": [
          {
            "low": {
              "value": 125,
              "code": "mg/dL",
              "system": "http://unitsofmeasure.org"
            }
          },
          {
            "high": {
              "value": 200,
              "code": "mg/dL",
              "system": "http://unitsofmeasure.org"
            }
          }
        ],
        "interpretation": [
          {
            "coding": [
              {
                "code": "H",
                "system": "http://terminology.hl7.org/CodeSystem/v3-ObservationInterpretation",
                "display": "High"
              }
            ]
          }
        ],
        "text": {
          "status": "generated",
          "div": "<div xmlns=\"http://www.w3.org/1999/xhtml\"><table class=\"hl7__eu__lab__report\"><tr><th>Test</th><th>08-Nov-2016</th><th>Reference&#xA0;Range</th><th>Unit</th></tr><tr><td>Cholesterol [Mass/volume] in Serum or Plasma</td><td>260.2</td><td>125 - 200</td><td>H</td><td>mg/dL</td></tr></table></div>"
        },
        "status": "final",
        "subject": {
          "reference": "urn:uuid:0e9e2742-d7ce-4918-acc9-3f7228c7aa1b",
          "display": "Ludmila Vávrová"
        },
        "effectiveDateTime": "2016-11-08T14:35:23Z",
        "specimen": {
          "reference": "urn:uuid:2ad1358d-8643-41ba-84e5-ee2f8e548cfe"
        }
      }
    },
    {
      "fullUrl": "urn:uuid:74bb177c-60d8-4ba8-89af-b3e07bd27030",
      "resource": {
        "resourceType": "Observation",
        "id": "74bb177c-60d8-4ba8-89af-b3e07bd27030",
        "meta": {
          "profile": [
            "http://hl7.eu/fhir/laboratory/StructureDefinition/Observation-resultslab-eu-lab"
          ]
        },
        "performer": [
          {
            "display": "The Central European Lab"
          }
        ],
        "category": [
          {
            "coding": [
              {
                "system": "http://terminology.hl7.org/CodeSystem/observation-category",
                "code": "laboratory"
              }
            ]
          }
        ],
        "code": {
          "coding": [
            {
              "code": "2571-8",
              "system": "http://loinc.org",
              "display": "Triglyceride [Mass/volume] in Serum or Plasma"
            }
          ],
          "text": "Triglyceride [Mass/volume] in Serum or Plasma"
        },
        "valueQuantity": {
          "system": "http://unitsofmeasure.org",
          "value": 131.1,
          "unit": "mg/dL",
          "code": "mg/dL"
        },
        "referenceRange": [
          {
            "low": {
              "value": 10,
              "code": "mg/dL",
              "system": "http://unitsofmeasure.org"
            }
          },
          {
            "high": {
              "value": 175,
              "code": "mg/dL",
              "system": "http://unitsofmeasure.org"
            }
          }
        ],
        "text": {
          "status": "generated",
          "div": "<div xmlns=\"http://www.w3.org/1999/xhtml\"><table class=\"hl7__eu__lab__report\"><tr><th>Test</th><th>08-Nov-2016</th><th>Reference&#xA0;Range</th><th>Unit</th></tr><tr><td>Triglyceride [Mass/volume] in Serum or Plasma</td><td>131.1</td><td>10 - 175</td><td></td><td>mg/dL</td></tr></table></div>"
        },
        "status": "final",
        "subject": {
          "reference": "urn:uuid:0e9e2742-d7ce-4918-acc9-3f7228c7aa1b",
          "display": "Ludmila Vávrová"
        },
        "effectiveDateTime": "2016-11-08T14:35:23Z",
        "specimen": {
          "reference": "urn:uuid:2ad1358d-8643-41ba-84e5-ee2f8e548cfe"
        }
      }
    },
    {
      "fullUrl": "urn:uuid:b5a475fb-f2b6-4770-8afd-4f7c11df32da",
      "resource": {
        "resourceType": "Observation",
        "id": "b5a475fb-f2b6-4770-8afd-4f7c11df32da",
        "meta": {
          "profile": [
            "http://hl7.eu/fhir/laboratory/StructureDefinition/Observation-resultslab-eu-lab"
          ]
        },
        "performer": [
          {
            "display": "The Central European Lab"
          }
        ],
        "category": [
          {
            "coding": [
              {
                "system": "http://terminology.hl7.org/CodeSystem/observation-category",
                "code": "laboratory"
              }
            ]
          }
        ],
        "code": {
          "coding": [
            {
              "code": "18262-6",
              "system": "http://loinc.org",
              "display": "Cholesterol in LDL [Mass/volume] in Serum or Plasma by Direct assay"
            }
          ],
          "text": "Cholesterol in LDL [Mass/volume] in Serum or Plasma by Direct assay"
        },
        "valueQuantity": {
          "system": "http://unitsofmeasure.org",
          "value": 181.2,
          "unit": "mg/dL",
          "code": "mg/dL"
        },
        "referenceRange": [
          {
            "low": {
              "value": 0,
              "code": "mg/dL",
              "system": "http://unitsofmeasure.org"
            }
          },
          {
            "high": {
              "value": 130,
              "code": "mg/dL",
              "system": "http://unitsofmeasure.org"
            }
          }
        ],
        "interpretation": [
          {
            "coding": [
              {
                "code": "H",
                "system": "http://terminology.hl7.org/CodeSystem/v3-ObservationInterpretation",
                "display": "High"
              }
            ]
          }
        ],
        "text": {
          "status": "generated",
          "div": "<div xmlns=\"http://www.w3.org/1999/xhtml\"><table class=\"hl7__eu__lab__report\"><tr><th>Test</th><th>08-Nov-2016</th><th>Reference&#xA0;Range</th><th>Unit</th></tr><tr><td>Cholesterol in LDL [Mass/volume] in Serum or Plasma by Direct assay</td><td>181.2</td><td>0 - 130</td><td>H</td><td>mg/dL</td></tr></table></div>"
        },
        "status": "final",
        "subject": {
          "reference": "urn:uuid:0e9e2742-d7ce-4918-acc9-3f7228c7aa1b",
          "display": "Ludmila Vávrová"
        },
        "effectiveDateTime": "2016-11-08T14:35:23Z",
        "specimen": {
          "reference": "urn:uuid:2ad1358d-8643-41ba-84e5-ee2f8e548cfe"
        }
      }
    },
    {
      "fullUrl": "urn:uuid:f443e2c4-4a70-416f-8055-d93dbe9728bb",
      "resource": {
        "resourceType": "Observation",
        "id": "f443e2c4-4a70-416f-8055-d93dbe9728bb",
        "meta": {
          "profile": [
            "http://hl7.eu/fhir/laboratory/StructureDefinition/Observation-resultslab-eu-lab"
          ]
        },
        "performer": [
          {
            "display": "The Central European Lab"
          }
        ],
        "category": [
          {
            "coding": [
              {
                "system": "http://terminology.hl7.org/CodeSystem/observation-category",
                "code": "laboratory"
              }
            ]
          }
        ],
        "code": {
          "coding": [
            {
              "code": "2085-9",
              "system": "http://loinc.org",
              "display": "Cholesterol in HDL [Mass/volume] in Serum or Plasma"
            }
          ],
          "text": "Cholesterol in HDL [Mass/volume] in Serum or Plasma"
        },
        "valueQuantity": {
          "system": "http://unitsofmeasure.org",
          "value": 52.8,
          "unit": "mg/dL",
          "code": "mg/dL"
        },
        "referenceRange": [
          {
            "low": {
              "value": 50,
              "code": "mg/dL",
              "system": "http://unitsofmeasure.org"
            }
          },
          {
            "high": {
              "value": 100,
              "code": "mg/dL",
              "system": "http://unitsofmeasure.org"
            }
          }
        ],
        "text": {
          "status": "generated",
          "div": "<div xmlns=\"http://www.w3.org/1999/xhtml\"><table class=\"hl7__eu__lab__report\"><tr><th>Test</th><th>08-Nov-2016</th><th>Reference&#xA0;Range</th><th>Unit</th></tr><tr><td>Cholesterol in HDL [Mass/volume] in Serum or Plasma</td><td>52.8</td><td>50 - 100</td><td></td><td>mg/dL</td></tr></table></div>"
        },
        "status": "final",
        "subject": {
          "reference": "urn:uuid:0e9e2742-d7ce-4918-acc9-3f7228c7aa1b",
          "display": "Ludmila Vávrová"
        },
        "effectiveDateTime": "2016-11-08T14:35:23Z",
        "specimen": {
          "reference": "urn:uuid:2ad1358d-8643-41ba-84e5-ee2f8e548cfe"
        }
      }
    },
    {
      "fullUrl": "urn:uuid:aa1d082a-784f-42d8-99a0-aba0704821ab",
      "resource": {
        "resourceType": "Device",
        "id": "aa1d082a-784f-42d8-99a0-aba0704821ab",
        "deviceName": [
          {
            "name": "SYNDERAI Synthetic Generator",
            "type": "manufacturer-name"
          }
        ],
        "version": [
          {
            "value": "5.0"
          }
        ],
        "text": {
          "status": "generated",
          "div": "<div xmlns=\"http://www.w3.org/1999/xhtml\">SYNDERAI Synthetic Generator v5.0</div>"
        },
        "status": "active\"",
        "distinctIdentifier": "synderai-generator-50",
        "manufacturer": "SYNDERAI Project"
      }
    },
    {
      "fullUrl": "urn:uuid:07c25fcd-341d-4fa2-b5ab-bc3ef2a1fb39",
      "resource": {
        "resourceType": "Provenance",
        "id": "07c25fcd-341d-4fa2-b5ab-bc3ef2a1fb39",
        "target": [
          {
            "reference": "Patient/0e9e2742-d7ce-4918-acc9-3f7228c7aa1b"
          },
          {
            "reference": "Bundle/a5190444-570e-4717-a407-5fd0d51201f4"
          },
          {
            "reference": "Composition/a5af3f63-6834-4c1f-bcd5-d796727d3dd7"
          },
          {
            "reference": "PractitionerRole/8d134d26-d5c2-42a8-ae08-3780922a2f58"
          },
          {
            "reference": "Practitioner/63f2a482-6dfa-42b0-994c-321455b10ba2"
          },
          {
            "reference": "PractitionerRole/0b0b0333-4e72-4685-8edc-e3064f652256"
          },
          {
            "reference": "Organization/50dbe1e2-63f5-475c-a2c9-dc0d66fecdd2"
          }
        ],
        "activity": {
          "text": "Synthetic Example Data Generation"
        },
        "policy": [
          "https://synderai.net/synderai-synthetic-data-policy"
        ],
        "agent": [
          {
            "type": {
              "text": "author"
            },
            "who": {
              "reference": "Device/aa1d082a-784f-42d8-99a0-aba0704821ab"
            }
          }
        ],
        "reason": [
          {
            "text": "Interoperability Testing and Training (non-clinical use)"
          }
        ],
        "text": {
          "status": "generated",
          "div": "<div xmlns=\"http://www.w3.org/1999/xhtml\">Provenance for SYNDERAI Synthetic Example Data Resource</div>"
        },
        "recorded": "2016-11-08T15:35:23Z"
      }
    },
    {
      "fullUrl": "urn:uuid:8d134d26-d5c2-42a8-ae08-3780922a2f58",
      "resource": {
        "resourceType": "PractitionerRole",
        "id": "8d134d26-d5c2-42a8-ae08-3780922a2f58",
        "meta": {
          "profile": [
            "http://hl7.eu/fhir/base/StructureDefinition/practitionerRole-eu"
          ]
        },
        "text": {
          "status": "generated",
          "div": "<div xmlns=\"http://www.w3.org/1999/xhtml\">Laboratory Role Id: 8d134d26-d5c2-42a8-ae08-3780922a2f58</div>"
        },
        "practitioner": {
          "reference": "urn:uuid:63f2a482-6dfa-42b0-994c-321455b10ba2"
        }
      }
    },
    {
      "fullUrl": "urn:uuid:63f2a482-6dfa-42b0-994c-321455b10ba2",
      "resource": {
        "resourceType": "Practitioner",
        "id": "63f2a482-6dfa-42b0-994c-321455b10ba2",
        "meta": {
          "profile": [
            "http://hl7.eu/fhir/base/StructureDefinition/practitioner-eu"
          ]
        },
        "identifier": [
          {
            "assigner": {
              "display": "HL7 Europe"
            },
            "system": "urn:oid:2.16.840.1.113883.2.51.999",
            "value": "535bbcf9-ccad-48ec-baae-3ae75211e393"
          }
        ],
        "name": [
          {
            "prefix": [
              "dr"
            ],
            "given": [
              "Ex"
            ],
            "family": "Ample"
          }
        ],
        "address": [
          {
            "line": [
              "Laboratoire Central Européenne",
              "Boulevard du Jardin Botanique 32"
            ],
            "postalCode": "1000",
            "city": "Brussels",
            "country": "Belgium"
          }
        ],
        "text": {
          "status": "generated",
          "div": "<div xmlns=\"http://www.w3.org/1999/xhtml\">Laboratory: Laboratoire Central Européenne, 1000 Brussels, Belgium</div>"
        }
      }
    }
  ],
  "type": "document",
  "timestamp": "2016-11-08T15:35:23Z"
}
