{
  "resourceType": "Bundle",
  "id": "dd133ccd-d757-410f-a5e5-e48acb077566",
  "meta": {
    "profile": [
      "http://hl7.eu/fhir/laboratory/StructureDefinition/Bundle-eu-lab"
    ]
  },
  "identifier": {
    "assigner": {
      "display": "HL7 Europe"
    },
    "system": "urn:oid:2.16.840.1.113883.2.51.999",
    "value": "32bea203-2658-4d6c-af3c-399475732319"
  },
  "entry": [
    {
      "fullUrl": "urn:uuid:5d7c382a-0a0c-4cf9-985e-901ff945d3e8",
      "resource": {
        "resourceType": "Composition",
        "id": "5d7c382a-0a0c-4cf9-985e-901ff945d3e8",
        "meta": {
          "profile": [
            "http://hl7.eu/fhir/laboratory/StructureDefinition/Composition-eu-lab"
          ]
        },
        "identifier": {
          "assigner": {
            "display": "HL7 Europe"
          },
          "system": "urn:oid:2.16.840.1.113883.2.51.999",
          "value": "269e92ec-0ac0-4967-bf06-cb5674188ab2"
        },
        "author": [
          {
            "reference": "urn:uuid:e0cfb5e3-884a-429e-b852-7106e7454173"
          }
        ],
        "category": [
          {
            "coding": [
              {
                "code": "26436-6",
                "system": "http://loinc.org",
                "display": "Laboratory studies (set)"
              }
            ]
          }
        ],
        "type": {
          "coding": [
            {
              "code": "11502-2",
              "system": "http://loinc.org",
              "display": "Laboratory report"
            }
          ],
          "text": "Laboratory Report"
        },
        "section": [
          {
            "code": {
              "coding": [
                {
                  "code": "26436-6",
                  "system": "http://loinc.org",
                  "display": "Laboratory studies (set)"
                }
              ],
              "text": "Laboratory studies"
            },
            "section": [
              {
                "code": {
                  "coding": [
                    {
                      "code": "$18719-5",
                      "system": "http://loinc.org",
                      "display": "Chemistry studies (set)"
                    }
                  ],
                  "text": "Chemistry"
                },
                "entry": [
                  {
                    "reference": "urn:uuid:1cfcf2dd-b072-4696-af43-34e9deacbf94"
                  },
                  {
                    "reference": "urn:uuid:3e483cfd-c5ee-405a-8d8f-f06842c16b41"
                  },
                  {
                    "reference": "urn:uuid:47d5aeca-de0b-423e-9316-9b266e7be034"
                  },
                  {
                    "reference": "urn:uuid:f4879b1f-4707-46d7-a9ab-99f83a946c72"
                  },
                  {
                    "reference": "urn:uuid:fe400004-5991-432e-9e47-a9959c0e32cb"
                  },
                  {
                    "reference": "urn:uuid:8bdba569-11b0-4a0e-bf8e-2e3f30ca7964"
                  },
                  {
                    "reference": "urn:uuid:2b34d33d-419d-45af-b65d-a9c7d19fc24f"
                  },
                  {
                    "reference": "urn:uuid:f89db6b9-9b78-4c75-937e-4bf082e50ac8"
                  },
                  {
                    "reference": "urn:uuid:e978b232-fe4c-429c-a50e-7269a03e83d5"
                  },
                  {
                    "reference": "urn:uuid:53e47ee2-50e5-47b0-8ae0-cc2f1a63fb20"
                  },
                  {
                    "reference": "urn:uuid:a8b08143-3583-416d-8bdd-f1e858753146"
                  },
                  {
                    "reference": "urn:uuid:d453629c-6bd9-4d92-9640-6438430c000f"
                  },
                  {
                    "reference": "urn:uuid:a825d17d-8b1d-4b03-8766-ee6054fccc37"
                  }
                ],
                "text": {
                  "status": "generated",
                  "div": "<div xmlns=\"http://www.w3.org/1999/xhtml\"><h3>Chemistry</h3><table class=\"hl7__eu__lab__report\"><thead><tr><th>Test</th><th>13-FEB-2020</th><th>Reference&#xA0;Range</th><th>Unit</th></tr></thead><tbody><tr><td>Hemoglobin A1c/Hemoglobin.total in Blood</td><td><strong>6.4 H</strong></td><td>4 - 6</td><td>%</td></tr><tr><td>Glucose [Mass/volume] in Blood</td><td>91.4</td><td>70 - 140</td><td>mg/dL</td></tr><tr><td>Urea nitrogen [Mass/volume] in Blood</td><td>8.6</td><td>7 - 25</td><td>mg/dL</td></tr><tr><td>Creatinine [Mass/volume] in Blood</td><td>0.8</td><td>0.6 - 1.1</td><td>mg/dL</td></tr><tr><td>Calcium [Mass/volume] in Blood</td><td>8.8</td><td>8.5 - 10.4</td><td>mg/dL</td></tr><tr><td>Sodium [Moles/volume] in Blood</td><td>143.8</td><td>135 - 145</td><td>mmol/L</td></tr><tr><td>Potassium [Moles/volume] in Blood</td><td>4.3</td><td>3.5 - 5.1</td><td>mmol/L</td></tr><tr><td>Chloride [Moles/volume] in Blood</td><td><strong>110.9 H</strong></td><td>98 - 108</td><td>mmol/L</td></tr><tr><td>Carbon dioxide, total [Moles/volume] in Blood</td><td><strong>20.6 L</strong></td><td>22 - 29</td><td>mmol/L</td></tr><tr><td>Cholesterol [Mass/volume] in Serum or Plasma</td><td>147.4</td><td>125 - 200</td><td>mg/dL</td></tr><tr><td>Triglyceride [Mass/volume] in Serum or Plasma</td><td>141.7</td><td>35 - 150</td><td>mg/dL</td></tr><tr><td>Cholesterol in LDL [Mass/volume] in Serum or Plasma by Direct assay</td><td>66.6</td><td>0 - 130</td><td>mg/dL</td></tr><tr><td>Cholesterol in HDL [Mass/volume] in Serum or Plasma</td><td>52.4</td><td>50 - 100</td><td>mg/dL</td></tr></tbody></table></div>"
                },
                "title": "Chemistry"
              }
            ],
            "title": "Laboratory Report"
          },
          {
            "text": {
              "status": "generated",
              "div": "<div xmlns=\"http://www.w3.org/1999/xhtml\"><h3>Annotation</h3><table class=\"hl7__eu__lab__report\"><tr><th>Conclusion and Recommendations based on this report and previous findings known to us</th></tr><tr><td>The patient shows mildly elevated HbA1c (6.4%), indicating impaired glucose metabolism or possible prediabetes/diabetes, despite normal fasting glucose. Chloride is slightly elevated and total CO₂ is mildly decreased, which may suggest a mild metabolic acidosis. Renal function, electrolytes, and lipid profile are within normal limits. Clinical correlation and follow-up for glycemic control and acid-base status are recommended.</td></tr></table></div>"
            },
            "code": {
              "coding": [
                {
                  "system": "http://loinc.org",
                  "code": "48767-8",
                  "display": "Annotation comment"
                }
              ]
            },
            "title": "Annotation comment"
          }
        ],
        "status": "final",
        "subject": {
          "reference": "urn:uuid:1ba7addb-a576-46f1-9deb-88ae37544d0e",
          "display": "Vincenza Porzio"
        },
        "date": "2020-02-13T19:51:27Z",
        "title": "Laboratory Report",
        "confidentiality": "N"
      }
    },
    {
      "fullUrl": "urn:uuid:54cda9b0-e123-4a8d-9de1-2c52a08e9212",
      "resource": {
        "resourceType": "DiagnosticReport",
        "id": "54cda9b0-e123-4a8d-9de1-2c52a08e9212",
        "meta": {
          "profile": [
            "http://hl7.eu/fhir/laboratory/StructureDefinition/DiagnosticReport-eu-lab"
          ]
        },
        "identifier": [
          {
            "assigner": {
              "display": "HL7 Europe"
            },
            "system": "urn:oid:2.16.840.1.113883.2.51.999",
            "value": "6577ec7d-22a8-4e70-b821-0434ba0f2d85"
          }
        ],
        "extension": [
          {
            "url": "http://hl7.org/fhir/5.0/StructureDefinition/extension-DiagnosticReport.composition",
            "valueReference": {
              "reference": "urn:uuid:269e92ec-0ac0-4967-bf06-cb5674188ab2"
            }
          }
        ],
        "category": [
          {
            "coding": [
              {
                "code": "26436-6",
                "system": "http://loinc.org",
                "display": "Laboratory studies (set)"
              }
            ]
          }
        ],
        "specimen": [
          {
            "reference": "urn:uuid:c705f498-f1d2-4464-be55-4bb3d8ce3b9c"
          },
          {
            "reference": "urn:uuid:41de800d-3909-408d-90e0-cd933283136f"
          }
        ],
        "result": [
          {
            "reference": "urn:uuid:1cfcf2dd-b072-4696-af43-34e9deacbf94"
          },
          {
            "reference": "urn:uuid:3e483cfd-c5ee-405a-8d8f-f06842c16b41"
          },
          {
            "reference": "urn:uuid:47d5aeca-de0b-423e-9316-9b266e7be034"
          },
          {
            "reference": "urn:uuid:f4879b1f-4707-46d7-a9ab-99f83a946c72"
          },
          {
            "reference": "urn:uuid:fe400004-5991-432e-9e47-a9959c0e32cb"
          },
          {
            "reference": "urn:uuid:8bdba569-11b0-4a0e-bf8e-2e3f30ca7964"
          },
          {
            "reference": "urn:uuid:2b34d33d-419d-45af-b65d-a9c7d19fc24f"
          },
          {
            "reference": "urn:uuid:f89db6b9-9b78-4c75-937e-4bf082e50ac8"
          },
          {
            "reference": "urn:uuid:e978b232-fe4c-429c-a50e-7269a03e83d5"
          },
          {
            "reference": "urn:uuid:53e47ee2-50e5-47b0-8ae0-cc2f1a63fb20"
          },
          {
            "reference": "urn:uuid:a8b08143-3583-416d-8bdd-f1e858753146"
          },
          {
            "reference": "urn:uuid:d453629c-6bd9-4d92-9640-6438430c000f"
          },
          {
            "reference": "urn:uuid:a825d17d-8b1d-4b03-8766-ee6054fccc37"
          }
        ],
        "status": "registered",
        "code": {
          "coding": [
            {
              "code": "11502-2",
              "system": "http://loinc.org",
              "display": "Laboratory report"
            }
          ]
        },
        "subject": {
          "reference": "urn:uuid:1ba7addb-a576-46f1-9deb-88ae37544d0e",
          "display": "Vincenza Porzio"
        }
      }
    },
    {
      "fullUrl": "urn:uuid:1ba7addb-a576-46f1-9deb-88ae37544d0e",
      "resource": {
        "resourceType": "Patient",
        "id": "1ba7addb-a576-46f1-9deb-88ae37544d0e",
        "meta": {
          "security": [
            {
              "system": "http://terminology.hl7.org/CodeSystem/v3-ActReason",
              "code": "HTEST"
            },
            {
              "system": "http://terminology.hl7.org/CodeSystem/v3-ActReason",
              "code": "TRAIN"
            }
          ],
          "tag": [
            {
              "system": "https://synderai.net/fhir/CodeSystem/tags",
              "code": "synthetic",
              "display": "SYNDERAI Synthetic data"
            }
          ],
          "profile": [
            "http://hl7.eu/fhir/base/StructureDefinition/patient-eu-core"
          ]
        },
        "identifier": [
          {
            "type": {
              "coding": [
                {
                  "code": "PT",
                  "system": "http://terminology.hl7.org/CodeSystem/v2-0203"
                }
              ]
            },
            "system": "http://ec.europa.eu/identifier/eci",
            "value": "9988-341158-1"
          },
          {
            "type": {
              "coding": [
                {
                  "code": "MR",
                  "system": "http://terminology.hl7.org/CodeSystem/v2-0203"
                }
              ]
            },
            "system": "http://local.setting.eu/identifier",
            "value": "559a1acd-87c3-5b56-0345-4eaff6c5aa0a"
          }
        ],
        "name": [
          {
            "family": "Porzio"
          },
          {
            "given": [
              "Vincenza"
            ]
          },
          {
            "text": "Vincenza Porzio"
          }
        ],
        "address": [
          {
            "line": [
              "Piazza Allegra, 720"
            ],
            "use": "home",
            "type": "physical",
            "postalCode": "36040",
            "city": "Grumolo Pedemonte",
            "country": "Italy"
          }
        ],
        "telecom": [
          {
            "system": "phone",
            "value": "041007473"
          }
        ],
        "extension": [
          {
            "url": "http://hl7.org/fhir/StructureDefinition/patient-nationality",
            "valueCodeableConcept": {
              "coding": [
                {
                  "code": "IT",
                  "system": "http://hl7.org/fhir/ValueSet/country"
                }
              ]
            }
          }
        ],
        "text": {
          "status": "generated",
          "div": "<div xmlns=\"http://www.w3.org/1999/xhtml\"><table class=\"hl7__ips\"><tr><td>Vincenza Porzio</td><td>female</td><td>13-Sep-1965</td></tr></table></div>"
        },
        "gender": "female",
        "birthDate": "1965-09-13"
      }
    },
    {
      "fullUrl": "urn:uuid:de35cd69-1853-45a7-8cf4-d0e4ec87eb14",
      "resource": {
        "resourceType": "ServiceRequest",
        "id": "de35cd69-1853-45a7-8cf4-d0e4ec87eb14",
        "meta": {
          "profile": [
            "http://hl7.eu/fhir/laboratory/StructureDefinition/ServiceRequest-eu-lab"
          ]
        },
        "identifier": [
          {
            "system": "http://example.org",
            "value": "e4561cb7-650f-478e-a428-eac704ee32d6"
          }
        ],
        "specimen": [
          {
            "reference": "urn:uuid:c705f498-f1d2-4464-be55-4bb3d8ce3b9c"
          },
          {
            "reference": "urn:uuid:41de800d-3909-408d-90e0-cd933283136f"
          }
        ],
        "reasonCode": [
          {
            "coding": [
              {
                "code": "40055000",
                "system": "http://snomed.info/sct",
                "display": "Chronic sinusitis"
              }
            ]
          },
          {
            "coding": [
              {
                "code": "15777000",
                "system": "http://snomed.info/sct",
                "display": "Prediabetes"
              }
            ]
          },
          {
            "coding": [
              {
                "code": "239873007",
                "system": "http://snomed.info/sct",
                "display": "Osteoarthritis of knee"
              }
            ]
          },
          {
            "coding": [
              {
                "code": "6525002",
                "system": "http://snomed.info/sct",
                "display": "Dependent drug abuse"
              }
            ]
          },
          {
            "coding": [
              {
                "code": "196416002",
                "system": "http://snomed.info/sct",
                "display": "Impacted molars"
              }
            ]
          },
          {
            "coding": [
              {
                "code": "124171000119105",
                "system": "http://snomed.info/sct",
                "display": "Chronic intractable migraine without aura"
              }
            ]
          }
        ],
        "status": "active",
        "intent": "order",
        "code": {
          "coding": [
            {
              "code": "108252007",
              "system": "http://snomed.info/sct",
              "display": "Laboratory procedure"
            }
          ]
        },
        "subject": {
          "reference": "urn:uuid:1ba7addb-a576-46f1-9deb-88ae37544d0e",
          "display": "Vincenza Porzio"
        },
        "requester": {
          "reference": "urn:uuid:f30728b1-5ab2-44cd-9093-7c0d6290f6ec"
        }
      }
    },
    {
      "fullUrl": "urn:uuid:f30728b1-5ab2-44cd-9093-7c0d6290f6ec",
      "resource": {
        "resourceType": "PractitionerRole",
        "id": "f30728b1-5ab2-44cd-9093-7c0d6290f6ec",
        "meta": {
          "profile": [
            "http://hl7.eu/fhir/base/StructureDefinition/practitionerRole-eu"
          ]
        },
        "text": {
          "status": "generated",
          "div": "<div xmlns=\"http://www.w3.org/1999/xhtml\">Provider Role Id: f30728b1-5ab2-44cd-9093-7c0d6290f6ec</div>"
        },
        "organization": {
          "reference": "urn:uuid:6ba18c98-d4d3-472c-adb8-a79f150df848"
        }
      }
    },
    {
      "fullUrl": "urn:uuid:6ba18c98-d4d3-472c-adb8-a79f150df848",
      "resource": {
        "resourceType": "Organization",
        "id": "6ba18c98-d4d3-472c-adb8-a79f150df848",
        "meta": {
          "profile": [
            "http://hl7.eu/fhir/base/StructureDefinition/organization-eu"
          ]
        },
        "identifier": [
          {
            "assigner": {
              "display": "HL7 Europe"
            },
            "system": "urn:oid:2.16.840.1.113883.2.51.999",
            "value": "a2a371b3-c976-4ab8-b355-1df98dd8f02c"
          }
        ],
        "address": [
          {
            "country": "Italy"
          }
        ],
        "text": {
          "status": "generated",
          "div": "<div xmlns=\"http://www.w3.org/1999/xhtml\">Provider Organization: Villa Margherita</div>"
        },
        "name": "Villa Margherita"
      }
    },
    {
      "fullUrl": "urn:uuid:c705f498-f1d2-4464-be55-4bb3d8ce3b9c",
      "resource": {
        "resourceType": "Specimen",
        "id": "c705f498-f1d2-4464-be55-4bb3d8ce3b9c",
        "meta": {
          "profile": [
            "http://hl7.eu/fhir/laboratory/StructureDefinition/Specimen-eu-lab"
          ]
        },
        "collection": {
          "collectedDateTime": "2020-02-13"
        },
        "text": {
          "status": "generated",
          "div": "<div xmlns=\"http://www.w3.org/1999/xhtml\"><table class=\"hl7__eu__lab__report\"><tr><th>Specimen</th><th>Collection Date</th></tr><tr><td>Whole blood specimen (specimen)</td><td><span class=\"nb\">13-Feb-2020</span></td></tr></table></div>"
        },
        "type": {
          "coding": [
            {
              "code": "258580003",
              "system": "http://snomed.info/sct",
              "display": "Whole blood specimen (specimen)"
            }
          ]
        }
      }
    },
    {
      "fullUrl": "urn:uuid:41de800d-3909-408d-90e0-cd933283136f",
      "resource": {
        "resourceType": "Specimen",
        "id": "41de800d-3909-408d-90e0-cd933283136f",
        "meta": {
          "profile": [
            "http://hl7.eu/fhir/laboratory/StructureDefinition/Specimen-eu-lab"
          ]
        },
        "collection": {
          "collectedDateTime": "2020-02-13"
        },
        "text": {
          "status": "generated",
          "div": "<div xmlns=\"http://www.w3.org/1999/xhtml\"><table class=\"hl7__eu__lab__report\"><tr><th>Specimen</th><th>Collection Date</th></tr><tr><td>Acellular blood (serum or plasma) specimen</td><td><span class=\"nb\">13-Feb-2020</span></td></tr></table></div>"
        },
        "type": {
          "coding": [
            {
              "code": "122592007",
              "system": "http://snomed.info/sct",
              "display": "Acellular blood (serum or plasma) specimen"
            }
          ]
        }
      }
    },
    {
      "fullUrl": "urn:uuid:1cfcf2dd-b072-4696-af43-34e9deacbf94",
      "resource": {
        "resourceType": "Observation",
        "id": "1cfcf2dd-b072-4696-af43-34e9deacbf94",
        "meta": {
          "profile": [
            "http://hl7.eu/fhir/laboratory/StructureDefinition/Observation-resultslab-eu-lab"
          ]
        },
        "performer": [
          {
            "display": "The Central European Lab"
          }
        ],
        "category": [
          {
            "coding": [
              {
                "system": "http://terminology.hl7.org/CodeSystem/observation-category",
                "code": "laboratory"
              }
            ]
          }
        ],
        "code": {
          "coding": [
            {
              "code": "4548-4",
              "system": "http://loinc.org",
              "display": "Hemoglobin A1c/Hemoglobin.total in Blood"
            }
          ],
          "text": "Hemoglobin A1c/Hemoglobin.total in Blood"
        },
        "valueQuantity": {
          "system": "http://unitsofmeasure.org",
          "value": 6.4,
          "unit": "%",
          "code": "%"
        },
        "referenceRange": [
          {
            "low": {
              "value": 4,
              "code": "%",
              "system": "http://unitsofmeasure.org"
            }
          },
          {
            "high": {
              "value": 6,
              "code": "%",
              "system": "http://unitsofmeasure.org"
            }
          }
        ],
        "interpretation": [
          {
            "coding": [
              {
                "code": "H",
                "system": "http://terminology.hl7.org/CodeSystem/v3-ObservationInterpretation",
                "display": "High"
              }
            ]
          }
        ],
        "text": {
          "status": "generated",
          "div": "<div xmlns=\"http://www.w3.org/1999/xhtml\"><table class=\"hl7__eu__lab__report\"><tr><th>Test</th><th>13-Feb-2020</th><th>Reference&#xA0;Range</th><th>Unit</th></tr><tr><td>Hemoglobin A1c/Hemoglobin.total in Blood</td><td>6.4</td><td>4 - 6</td><td>H</td><td>%</td></tr></table></div>"
        },
        "status": "final",
        "subject": {
          "reference": "urn:uuid:1ba7addb-a576-46f1-9deb-88ae37544d0e",
          "display": "Vincenza Porzio"
        },
        "effectiveDateTime": "2020-02-13T18:51:27Z",
        "specimen": {
          "reference": "urn:uuid:c705f498-f1d2-4464-be55-4bb3d8ce3b9c"
        }
      }
    },
    {
      "fullUrl": "urn:uuid:3e483cfd-c5ee-405a-8d8f-f06842c16b41",
      "resource": {
        "resourceType": "Observation",
        "id": "3e483cfd-c5ee-405a-8d8f-f06842c16b41",
        "meta": {
          "profile": [
            "http://hl7.eu/fhir/laboratory/StructureDefinition/Observation-resultslab-eu-lab"
          ]
        },
        "performer": [
          {
            "display": "The Central European Lab"
          }
        ],
        "category": [
          {
            "coding": [
              {
                "system": "http://terminology.hl7.org/CodeSystem/observation-category",
                "code": "laboratory"
              }
            ]
          }
        ],
        "code": {
          "coding": [
            {
              "code": "2339-0",
              "system": "http://loinc.org",
              "display": "Glucose [Mass/volume] in Blood"
            }
          ],
          "text": "Glucose [Mass/volume] in Blood"
        },
        "valueQuantity": {
          "system": "http://unitsofmeasure.org",
          "value": 91.4,
          "unit": "mg/dL",
          "code": "mg/dL"
        },
        "referenceRange": [
          {
            "low": {
              "value": 70,
              "code": "mg/dL",
              "system": "http://unitsofmeasure.org"
            }
          },
          {
            "high": {
              "value": 140,
              "code": "mg/dL",
              "system": "http://unitsofmeasure.org"
            }
          }
        ],
        "text": {
          "status": "generated",
          "div": "<div xmlns=\"http://www.w3.org/1999/xhtml\"><table class=\"hl7__eu__lab__report\"><tr><th>Test</th><th>13-Feb-2020</th><th>Reference&#xA0;Range</th><th>Unit</th></tr><tr><td>Glucose [Mass/volume] in Blood</td><td>91.4</td><td>70 - 140</td><td></td><td>mg/dL</td></tr></table></div>"
        },
        "status": "final",
        "subject": {
          "reference": "urn:uuid:1ba7addb-a576-46f1-9deb-88ae37544d0e",
          "display": "Vincenza Porzio"
        },
        "effectiveDateTime": "2020-02-13T18:51:27Z",
        "specimen": {
          "reference": "urn:uuid:c705f498-f1d2-4464-be55-4bb3d8ce3b9c"
        }
      }
    },
    {
      "fullUrl": "urn:uuid:47d5aeca-de0b-423e-9316-9b266e7be034",
      "resource": {
        "resourceType": "Observation",
        "id": "47d5aeca-de0b-423e-9316-9b266e7be034",
        "meta": {
          "profile": [
            "http://hl7.eu/fhir/laboratory/StructureDefinition/Observation-resultslab-eu-lab"
          ]
        },
        "performer": [
          {
            "display": "The Central European Lab"
          }
        ],
        "category": [
          {
            "coding": [
              {
                "system": "http://terminology.hl7.org/CodeSystem/observation-category",
                "code": "laboratory"
              }
            ]
          }
        ],
        "code": {
          "coding": [
            {
              "code": "6299-2",
              "system": "http://loinc.org",
              "display": "Urea nitrogen [Mass/volume] in Blood"
            }
          ],
          "text": "Urea nitrogen [Mass/volume] in Blood"
        },
        "valueQuantity": {
          "system": "http://unitsofmeasure.org",
          "value": 8.6,
          "unit": "mg/dL",
          "code": "mg/dL"
        },
        "referenceRange": [
          {
            "low": {
              "value": 7,
              "code": "mg/dL",
              "system": "http://unitsofmeasure.org"
            }
          },
          {
            "high": {
              "value": 25,
              "code": "mg/dL",
              "system": "http://unitsofmeasure.org"
            }
          }
        ],
        "text": {
          "status": "generated",
          "div": "<div xmlns=\"http://www.w3.org/1999/xhtml\"><table class=\"hl7__eu__lab__report\"><tr><th>Test</th><th>13-Feb-2020</th><th>Reference&#xA0;Range</th><th>Unit</th></tr><tr><td>Urea nitrogen [Mass/volume] in Blood</td><td>8.6</td><td>7 - 25</td><td></td><td>mg/dL</td></tr></table></div>"
        },
        "status": "final",
        "subject": {
          "reference": "urn:uuid:1ba7addb-a576-46f1-9deb-88ae37544d0e",
          "display": "Vincenza Porzio"
        },
        "effectiveDateTime": "2020-02-13T18:51:27Z",
        "specimen": {
          "reference": "urn:uuid:c705f498-f1d2-4464-be55-4bb3d8ce3b9c"
        }
      }
    },
    {
      "fullUrl": "urn:uuid:f4879b1f-4707-46d7-a9ab-99f83a946c72",
      "resource": {
        "resourceType": "Observation",
        "id": "f4879b1f-4707-46d7-a9ab-99f83a946c72",
        "meta": {
          "profile": [
            "http://hl7.eu/fhir/laboratory/StructureDefinition/Observation-resultslab-eu-lab"
          ]
        },
        "performer": [
          {
            "display": "The Central European Lab"
          }
        ],
        "category": [
          {
            "coding": [
              {
                "system": "http://terminology.hl7.org/CodeSystem/observation-category",
                "code": "laboratory"
              }
            ]
          }
        ],
        "code": {
          "coding": [
            {
              "code": "38483-4",
              "system": "http://loinc.org",
              "display": "Creatinine [Mass/volume] in Blood"
            }
          ],
          "text": "Creatinine [Mass/volume] in Blood"
        },
        "valueQuantity": {
          "system": "http://unitsofmeasure.org",
          "value": 0.8,
          "unit": "mg/dL",
          "code": "mg/dL"
        },
        "referenceRange": [
          {
            "low": {
              "value": 0.6,
              "code": "mg/dL",
              "system": "http://unitsofmeasure.org"
            }
          },
          {
            "high": {
              "value": 1.1,
              "code": "mg/dL",
              "system": "http://unitsofmeasure.org"
            }
          }
        ],
        "text": {
          "status": "generated",
          "div": "<div xmlns=\"http://www.w3.org/1999/xhtml\"><table class=\"hl7__eu__lab__report\"><tr><th>Test</th><th>13-Feb-2020</th><th>Reference&#xA0;Range</th><th>Unit</th></tr><tr><td>Creatinine [Mass/volume] in Blood</td><td>0.8</td><td>0.6 - 1.1</td><td></td><td>mg/dL</td></tr></table></div>"
        },
        "status": "final",
        "subject": {
          "reference": "urn:uuid:1ba7addb-a576-46f1-9deb-88ae37544d0e",
          "display": "Vincenza Porzio"
        },
        "effectiveDateTime": "2020-02-13T18:51:27Z",
        "specimen": {
          "reference": "urn:uuid:c705f498-f1d2-4464-be55-4bb3d8ce3b9c"
        }
      }
    },
    {
      "fullUrl": "urn:uuid:fe400004-5991-432e-9e47-a9959c0e32cb",
      "resource": {
        "resourceType": "Observation",
        "id": "fe400004-5991-432e-9e47-a9959c0e32cb",
        "meta": {
          "profile": [
            "http://hl7.eu/fhir/laboratory/StructureDefinition/Observation-resultslab-eu-lab"
          ]
        },
        "performer": [
          {
            "display": "The Central European Lab"
          }
        ],
        "category": [
          {
            "coding": [
              {
                "system": "http://terminology.hl7.org/CodeSystem/observation-category",
                "code": "laboratory"
              }
            ]
          }
        ],
        "code": {
          "coding": [
            {
              "code": "49765-1",
              "system": "http://loinc.org",
              "display": "Calcium [Mass/volume] in Blood"
            }
          ],
          "text": "Calcium [Mass/volume] in Blood"
        },
        "valueQuantity": {
          "system": "http://unitsofmeasure.org",
          "value": 8.8,
          "unit": "mg/dL",
          "code": "mg/dL"
        },
        "referenceRange": [
          {
            "low": {
              "value": 8.5,
              "code": "mg/dL",
              "system": "http://unitsofmeasure.org"
            }
          },
          {
            "high": {
              "value": 10.4,
              "code": "mg/dL",
              "system": "http://unitsofmeasure.org"
            }
          }
        ],
        "text": {
          "status": "generated",
          "div": "<div xmlns=\"http://www.w3.org/1999/xhtml\"><table class=\"hl7__eu__lab__report\"><tr><th>Test</th><th>13-Feb-2020</th><th>Reference&#xA0;Range</th><th>Unit</th></tr><tr><td>Calcium [Mass/volume] in Blood</td><td>8.8</td><td>8.5 - 10.4</td><td></td><td>mg/dL</td></tr></table></div>"
        },
        "status": "final",
        "subject": {
          "reference": "urn:uuid:1ba7addb-a576-46f1-9deb-88ae37544d0e",
          "display": "Vincenza Porzio"
        },
        "effectiveDateTime": "2020-02-13T18:51:27Z",
        "specimen": {
          "reference": "urn:uuid:c705f498-f1d2-4464-be55-4bb3d8ce3b9c"
        }
      }
    },
    {
      "fullUrl": "urn:uuid:8bdba569-11b0-4a0e-bf8e-2e3f30ca7964",
      "resource": {
        "resourceType": "Observation",
        "id": "8bdba569-11b0-4a0e-bf8e-2e3f30ca7964",
        "meta": {
          "profile": [
            "http://hl7.eu/fhir/laboratory/StructureDefinition/Observation-resultslab-eu-lab"
          ]
        },
        "performer": [
          {
            "display": "The Central European Lab"
          }
        ],
        "category": [
          {
            "coding": [
              {
                "system": "http://terminology.hl7.org/CodeSystem/observation-category",
                "code": "laboratory"
              }
            ]
          }
        ],
        "code": {
          "coding": [
            {
              "code": "2947-0",
              "system": "http://loinc.org",
              "display": "Sodium [Moles/volume] in Blood"
            }
          ],
          "text": "Sodium [Moles/volume] in Blood"
        },
        "valueQuantity": {
          "system": "http://unitsofmeasure.org",
          "value": 143.8,
          "unit": "mmol/L",
          "code": "mmol/L"
        },
        "referenceRange": [
          {
            "low": {
              "value": 135,
              "code": "mmol/L",
              "system": "http://unitsofmeasure.org"
            }
          },
          {
            "high": {
              "value": 145,
              "code": "mmol/L",
              "system": "http://unitsofmeasure.org"
            }
          }
        ],
        "text": {
          "status": "generated",
          "div": "<div xmlns=\"http://www.w3.org/1999/xhtml\"><table class=\"hl7__eu__lab__report\"><tr><th>Test</th><th>13-Feb-2020</th><th>Reference&#xA0;Range</th><th>Unit</th></tr><tr><td>Sodium [Moles/volume] in Blood</td><td>143.8</td><td>135 - 145</td><td></td><td>mmol/L</td></tr></table></div>"
        },
        "status": "final",
        "subject": {
          "reference": "urn:uuid:1ba7addb-a576-46f1-9deb-88ae37544d0e",
          "display": "Vincenza Porzio"
        },
        "effectiveDateTime": "2020-02-13T18:51:27Z",
        "specimen": {
          "reference": "urn:uuid:c705f498-f1d2-4464-be55-4bb3d8ce3b9c"
        }
      }
    },
    {
      "fullUrl": "urn:uuid:2b34d33d-419d-45af-b65d-a9c7d19fc24f",
      "resource": {
        "resourceType": "Observation",
        "id": "2b34d33d-419d-45af-b65d-a9c7d19fc24f",
        "meta": {
          "profile": [
            "http://hl7.eu/fhir/laboratory/StructureDefinition/Observation-resultslab-eu-lab"
          ]
        },
        "performer": [
          {
            "display": "The Central European Lab"
          }
        ],
        "category": [
          {
            "coding": [
              {
                "system": "http://terminology.hl7.org/CodeSystem/observation-category",
                "code": "laboratory"
              }
            ]
          }
        ],
        "code": {
          "coding": [
            {
              "code": "6298-4",
              "system": "http://loinc.org",
              "display": "Potassium [Moles/volume] in Blood"
            }
          ],
          "text": "Potassium [Moles/volume] in Blood"
        },
        "valueQuantity": {
          "system": "http://unitsofmeasure.org",
          "value": 4.3,
          "unit": "mmol/L",
          "code": "mmol/L"
        },
        "referenceRange": [
          {
            "low": {
              "value": 3.5,
              "code": "mmol/L",
              "system": "http://unitsofmeasure.org"
            }
          },
          {
            "high": {
              "value": 5.1,
              "code": "mmol/L",
              "system": "http://unitsofmeasure.org"
            }
          }
        ],
        "text": {
          "status": "generated",
          "div": "<div xmlns=\"http://www.w3.org/1999/xhtml\"><table class=\"hl7__eu__lab__report\"><tr><th>Test</th><th>13-Feb-2020</th><th>Reference&#xA0;Range</th><th>Unit</th></tr><tr><td>Potassium [Moles/volume] in Blood</td><td>4.3</td><td>3.5 - 5.1</td><td></td><td>mmol/L</td></tr></table></div>"
        },
        "status": "final",
        "subject": {
          "reference": "urn:uuid:1ba7addb-a576-46f1-9deb-88ae37544d0e",
          "display": "Vincenza Porzio"
        },
        "effectiveDateTime": "2020-02-13T18:51:27Z",
        "specimen": {
          "reference": "urn:uuid:c705f498-f1d2-4464-be55-4bb3d8ce3b9c"
        }
      }
    },
    {
      "fullUrl": "urn:uuid:f89db6b9-9b78-4c75-937e-4bf082e50ac8",
      "resource": {
        "resourceType": "Observation",
        "id": "f89db6b9-9b78-4c75-937e-4bf082e50ac8",
        "meta": {
          "profile": [
            "http://hl7.eu/fhir/laboratory/StructureDefinition/Observation-resultslab-eu-lab"
          ]
        },
        "performer": [
          {
            "display": "The Central European Lab"
          }
        ],
        "category": [
          {
            "coding": [
              {
                "system": "http://terminology.hl7.org/CodeSystem/observation-category",
                "code": "laboratory"
              }
            ]
          }
        ],
        "code": {
          "coding": [
            {
              "code": "2069-3",
              "system": "http://loinc.org",
              "display": "Chloride [Moles/volume] in Blood"
            }
          ],
          "text": "Chloride [Moles/volume] in Blood"
        },
        "valueQuantity": {
          "system": "http://unitsofmeasure.org",
          "value": 110.9,
          "unit": "mmol/L",
          "code": "mmol/L"
        },
        "referenceRange": [
          {
            "low": {
              "value": 98,
              "code": "mmol/L",
              "system": "http://unitsofmeasure.org"
            }
          },
          {
            "high": {
              "value": 108,
              "code": "mmol/L",
              "system": "http://unitsofmeasure.org"
            }
          }
        ],
        "interpretation": [
          {
            "coding": [
              {
                "code": "H",
                "system": "http://terminology.hl7.org/CodeSystem/v3-ObservationInterpretation",
                "display": "High"
              }
            ]
          }
        ],
        "text": {
          "status": "generated",
          "div": "<div xmlns=\"http://www.w3.org/1999/xhtml\"><table class=\"hl7__eu__lab__report\"><tr><th>Test</th><th>13-Feb-2020</th><th>Reference&#xA0;Range</th><th>Unit</th></tr><tr><td>Chloride [Moles/volume] in Blood</td><td>110.9</td><td>98 - 108</td><td>H</td><td>mmol/L</td></tr></table></div>"
        },
        "status": "final",
        "subject": {
          "reference": "urn:uuid:1ba7addb-a576-46f1-9deb-88ae37544d0e",
          "display": "Vincenza Porzio"
        },
        "effectiveDateTime": "2020-02-13T18:51:27Z",
        "specimen": {
          "reference": "urn:uuid:c705f498-f1d2-4464-be55-4bb3d8ce3b9c"
        }
      }
    },
    {
      "fullUrl": "urn:uuid:e978b232-fe4c-429c-a50e-7269a03e83d5",
      "resource": {
        "resourceType": "Observation",
        "id": "e978b232-fe4c-429c-a50e-7269a03e83d5",
        "meta": {
          "profile": [
            "http://hl7.eu/fhir/laboratory/StructureDefinition/Observation-resultslab-eu-lab"
          ]
        },
        "performer": [
          {
            "display": "The Central European Lab"
          }
        ],
        "category": [
          {
            "coding": [
              {
                "system": "http://terminology.hl7.org/CodeSystem/observation-category",
                "code": "laboratory"
              }
            ]
          }
        ],
        "code": {
          "coding": [
            {
              "code": "20565-8",
              "system": "http://loinc.org",
              "display": "Carbon dioxide, total [Moles/volume] in Blood"
            }
          ],
          "text": "Carbon dioxide, total [Moles/volume] in Blood"
        },
        "valueQuantity": {
          "system": "http://unitsofmeasure.org",
          "value": 20.6,
          "unit": "mmol/L",
          "code": "mmol/L"
        },
        "referenceRange": [
          {
            "low": {
              "value": 22,
              "code": "mmol/L",
              "system": "http://unitsofmeasure.org"
            }
          },
          {
            "high": {
              "value": 29,
              "code": "mmol/L",
              "system": "http://unitsofmeasure.org"
            }
          }
        ],
        "interpretation": [
          {
            "coding": [
              {
                "code": "L",
                "system": "http://terminology.hl7.org/CodeSystem/v3-ObservationInterpretation",
                "display": "Low"
              }
            ]
          }
        ],
        "text": {
          "status": "generated",
          "div": "<div xmlns=\"http://www.w3.org/1999/xhtml\"><table class=\"hl7__eu__lab__report\"><tr><th>Test</th><th>13-Feb-2020</th><th>Reference&#xA0;Range</th><th>Unit</th></tr><tr><td>Carbon dioxide, total [Moles/volume] in Blood</td><td>20.6</td><td>22 - 29</td><td>L</td><td>mmol/L</td></tr></table></div>"
        },
        "status": "final",
        "subject": {
          "reference": "urn:uuid:1ba7addb-a576-46f1-9deb-88ae37544d0e",
          "display": "Vincenza Porzio"
        },
        "effectiveDateTime": "2020-02-13T18:51:27Z",
        "specimen": {
          "reference": "urn:uuid:c705f498-f1d2-4464-be55-4bb3d8ce3b9c"
        }
      }
    },
    {
      "fullUrl": "urn:uuid:53e47ee2-50e5-47b0-8ae0-cc2f1a63fb20",
      "resource": {
        "resourceType": "Observation",
        "id": "53e47ee2-50e5-47b0-8ae0-cc2f1a63fb20",
        "meta": {
          "profile": [
            "http://hl7.eu/fhir/laboratory/StructureDefinition/Observation-resultslab-eu-lab"
          ]
        },
        "performer": [
          {
            "display": "The Central European Lab"
          }
        ],
        "category": [
          {
            "coding": [
              {
                "system": "http://terminology.hl7.org/CodeSystem/observation-category",
                "code": "laboratory"
              }
            ]
          }
        ],
        "code": {
          "coding": [
            {
              "code": "2093-3",
              "system": "http://loinc.org",
              "display": "Cholesterol [Mass/volume] in Serum or Plasma"
            }
          ],
          "text": "Cholesterol [Mass/volume] in Serum or Plasma"
        },
        "valueQuantity": {
          "system": "http://unitsofmeasure.org",
          "value": 147.4,
          "unit": "mg/dL",
          "code": "mg/dL"
        },
        "referenceRange": [
          {
            "low": {
              "value": 125,
              "code": "mg/dL",
              "system": "http://unitsofmeasure.org"
            }
          },
          {
            "high": {
              "value": 200,
              "code": "mg/dL",
              "system": "http://unitsofmeasure.org"
            }
          }
        ],
        "text": {
          "status": "generated",
          "div": "<div xmlns=\"http://www.w3.org/1999/xhtml\"><table class=\"hl7__eu__lab__report\"><tr><th>Test</th><th>13-Feb-2020</th><th>Reference&#xA0;Range</th><th>Unit</th></tr><tr><td>Cholesterol [Mass/volume] in Serum or Plasma</td><td>147.4</td><td>125 - 200</td><td></td><td>mg/dL</td></tr></table></div>"
        },
        "status": "final",
        "subject": {
          "reference": "urn:uuid:1ba7addb-a576-46f1-9deb-88ae37544d0e",
          "display": "Vincenza Porzio"
        },
        "effectiveDateTime": "2020-02-13T18:51:27Z",
        "specimen": {
          "reference": "urn:uuid:41de800d-3909-408d-90e0-cd933283136f"
        }
      }
    },
    {
      "fullUrl": "urn:uuid:a8b08143-3583-416d-8bdd-f1e858753146",
      "resource": {
        "resourceType": "Observation",
        "id": "a8b08143-3583-416d-8bdd-f1e858753146",
        "meta": {
          "profile": [
            "http://hl7.eu/fhir/laboratory/StructureDefinition/Observation-resultslab-eu-lab"
          ]
        },
        "performer": [
          {
            "display": "The Central European Lab"
          }
        ],
        "category": [
          {
            "coding": [
              {
                "system": "http://terminology.hl7.org/CodeSystem/observation-category",
                "code": "laboratory"
              }
            ]
          }
        ],
        "code": {
          "coding": [
            {
              "code": "2571-8",
              "system": "http://loinc.org",
              "display": "Triglyceride [Mass/volume] in Serum or Plasma"
            }
          ],
          "text": "Triglyceride [Mass/volume] in Serum or Plasma"
        },
        "valueQuantity": {
          "system": "http://unitsofmeasure.org",
          "value": 141.7,
          "unit": "mg/dL",
          "code": "mg/dL"
        },
        "referenceRange": [
          {
            "low": {
              "value": 35,
              "code": "mg/dL",
              "system": "http://unitsofmeasure.org"
            }
          },
          {
            "high": {
              "value": 150,
              "code": "mg/dL",
              "system": "http://unitsofmeasure.org"
            }
          }
        ],
        "text": {
          "status": "generated",
          "div": "<div xmlns=\"http://www.w3.org/1999/xhtml\"><table class=\"hl7__eu__lab__report\"><tr><th>Test</th><th>13-Feb-2020</th><th>Reference&#xA0;Range</th><th>Unit</th></tr><tr><td>Triglyceride [Mass/volume] in Serum or Plasma</td><td>141.7</td><td>35 - 150</td><td></td><td>mg/dL</td></tr></table></div>"
        },
        "status": "final",
        "subject": {
          "reference": "urn:uuid:1ba7addb-a576-46f1-9deb-88ae37544d0e",
          "display": "Vincenza Porzio"
        },
        "effectiveDateTime": "2020-02-13T18:51:27Z",
        "specimen": {
          "reference": "urn:uuid:41de800d-3909-408d-90e0-cd933283136f"
        }
      }
    },
    {
      "fullUrl": "urn:uuid:d453629c-6bd9-4d92-9640-6438430c000f",
      "resource": {
        "resourceType": "Observation",
        "id": "d453629c-6bd9-4d92-9640-6438430c000f",
        "meta": {
          "profile": [
            "http://hl7.eu/fhir/laboratory/StructureDefinition/Observation-resultslab-eu-lab"
          ]
        },
        "performer": [
          {
            "display": "The Central European Lab"
          }
        ],
        "category": [
          {
            "coding": [
              {
                "system": "http://terminology.hl7.org/CodeSystem/observation-category",
                "code": "laboratory"
              }
            ]
          }
        ],
        "code": {
          "coding": [
            {
              "code": "18262-6",
              "system": "http://loinc.org",
              "display": "Cholesterol in LDL [Mass/volume] in Serum or Plasma by Direct assay"
            }
          ],
          "text": "Cholesterol in LDL [Mass/volume] in Serum or Plasma by Direct assay"
        },
        "valueQuantity": {
          "system": "http://unitsofmeasure.org",
          "value": 66.6,
          "unit": "mg/dL",
          "code": "mg/dL"
        },
        "referenceRange": [
          {
            "low": {
              "value": 0,
              "code": "mg/dL",
              "system": "http://unitsofmeasure.org"
            }
          },
          {
            "high": {
              "value": 130,
              "code": "mg/dL",
              "system": "http://unitsofmeasure.org"
            }
          }
        ],
        "text": {
          "status": "generated",
          "div": "<div xmlns=\"http://www.w3.org/1999/xhtml\"><table class=\"hl7__eu__lab__report\"><tr><th>Test</th><th>13-Feb-2020</th><th>Reference&#xA0;Range</th><th>Unit</th></tr><tr><td>Cholesterol in LDL [Mass/volume] in Serum or Plasma by Direct assay</td><td>66.6</td><td>0 - 130</td><td></td><td>mg/dL</td></tr></table></div>"
        },
        "status": "final",
        "subject": {
          "reference": "urn:uuid:1ba7addb-a576-46f1-9deb-88ae37544d0e",
          "display": "Vincenza Porzio"
        },
        "effectiveDateTime": "2020-02-13T18:51:27Z",
        "specimen": {
          "reference": "urn:uuid:41de800d-3909-408d-90e0-cd933283136f"
        }
      }
    },
    {
      "fullUrl": "urn:uuid:a825d17d-8b1d-4b03-8766-ee6054fccc37",
      "resource": {
        "resourceType": "Observation",
        "id": "a825d17d-8b1d-4b03-8766-ee6054fccc37",
        "meta": {
          "profile": [
            "http://hl7.eu/fhir/laboratory/StructureDefinition/Observation-resultslab-eu-lab"
          ]
        },
        "performer": [
          {
            "display": "The Central European Lab"
          }
        ],
        "category": [
          {
            "coding": [
              {
                "system": "http://terminology.hl7.org/CodeSystem/observation-category",
                "code": "laboratory"
              }
            ]
          }
        ],
        "code": {
          "coding": [
            {
              "code": "2085-9",
              "system": "http://loinc.org",
              "display": "Cholesterol in HDL [Mass/volume] in Serum or Plasma"
            }
          ],
          "text": "Cholesterol in HDL [Mass/volume] in Serum or Plasma"
        },
        "valueQuantity": {
          "system": "http://unitsofmeasure.org",
          "value": 52.4,
          "unit": "mg/dL",
          "code": "mg/dL"
        },
        "referenceRange": [
          {
            "low": {
              "value": 50,
              "code": "mg/dL",
              "system": "http://unitsofmeasure.org"
            }
          },
          {
            "high": {
              "value": 100,
              "code": "mg/dL",
              "system": "http://unitsofmeasure.org"
            }
          }
        ],
        "text": {
          "status": "generated",
          "div": "<div xmlns=\"http://www.w3.org/1999/xhtml\"><table class=\"hl7__eu__lab__report\"><tr><th>Test</th><th>13-Feb-2020</th><th>Reference&#xA0;Range</th><th>Unit</th></tr><tr><td>Cholesterol in HDL [Mass/volume] in Serum or Plasma</td><td>52.4</td><td>50 - 100</td><td></td><td>mg/dL</td></tr></table></div>"
        },
        "status": "final",
        "subject": {
          "reference": "urn:uuid:1ba7addb-a576-46f1-9deb-88ae37544d0e",
          "display": "Vincenza Porzio"
        },
        "effectiveDateTime": "2020-02-13T18:51:27Z",
        "specimen": {
          "reference": "urn:uuid:41de800d-3909-408d-90e0-cd933283136f"
        }
      }
    },
    {
      "fullUrl": "urn:uuid:6f8f83be-bba2-4e45-b022-47813533c6c6",
      "resource": {
        "resourceType": "Device",
        "id": "6f8f83be-bba2-4e45-b022-47813533c6c6",
        "deviceName": [
          {
            "name": "SYNDERAI Synthetic Generator",
            "type": "manufacturer-name"
          }
        ],
        "version": [
          {
            "value": "5.0"
          }
        ],
        "text": {
          "status": "generated",
          "div": "<div xmlns=\"http://www.w3.org/1999/xhtml\">SYNDERAI Synthetic Generator v5.0</div>"
        },
        "status": "active\"",
        "distinctIdentifier": "synderai-generator-50",
        "manufacturer": "SYNDERAI Project"
      }
    },
    {
      "fullUrl": "urn:uuid:51dc7eeb-1287-4f55-b678-150ce6fa7192",
      "resource": {
        "resourceType": "Provenance",
        "id": "51dc7eeb-1287-4f55-b678-150ce6fa7192",
        "target": [
          {
            "reference": "Patient/1ba7addb-a576-46f1-9deb-88ae37544d0e"
          },
          {
            "reference": "Bundle/dd133ccd-d757-410f-a5e5-e48acb077566"
          },
          {
            "reference": "Composition/5d7c382a-0a0c-4cf9-985e-901ff945d3e8"
          },
          {
            "reference": "PractitionerRole/e0cfb5e3-884a-429e-b852-7106e7454173"
          },
          {
            "reference": "Practitioner/7db0475f-45e6-4f9c-98e9-47150b22f3cf"
          },
          {
            "reference": "PractitionerRole/f30728b1-5ab2-44cd-9093-7c0d6290f6ec"
          },
          {
            "reference": "Organization/6ba18c98-d4d3-472c-adb8-a79f150df848"
          }
        ],
        "activity": {
          "text": "Synthetic Example Data Generation"
        },
        "policy": [
          "https://synderai.net/synderai-synthetic-data-policy"
        ],
        "agent": [
          {
            "type": {
              "text": "author"
            },
            "who": {
              "reference": "Device/6f8f83be-bba2-4e45-b022-47813533c6c6"
            }
          }
        ],
        "reason": [
          {
            "text": "Interoperability Testing and Training (non-clinical use)"
          }
        ],
        "text": {
          "status": "generated",
          "div": "<div xmlns=\"http://www.w3.org/1999/xhtml\">Provenance for SYNDERAI Synthetic Example Data Resource</div>"
        },
        "recorded": "2020-02-13T19:51:27Z"
      }
    },
    {
      "fullUrl": "urn:uuid:e0cfb5e3-884a-429e-b852-7106e7454173",
      "resource": {
        "resourceType": "PractitionerRole",
        "id": "e0cfb5e3-884a-429e-b852-7106e7454173",
        "meta": {
          "profile": [
            "http://hl7.eu/fhir/base/StructureDefinition/practitionerRole-eu"
          ]
        },
        "text": {
          "status": "generated",
          "div": "<div xmlns=\"http://www.w3.org/1999/xhtml\">Laboratory Role Id: e0cfb5e3-884a-429e-b852-7106e7454173</div>"
        },
        "practitioner": {
          "reference": "urn:uuid:7db0475f-45e6-4f9c-98e9-47150b22f3cf"
        }
      }
    },
    {
      "fullUrl": "urn:uuid:7db0475f-45e6-4f9c-98e9-47150b22f3cf",
      "resource": {
        "resourceType": "Practitioner",
        "id": "7db0475f-45e6-4f9c-98e9-47150b22f3cf",
        "meta": {
          "profile": [
            "http://hl7.eu/fhir/base/StructureDefinition/practitioner-eu"
          ]
        },
        "identifier": [
          {
            "assigner": {
              "display": "HL7 Europe"
            },
            "system": "urn:oid:2.16.840.1.113883.2.51.999",
            "value": "750b0f6a-1708-4c28-99f2-3c5d535a38f7"
          }
        ],
        "name": [
          {
            "prefix": [
              "dr"
            ],
            "given": [
              "Ex"
            ],
            "family": "Ample"
          }
        ],
        "address": [
          {
            "line": [
              "Laboratoire Central Européenne",
              "Boulevard du Jardin Botanique 32"
            ],
            "postalCode": "1000",
            "city": "Brussels",
            "country": "Belgium"
          }
        ],
        "text": {
          "status": "generated",
          "div": "<div xmlns=\"http://www.w3.org/1999/xhtml\">Laboratory: Laboratoire Central Européenne, 1000 Brussels, Belgium</div>"
        }
      }
    }
  ],
  "type": "document",
  "timestamp": "2020-02-13T19:51:27Z"
}
