{
  "resourceType": "Bundle",
  "id": "4c584c1e-b1e9-4114-9728-949c7af7dc0e",
  "meta": {
    "profile": [
      "http://hl7.eu/fhir/laboratory/StructureDefinition/Bundle-eu-lab"
    ]
  },
  "identifier": {
    "assigner": {
      "display": "HL7 Europe"
    },
    "system": "urn:oid:2.16.840.1.113883.2.51.999",
    "value": "9ebfdb93-c556-47f5-8134-d3932e5757fc"
  },
  "entry": [
    {
      "fullUrl": "urn:uuid:908fea41-211c-455c-ab27-c0e11c95b70e",
      "resource": {
        "resourceType": "Composition",
        "id": "908fea41-211c-455c-ab27-c0e11c95b70e",
        "meta": {
          "profile": [
            "http://hl7.eu/fhir/laboratory/StructureDefinition/Composition-eu-lab"
          ]
        },
        "identifier": {
          "assigner": {
            "display": "HL7 Europe"
          },
          "system": "urn:oid:2.16.840.1.113883.2.51.999",
          "value": "b72366df-678d-4ccf-ba9d-ecd17d5299ab"
        },
        "author": [
          {
            "reference": "urn:uuid:3d7b542e-25f6-4fd9-8d5e-51e8bd43b20a"
          }
        ],
        "category": [
          {
            "coding": [
              {
                "code": "26436-6",
                "system": "http://loinc.org",
                "display": "Laboratory studies (set)"
              }
            ]
          }
        ],
        "type": {
          "coding": [
            {
              "code": "11502-2",
              "system": "http://loinc.org",
              "display": "Laboratory report"
            }
          ],
          "text": "Laboratory Report"
        },
        "section": [
          {
            "code": {
              "coding": [
                {
                  "code": "26436-6",
                  "system": "http://loinc.org",
                  "display": "Laboratory studies (set)"
                }
              ],
              "text": "Laboratory studies"
            },
            "section": [
              {
                "code": {
                  "coding": [
                    {
                      "code": "$18723-7",
                      "system": "http://loinc.org",
                      "display": "Hematology studies (set)"
                    }
                  ],
                  "text": "Hematology"
                },
                "entry": [
                  {
                    "reference": "urn:uuid:1a92372f-5221-47fc-892a-f4f021238378"
                  },
                  {
                    "reference": "urn:uuid:98b260d2-ed54-482b-be9a-2f9d2bff856e"
                  },
                  {
                    "reference": "urn:uuid:b9cbccae-699d-41f0-b8e0-600834ef0e3c"
                  },
                  {
                    "reference": "urn:uuid:2480fcf2-f411-49ac-b726-19d7de8cd080"
                  },
                  {
                    "reference": "urn:uuid:cf1fc109-df69-4f30-aba4-adeba11e5277"
                  },
                  {
                    "reference": "urn:uuid:77718f84-b8d9-49c3-bf86-f4cf46a81882"
                  },
                  {
                    "reference": "urn:uuid:91d07590-ce30-4d01-b21a-195a1a9654c3"
                  },
                  {
                    "reference": "urn:uuid:fe507316-ee1b-48b6-9baf-1a982c972632"
                  },
                  {
                    "reference": "urn:uuid:269a22c1-ed6c-4e24-9194-4691e30508da"
                  },
                  {
                    "reference": "urn:uuid:b84c851e-3bd6-4702-8cac-fc979c3716b3"
                  },
                  {
                    "reference": "urn:uuid:537ca0d0-9ed7-43a8-921c-07c19cd3e9c7"
                  }
                ],
                "text": {
                  "status": "generated",
                  "div": "<div xmlns=\"http://www.w3.org/1999/xhtml\"><h3>Hematology</h3><table class=\"hl7__eu__lab__report\"><thead><tr><th>Test</th><th>16-MAY-2016</th><th>Reference&#xA0;Range</th><th>Unit</th></tr></thead><tbody><tr><td>Leukocytes [#/volume] in Blood by Automated count</td><td>7.5</td><td>3.4 - 10.6</td><td>10*3/uL</td></tr><tr><td>Erythrocytes [#/volume] in Blood by Automated count</td><td><strong>3.9 L</strong></td><td>4.2 - 5.2</td><td>10*6/uL</td></tr><tr><td>Hemoglobin [Mass/volume] in Blood</td><td>15.2</td><td>12 - 16</td><td>g/dL</td></tr><tr><td>Hematocrit [Volume Fraction] of Blood by Automated count</td><td>39.1</td><td>36 - 48</td><td>%</td></tr><tr><td>MCV [Entitic volume] by Automated count</td><td>89.5</td><td>82 - 98</td><td>fL</td></tr><tr><td>MCH [Entitic mass] by Automated count</td><td>29.7</td><td>27 - 33</td><td>pg</td></tr><tr><td>MCHC [Mass/volume] by Automated count</td><td>33.8</td><td>32 - 37</td><td>g/dL</td></tr><tr><td>Erythrocyte distribution width [Entitic volume] by Automated count</td><td>44.8</td><td>36 - 46</td><td>fL</td></tr><tr><td>Platelets [#/volume] in Blood by Automated count</td><td>426.8</td><td>150 - 450</td><td>10*3/uL</td></tr><tr><td>Platelet distribution width [Entitic volume] in Blood by Automated count</td><td><strong>317.0 H</strong></td><td>11.6 - 17.4</td><td>fL</td></tr><tr><td>Platelet mean volume [Entitic volume] in Blood by Automated count</td><td>9.4</td><td>7.4 - 12</td><td>fL</td></tr></tbody></table></div>"
                },
                "title": "Hematology"
              },
              {
                "code": {
                  "coding": [
                    {
                      "code": "$18719-5",
                      "system": "http://loinc.org",
                      "display": "Chemistry studies (set)"
                    }
                  ],
                  "text": "Chemistry"
                },
                "entry": [
                  {
                    "reference": "urn:uuid:ca34f343-eec1-4af8-9b39-b3fa0253a52b"
                  },
                  {
                    "reference": "urn:uuid:d84b09c5-37e5-489a-895b-96409679c601"
                  },
                  {
                    "reference": "urn:uuid:cb374471-b2c0-48be-99cc-e6f533d691f2"
                  },
                  {
                    "reference": "urn:uuid:578a804f-4d68-4479-9219-22e0db9a11e1"
                  },
                  {
                    "reference": "urn:uuid:9f1afdbc-02c8-49aa-93f4-96c0b220b773"
                  },
                  {
                    "reference": "urn:uuid:46ab8319-34ff-46ea-b2c4-07cdba121ca4"
                  },
                  {
                    "reference": "urn:uuid:45243065-d518-4950-a404-e31ed487772c"
                  },
                  {
                    "reference": "urn:uuid:c25be5c8-8b4e-45b5-84be-ef86887df0fc"
                  },
                  {
                    "reference": "urn:uuid:375971c7-31d0-4f05-b91e-bb0cc603d9b3"
                  }
                ],
                "text": {
                  "status": "generated",
                  "div": "<div xmlns=\"http://www.w3.org/1999/xhtml\"><h3>Chemistry</h3><table class=\"hl7__eu__lab__report\"><thead><tr><th>Test</th><th>16-MAY-2016</th><th>Reference&#xA0;Range</th><th>Unit</th></tr></thead><tbody><tr><td>Glucose [Mass/volume] in Blood</td><td>86.6</td><td>70 - 140</td><td>mg/dL</td></tr><tr><td>Urea nitrogen [Mass/volume] in Blood</td><td>9.8</td><td>7 - 25</td><td>mg/dL</td></tr><tr><td>Creatinine [Mass/volume] in Blood</td><td>0.8</td><td>0.6 - 1.1</td><td>mg/dL</td></tr><tr><td>Calcium [Mass/volume] in Blood</td><td>9.1</td><td>8.6 - 10.4</td><td>mg/dL</td></tr><tr><td>Sodium [Moles/volume] in Blood</td><td>136.2</td><td>135 - 145</td><td>mmol/L</td></tr><tr><td>Potassium [Moles/volume] in Blood</td><td>5.1</td><td>3.5 - 5.1</td><td>mmol/L</td></tr><tr><td>Chloride [Moles/volume] in Blood</td><td>103.7</td><td>98 - 110</td><td>mmol/L</td></tr><tr><td>Carbon dioxide, total [Moles/volume] in Blood</td><td>23.1</td><td>22 - 29</td><td>mmol/L</td></tr><tr><td>Ketones [Presence] in Urine by Test strip</td><td>0.0</td><td>0 - 0</td><td>{presence}</td></tr></tbody></table></div>"
                },
                "title": "Chemistry"
              },
              {
                "code": {
                  "coding": [
                    {
                      "code": "$18729-4",
                      "system": "http://loinc.org",
                      "display": "Urinalysis studies (set)"
                    }
                  ],
                  "text": "Urinalysis"
                },
                "entry": [
                  {
                    "reference": "urn:uuid:043a8c1a-2d44-4611-b212-1241ad95d115"
                  },
                  {
                    "reference": "urn:uuid:45a5d96f-ddfa-48f4-aca7-7ca3f6a71729"
                  },
                  {
                    "reference": "urn:uuid:0aab24d4-f267-47a3-98d5-78009c5d929d"
                  },
                  {
                    "reference": "urn:uuid:d66ef63f-051f-4dba-91b0-c53d93832c55"
                  },
                  {
                    "reference": "urn:uuid:37930cf7-8ff1-44f5-aba9-47a88783dd85"
                  },
                  {
                    "reference": "urn:uuid:34b311ff-23b9-4066-817a-1ce776e9013e"
                  },
                  {
                    "reference": "urn:uuid:09da0ee3-c42f-4847-a8ce-f621aff8fcb1"
                  },
                  {
                    "reference": "urn:uuid:08aa5c23-b66a-4c3b-a6b0-f375857923f0"
                  }
                ],
                "text": {
                  "status": "generated",
                  "div": "<div xmlns=\"http://www.w3.org/1999/xhtml\"><h3>Urinalysis</h3><table class=\"hl7__eu__lab__report\"><thead><tr><th>Test</th><th>16-MAY-2016</th><th>Reference&#xA0;Range</th><th>Unit</th></tr></thead><tbody><tr><td>Glucose [Presence] in Urine by Test strip</td><td>0.0</td><td>0 - 0.8</td><td>{presence}</td></tr><tr><td>Bilirubin.total [Presence] in Urine by Test strip</td><td>0.0</td><td>0 - 0</td><td>{presence}</td></tr><tr><td>Specific gravity of Urine by Test strip</td><td><strong>1.0 L</strong></td><td>1.005 - 1.03</td><td>{SG}</td></tr><tr><td>pH of Urine by Test strip</td><td>6.0</td><td>4.5 - 8</td><td>[pH]</td></tr><tr><td>Protein [Presence] in Urine by Test strip</td><td>0.0</td><td>0 - 0</td><td>{presence}</td></tr><tr><td>Nitrite [Presence] in Urine by Test strip</td><td>0.0</td><td>0 - 0</td><td>{presence}</td></tr><tr><td>Hemoglobin [Presence] in Urine by Test strip</td><td>0.0</td><td>0 - 0</td><td>{presence}</td></tr><tr><td>Leukocyte esterase [Presence] in Urine by Test strip</td><td>0.0</td><td>0 - 0</td><td>{presence}</td></tr></tbody></table></div>"
                },
                "title": "Urinalysis"
              }
            ],
            "title": "Laboratory Report"
          },
          {
            "text": {
              "status": "generated",
              "div": "<div xmlns=\"http://www.w3.org/1999/xhtml\"><h3>Annotation</h3><table class=\"hl7__eu__lab__report\"><tr><th>Conclusion and Recommendations based on this report and previous findings known to us</th></tr><tr><td>Most parameters are within normal limits. There is mild erythrocytopenia (low RBC count) with normal hemoglobin and indices, suggesting possible early or compensated anemia. Platelet count is normal but platelet distribution width is elevated, which may indicate increased platelet size variability. Urine specific gravity is slightly low, possibly reflecting dilute urine. No evidence of infection, hematuria, or proteinuria. Overall, no acute pathology detected; recommend clinical correlation and follow-up if symptoms persist.</td></tr></table></div>"
            },
            "code": {
              "coding": [
                {
                  "system": "http://loinc.org",
                  "code": "48767-8",
                  "display": "Annotation comment"
                }
              ]
            },
            "title": "Annotation comment"
          }
        ],
        "status": "final",
        "subject": {
          "reference": "urn:uuid:6c03d3bc-a934-4e4a-86f8-bbd0dd1b7ea9",
          "display": "Iva Kratochvílová"
        },
        "date": "2016-05-16T23:24:23Z",
        "title": "Laboratory Report",
        "confidentiality": "N"
      }
    },
    {
      "fullUrl": "urn:uuid:f3b853c0-86a6-4320-9ba1-4bb44760de1b",
      "resource": {
        "resourceType": "DiagnosticReport",
        "id": "f3b853c0-86a6-4320-9ba1-4bb44760de1b",
        "meta": {
          "profile": [
            "http://hl7.eu/fhir/laboratory/StructureDefinition/DiagnosticReport-eu-lab"
          ]
        },
        "identifier": [
          {
            "assigner": {
              "display": "HL7 Europe"
            },
            "system": "urn:oid:2.16.840.1.113883.2.51.999",
            "value": "756dab79-5414-4424-8afe-ca348b41c299"
          }
        ],
        "extension": [
          {
            "url": "http://hl7.org/fhir/5.0/StructureDefinition/extension-DiagnosticReport.composition",
            "valueReference": {
              "reference": "urn:uuid:b72366df-678d-4ccf-ba9d-ecd17d5299ab"
            }
          }
        ],
        "category": [
          {
            "coding": [
              {
                "code": "26436-6",
                "system": "http://loinc.org",
                "display": "Laboratory studies (set)"
              }
            ]
          }
        ],
        "specimen": [
          {
            "reference": "urn:uuid:4d8a8e31-5d18-486c-8caf-3b7f641afe7f"
          },
          {
            "reference": "urn:uuid:4d8a8e31-5d18-486c-8caf-3b7f641afe7f"
          },
          {
            "reference": "urn:uuid:a4e59827-3c45-492d-a9c6-a60777a10bd3"
          }
        ],
        "result": [
          {
            "reference": "urn:uuid:ca34f343-eec1-4af8-9b39-b3fa0253a52b"
          },
          {
            "reference": "urn:uuid:d84b09c5-37e5-489a-895b-96409679c601"
          },
          {
            "reference": "urn:uuid:cb374471-b2c0-48be-99cc-e6f533d691f2"
          },
          {
            "reference": "urn:uuid:578a804f-4d68-4479-9219-22e0db9a11e1"
          },
          {
            "reference": "urn:uuid:9f1afdbc-02c8-49aa-93f4-96c0b220b773"
          },
          {
            "reference": "urn:uuid:46ab8319-34ff-46ea-b2c4-07cdba121ca4"
          },
          {
            "reference": "urn:uuid:45243065-d518-4950-a404-e31ed487772c"
          },
          {
            "reference": "urn:uuid:c25be5c8-8b4e-45b5-84be-ef86887df0fc"
          },
          {
            "reference": "urn:uuid:1a92372f-5221-47fc-892a-f4f021238378"
          },
          {
            "reference": "urn:uuid:98b260d2-ed54-482b-be9a-2f9d2bff856e"
          },
          {
            "reference": "urn:uuid:b9cbccae-699d-41f0-b8e0-600834ef0e3c"
          },
          {
            "reference": "urn:uuid:2480fcf2-f411-49ac-b726-19d7de8cd080"
          },
          {
            "reference": "urn:uuid:cf1fc109-df69-4f30-aba4-adeba11e5277"
          },
          {
            "reference": "urn:uuid:77718f84-b8d9-49c3-bf86-f4cf46a81882"
          },
          {
            "reference": "urn:uuid:91d07590-ce30-4d01-b21a-195a1a9654c3"
          },
          {
            "reference": "urn:uuid:fe507316-ee1b-48b6-9baf-1a982c972632"
          },
          {
            "reference": "urn:uuid:269a22c1-ed6c-4e24-9194-4691e30508da"
          },
          {
            "reference": "urn:uuid:b84c851e-3bd6-4702-8cac-fc979c3716b3"
          },
          {
            "reference": "urn:uuid:537ca0d0-9ed7-43a8-921c-07c19cd3e9c7"
          },
          {
            "reference": "urn:uuid:043a8c1a-2d44-4611-b212-1241ad95d115"
          },
          {
            "reference": "urn:uuid:45a5d96f-ddfa-48f4-aca7-7ca3f6a71729"
          },
          {
            "reference": "urn:uuid:375971c7-31d0-4f05-b91e-bb0cc603d9b3"
          },
          {
            "reference": "urn:uuid:0aab24d4-f267-47a3-98d5-78009c5d929d"
          },
          {
            "reference": "urn:uuid:d66ef63f-051f-4dba-91b0-c53d93832c55"
          },
          {
            "reference": "urn:uuid:37930cf7-8ff1-44f5-aba9-47a88783dd85"
          },
          {
            "reference": "urn:uuid:34b311ff-23b9-4066-817a-1ce776e9013e"
          },
          {
            "reference": "urn:uuid:09da0ee3-c42f-4847-a8ce-f621aff8fcb1"
          },
          {
            "reference": "urn:uuid:08aa5c23-b66a-4c3b-a6b0-f375857923f0"
          }
        ],
        "status": "registered",
        "code": {
          "coding": [
            {
              "code": "11502-2",
              "system": "http://loinc.org",
              "display": "Laboratory report"
            }
          ]
        },
        "subject": {
          "reference": "urn:uuid:6c03d3bc-a934-4e4a-86f8-bbd0dd1b7ea9",
          "display": "Iva Kratochvílová"
        }
      }
    },
    {
      "fullUrl": "urn:uuid:6c03d3bc-a934-4e4a-86f8-bbd0dd1b7ea9",
      "resource": {
        "resourceType": "Patient",
        "id": "6c03d3bc-a934-4e4a-86f8-bbd0dd1b7ea9",
        "meta": {
          "security": [
            {
              "system": "http://terminology.hl7.org/CodeSystem/v3-ActReason",
              "code": "HTEST"
            },
            {
              "system": "http://terminology.hl7.org/CodeSystem/v3-ActReason",
              "code": "TRAIN"
            }
          ],
          "tag": [
            {
              "system": "https://synderai.net/fhir/CodeSystem/tags",
              "code": "synthetic",
              "display": "SYNDERAI Synthetic data"
            }
          ],
          "profile": [
            "http://hl7.eu/fhir/base/StructureDefinition/patient-eu-core"
          ]
        },
        "identifier": [
          {
            "type": {
              "coding": [
                {
                  "code": "PT",
                  "system": "http://terminology.hl7.org/CodeSystem/v2-0203"
                }
              ]
            },
            "system": "http://ec.europa.eu/identifier/eci",
            "value": "4380-389488-0"
          },
          {
            "type": {
              "coding": [
                {
                  "code": "MR",
                  "system": "http://terminology.hl7.org/CodeSystem/v2-0203"
                }
              ]
            },
            "system": "http://local.setting.eu/identifier",
            "value": "f8f9ebdc-03dd-2fc0-819c-affa4ffd7f67"
          }
        ],
        "name": [
          {
            "family": "Kratochvílová"
          },
          {
            "given": [
              "Iva"
            ]
          },
          {
            "text": "Iva Kratochvílová"
          }
        ],
        "address": [
          {
            "line": [
              "Žofie Podlipské 4"
            ],
            "use": "home",
            "type": "physical",
            "postalCode": "27324",
            "city": "Postoloprty",
            "country": "Czechia"
          }
        ],
        "telecom": [
          {
            "system": "phone",
            "value": "00420 607 985 072"
          }
        ],
        "extension": [
          {
            "url": "http://hl7.org/fhir/StructureDefinition/patient-nationality",
            "valueCodeableConcept": {
              "coding": [
                {
                  "code": "CZ",
                  "system": "http://hl7.org/fhir/ValueSet/country"
                }
              ]
            }
          }
        ],
        "text": {
          "status": "generated",
          "div": "<div xmlns=\"http://www.w3.org/1999/xhtml\"><table class=\"hl7__ips\"><tr><td>Iva Kratochvílová</td><td>female</td><td>17-Sep-1964</td></tr></table></div>"
        },
        "gender": "female",
        "birthDate": "1964-09-17"
      }
    },
    {
      "fullUrl": "urn:uuid:6ca93575-48db-47db-9c9d-bfbf335e5cd2",
      "resource": {
        "resourceType": "ServiceRequest",
        "id": "6ca93575-48db-47db-9c9d-bfbf335e5cd2",
        "meta": {
          "profile": [
            "http://hl7.eu/fhir/laboratory/StructureDefinition/ServiceRequest-eu-lab"
          ]
        },
        "identifier": [
          {
            "system": "http://example.org",
            "value": "6aca82ff-c058-4fea-953f-59a00a909d02"
          }
        ],
        "specimen": [
          {
            "reference": "urn:uuid:4d8a8e31-5d18-486c-8caf-3b7f641afe7f"
          },
          {
            "reference": "urn:uuid:a4e59827-3c45-492d-a9c6-a60777a10bd3"
          }
        ],
        "reasonCode": [
          {
            "coding": [
              {
                "code": "431856006",
                "system": "http://snomed.info/sct",
                "display": "Chronic kidney disease stage 2"
              }
            ]
          },
          {
            "coding": [
              {
                "code": "431855005",
                "system": "http://snomed.info/sct",
                "display": "Chronic kidney disease stage 1"
              }
            ]
          },
          {
            "coding": [
              {
                "code": "237602007",
                "system": "http://snomed.info/sct",
                "display": "Metabolic syndrome X"
              }
            ]
          },
          {
            "coding": [
              {
                "code": "91302008",
                "system": "http://snomed.info/sct",
                "display": "Sepsis"
              }
            ]
          },
          {
            "coding": [
              {
                "code": "271737000",
                "system": "http://snomed.info/sct",
                "display": "Anemia"
              }
            ]
          },
          {
            "coding": [
              {
                "code": "15777000",
                "system": "http://snomed.info/sct",
                "display": "Prediabetes"
              }
            ]
          },
          {
            "coding": [
              {
                "code": "157141000119108",
                "system": "http://snomed.info/sct",
                "display": "Proteinuria due to type 2 diabetes mellitus"
              }
            ]
          },
          {
            "coding": [
              {
                "code": "90781000119102",
                "system": "http://snomed.info/sct",
                "display": "Microalbuminuria due to type 2 diabetes mellitus"
              }
            ]
          },
          {
            "coding": [
              {
                "code": "239872002",
                "system": "http://snomed.info/sct",
                "display": "Osteoarthritis of hip"
              }
            ]
          },
          {
            "coding": [
              {
                "code": "40055000",
                "system": "http://snomed.info/sct",
                "display": "Chronic sinusitis"
              }
            ]
          },
          {
            "coding": [
              {
                "code": "127013003",
                "system": "http://snomed.info/sct",
                "display": "Disorder of kidney due to diabetes mellitus"
              }
            ]
          },
          {
            "coding": [
              {
                "code": "59621000",
                "system": "http://snomed.info/sct",
                "display": "Essential hypertension"
              }
            ]
          }
        ],
        "status": "active",
        "intent": "order",
        "code": {
          "coding": [
            {
              "code": "108252007",
              "system": "http://snomed.info/sct",
              "display": "Laboratory procedure"
            }
          ]
        },
        "subject": {
          "reference": "urn:uuid:6c03d3bc-a934-4e4a-86f8-bbd0dd1b7ea9",
          "display": "Iva Kratochvílová"
        },
        "requester": {
          "reference": "urn:uuid:5d409c6f-152d-4cb0-82b7-eeb5c522b081"
        }
      }
    },
    {
      "fullUrl": "urn:uuid:5d409c6f-152d-4cb0-82b7-eeb5c522b081",
      "resource": {
        "resourceType": "PractitionerRole",
        "id": "5d409c6f-152d-4cb0-82b7-eeb5c522b081",
        "meta": {
          "profile": [
            "http://hl7.eu/fhir/base/StructureDefinition/practitionerRole-eu"
          ]
        },
        "text": {
          "status": "generated",
          "div": "<div xmlns=\"http://www.w3.org/1999/xhtml\">Provider Role Id: 5d409c6f-152d-4cb0-82b7-eeb5c522b081</div>"
        },
        "organization": {
          "reference": "urn:uuid:b3f6fbbc-fe26-40a4-b05a-413c2afa5ab3"
        }
      }
    },
    {
      "fullUrl": "urn:uuid:b3f6fbbc-fe26-40a4-b05a-413c2afa5ab3",
      "resource": {
        "resourceType": "Organization",
        "id": "b3f6fbbc-fe26-40a4-b05a-413c2afa5ab3",
        "meta": {
          "profile": [
            "http://hl7.eu/fhir/base/StructureDefinition/organization-eu"
          ]
        },
        "identifier": [
          {
            "assigner": {
              "display": "HL7 Europe"
            },
            "system": "urn:oid:2.16.840.1.113883.2.51.999",
            "value": "8cacb0f3-3637-4ca1-b01d-1ab6fca6adc4"
          }
        ],
        "address": [
          {
            "city": "Kadaň",
            "postalCode": "432 01",
            "country": "Czechia"
          }
        ],
        "text": {
          "status": "generated",
          "div": "<div xmlns=\"http://www.w3.org/1999/xhtml\">Provider Organization: Nemocnice s poliklinikou Kadaň</div>"
        },
        "name": "Nemocnice s poliklinikou Kadaň"
      }
    },
    {
      "fullUrl": "urn:uuid:4d8a8e31-5d18-486c-8caf-3b7f641afe7f",
      "resource": {
        "resourceType": "Specimen",
        "id": "4d8a8e31-5d18-486c-8caf-3b7f641afe7f",
        "meta": {
          "profile": [
            "http://hl7.eu/fhir/laboratory/StructureDefinition/Specimen-eu-lab"
          ]
        },
        "collection": {
          "collectedDateTime": "2016-05-16"
        },
        "text": {
          "status": "generated",
          "div": "<div xmlns=\"http://www.w3.org/1999/xhtml\"><table class=\"hl7__eu__lab__report\"><tr><th>Specimen</th><th>Collection Date</th></tr><tr><td>Whole blood specimen (specimen)</td><td><span class=\"nb\">16-May-2016</span></td></tr></table></div>"
        },
        "type": {
          "coding": [
            {
              "code": "258580003",
              "system": "http://snomed.info/sct",
              "display": "Whole blood specimen (specimen)"
            }
          ]
        }
      }
    },
    {
      "fullUrl": "urn:uuid:4d8a8e31-5d18-486c-8caf-3b7f641afe7f",
      "resource": {
        "resourceType": "Specimen",
        "id": "4d8a8e31-5d18-486c-8caf-3b7f641afe7f",
        "meta": {
          "profile": [
            "http://hl7.eu/fhir/laboratory/StructureDefinition/Specimen-eu-lab"
          ]
        },
        "collection": {
          "collectedDateTime": "2016-05-16"
        },
        "text": {
          "status": "generated",
          "div": "<div xmlns=\"http://www.w3.org/1999/xhtml\"><table class=\"hl7__eu__lab__report\"><tr><th>Specimen</th><th>Collection Date</th></tr><tr><td>Whole blood specimen (specimen)</td><td><span class=\"nb\">16-May-2016</span></td></tr></table></div>"
        },
        "type": {
          "coding": [
            {
              "code": "258580003",
              "system": "http://snomed.info/sct",
              "display": "Whole blood specimen (specimen)"
            }
          ]
        }
      }
    },
    {
      "fullUrl": "urn:uuid:a4e59827-3c45-492d-a9c6-a60777a10bd3",
      "resource": {
        "resourceType": "Specimen",
        "id": "a4e59827-3c45-492d-a9c6-a60777a10bd3",
        "meta": {
          "profile": [
            "http://hl7.eu/fhir/laboratory/StructureDefinition/Specimen-eu-lab"
          ]
        },
        "collection": {
          "collectedDateTime": "2016-05-16"
        },
        "text": {
          "status": "generated",
          "div": "<div xmlns=\"http://www.w3.org/1999/xhtml\"><table class=\"hl7__eu__lab__report\"><tr><th>Specimen</th><th>Collection Date</th></tr><tr><td>Urine specimen</td><td><span class=\"nb\">16-May-2016</span></td></tr></table></div>"
        },
        "type": {
          "coding": [
            {
              "code": "122575003",
              "system": "http://snomed.info/sct",
              "display": "Urine specimen"
            }
          ]
        }
      }
    },
    {
      "fullUrl": "urn:uuid:ca34f343-eec1-4af8-9b39-b3fa0253a52b",
      "resource": {
        "resourceType": "Observation",
        "id": "ca34f343-eec1-4af8-9b39-b3fa0253a52b",
        "meta": {
          "profile": [
            "http://hl7.eu/fhir/laboratory/StructureDefinition/Observation-resultslab-eu-lab"
          ]
        },
        "performer": [
          {
            "display": "The Central European Lab"
          }
        ],
        "category": [
          {
            "coding": [
              {
                "system": "http://terminology.hl7.org/CodeSystem/observation-category",
                "code": "laboratory"
              }
            ]
          }
        ],
        "code": {
          "coding": [
            {
              "code": "2339-0",
              "system": "http://loinc.org",
              "display": "Glucose [Mass/volume] in Blood"
            }
          ],
          "text": "Glucose [Mass/volume] in Blood"
        },
        "valueQuantity": {
          "system": "http://unitsofmeasure.org",
          "value": 86.6,
          "unit": "mg/dL",
          "code": "mg/dL"
        },
        "referenceRange": [
          {
            "low": {
              "value": 70,
              "code": "mg/dL",
              "system": "http://unitsofmeasure.org"
            }
          },
          {
            "high": {
              "value": 140,
              "code": "mg/dL",
              "system": "http://unitsofmeasure.org"
            }
          }
        ],
        "text": {
          "status": "generated",
          "div": "<div xmlns=\"http://www.w3.org/1999/xhtml\"><table class=\"hl7__eu__lab__report\"><tr><th>Test</th><th>16-May-2016</th><th>Reference&#xA0;Range</th><th>Unit</th></tr><tr><td>Glucose [Mass/volume] in Blood</td><td>86.6</td><td>70 - 140</td><td></td><td>mg/dL</td></tr></table></div>"
        },
        "status": "final",
        "subject": {
          "reference": "urn:uuid:6c03d3bc-a934-4e4a-86f8-bbd0dd1b7ea9",
          "display": "Iva Kratochvílová"
        },
        "effectiveDateTime": "2016-05-16T21:24:23Z",
        "specimen": {
          "reference": "urn:uuid:4d8a8e31-5d18-486c-8caf-3b7f641afe7f"
        }
      }
    },
    {
      "fullUrl": "urn:uuid:d84b09c5-37e5-489a-895b-96409679c601",
      "resource": {
        "resourceType": "Observation",
        "id": "d84b09c5-37e5-489a-895b-96409679c601",
        "meta": {
          "profile": [
            "http://hl7.eu/fhir/laboratory/StructureDefinition/Observation-resultslab-eu-lab"
          ]
        },
        "performer": [
          {
            "display": "The Central European Lab"
          }
        ],
        "category": [
          {
            "coding": [
              {
                "system": "http://terminology.hl7.org/CodeSystem/observation-category",
                "code": "laboratory"
              }
            ]
          }
        ],
        "code": {
          "coding": [
            {
              "code": "6299-2",
              "system": "http://loinc.org",
              "display": "Urea nitrogen [Mass/volume] in Blood"
            }
          ],
          "text": "Urea nitrogen [Mass/volume] in Blood"
        },
        "valueQuantity": {
          "system": "http://unitsofmeasure.org",
          "value": 9.8,
          "unit": "mg/dL",
          "code": "mg/dL"
        },
        "referenceRange": [
          {
            "low": {
              "value": 7,
              "code": "mg/dL",
              "system": "http://unitsofmeasure.org"
            }
          },
          {
            "high": {
              "value": 25,
              "code": "mg/dL",
              "system": "http://unitsofmeasure.org"
            }
          }
        ],
        "text": {
          "status": "generated",
          "div": "<div xmlns=\"http://www.w3.org/1999/xhtml\"><table class=\"hl7__eu__lab__report\"><tr><th>Test</th><th>16-May-2016</th><th>Reference&#xA0;Range</th><th>Unit</th></tr><tr><td>Urea nitrogen [Mass/volume] in Blood</td><td>9.8</td><td>7 - 25</td><td></td><td>mg/dL</td></tr></table></div>"
        },
        "status": "final",
        "subject": {
          "reference": "urn:uuid:6c03d3bc-a934-4e4a-86f8-bbd0dd1b7ea9",
          "display": "Iva Kratochvílová"
        },
        "effectiveDateTime": "2016-05-16T21:24:23Z",
        "specimen": {
          "reference": "urn:uuid:4d8a8e31-5d18-486c-8caf-3b7f641afe7f"
        }
      }
    },
    {
      "fullUrl": "urn:uuid:cb374471-b2c0-48be-99cc-e6f533d691f2",
      "resource": {
        "resourceType": "Observation",
        "id": "cb374471-b2c0-48be-99cc-e6f533d691f2",
        "meta": {
          "profile": [
            "http://hl7.eu/fhir/laboratory/StructureDefinition/Observation-resultslab-eu-lab"
          ]
        },
        "performer": [
          {
            "display": "The Central European Lab"
          }
        ],
        "category": [
          {
            "coding": [
              {
                "system": "http://terminology.hl7.org/CodeSystem/observation-category",
                "code": "laboratory"
              }
            ]
          }
        ],
        "code": {
          "coding": [
            {
              "code": "38483-4",
              "system": "http://loinc.org",
              "display": "Creatinine [Mass/volume] in Blood"
            }
          ],
          "text": "Creatinine [Mass/volume] in Blood"
        },
        "valueQuantity": {
          "system": "http://unitsofmeasure.org",
          "value": 0.8,
          "unit": "mg/dL",
          "code": "mg/dL"
        },
        "referenceRange": [
          {
            "low": {
              "value": 0.6,
              "code": "mg/dL",
              "system": "http://unitsofmeasure.org"
            }
          },
          {
            "high": {
              "value": 1.1,
              "code": "mg/dL",
              "system": "http://unitsofmeasure.org"
            }
          }
        ],
        "text": {
          "status": "generated",
          "div": "<div xmlns=\"http://www.w3.org/1999/xhtml\"><table class=\"hl7__eu__lab__report\"><tr><th>Test</th><th>16-May-2016</th><th>Reference&#xA0;Range</th><th>Unit</th></tr><tr><td>Creatinine [Mass/volume] in Blood</td><td>0.8</td><td>0.6 - 1.1</td><td></td><td>mg/dL</td></tr></table></div>"
        },
        "status": "final",
        "subject": {
          "reference": "urn:uuid:6c03d3bc-a934-4e4a-86f8-bbd0dd1b7ea9",
          "display": "Iva Kratochvílová"
        },
        "effectiveDateTime": "2016-05-16T21:24:23Z",
        "specimen": {
          "reference": "urn:uuid:4d8a8e31-5d18-486c-8caf-3b7f641afe7f"
        }
      }
    },
    {
      "fullUrl": "urn:uuid:578a804f-4d68-4479-9219-22e0db9a11e1",
      "resource": {
        "resourceType": "Observation",
        "id": "578a804f-4d68-4479-9219-22e0db9a11e1",
        "meta": {
          "profile": [
            "http://hl7.eu/fhir/laboratory/StructureDefinition/Observation-resultslab-eu-lab"
          ]
        },
        "performer": [
          {
            "display": "The Central European Lab"
          }
        ],
        "category": [
          {
            "coding": [
              {
                "system": "http://terminology.hl7.org/CodeSystem/observation-category",
                "code": "laboratory"
              }
            ]
          }
        ],
        "code": {
          "coding": [
            {
              "code": "49765-1",
              "system": "http://loinc.org",
              "display": "Calcium [Mass/volume] in Blood"
            }
          ],
          "text": "Calcium [Mass/volume] in Blood"
        },
        "valueQuantity": {
          "system": "http://unitsofmeasure.org",
          "value": 9.1,
          "unit": "mg/dL",
          "code": "mg/dL"
        },
        "referenceRange": [
          {
            "low": {
              "value": 8.6,
              "code": "mg/dL",
              "system": "http://unitsofmeasure.org"
            }
          },
          {
            "high": {
              "value": 10.4,
              "code": "mg/dL",
              "system": "http://unitsofmeasure.org"
            }
          }
        ],
        "text": {
          "status": "generated",
          "div": "<div xmlns=\"http://www.w3.org/1999/xhtml\"><table class=\"hl7__eu__lab__report\"><tr><th>Test</th><th>16-May-2016</th><th>Reference&#xA0;Range</th><th>Unit</th></tr><tr><td>Calcium [Mass/volume] in Blood</td><td>9.1</td><td>8.6 - 10.4</td><td></td><td>mg/dL</td></tr></table></div>"
        },
        "status": "final",
        "subject": {
          "reference": "urn:uuid:6c03d3bc-a934-4e4a-86f8-bbd0dd1b7ea9",
          "display": "Iva Kratochvílová"
        },
        "effectiveDateTime": "2016-05-16T21:24:23Z",
        "specimen": {
          "reference": "urn:uuid:4d8a8e31-5d18-486c-8caf-3b7f641afe7f"
        }
      }
    },
    {
      "fullUrl": "urn:uuid:9f1afdbc-02c8-49aa-93f4-96c0b220b773",
      "resource": {
        "resourceType": "Observation",
        "id": "9f1afdbc-02c8-49aa-93f4-96c0b220b773",
        "meta": {
          "profile": [
            "http://hl7.eu/fhir/laboratory/StructureDefinition/Observation-resultslab-eu-lab"
          ]
        },
        "performer": [
          {
            "display": "The Central European Lab"
          }
        ],
        "category": [
          {
            "coding": [
              {
                "system": "http://terminology.hl7.org/CodeSystem/observation-category",
                "code": "laboratory"
              }
            ]
          }
        ],
        "code": {
          "coding": [
            {
              "code": "2947-0",
              "system": "http://loinc.org",
              "display": "Sodium [Moles/volume] in Blood"
            }
          ],
          "text": "Sodium [Moles/volume] in Blood"
        },
        "valueQuantity": {
          "system": "http://unitsofmeasure.org",
          "value": 136.2,
          "unit": "mmol/L",
          "code": "mmol/L"
        },
        "referenceRange": [
          {
            "low": {
              "value": 135,
              "code": "mmol/L",
              "system": "http://unitsofmeasure.org"
            }
          },
          {
            "high": {
              "value": 145,
              "code": "mmol/L",
              "system": "http://unitsofmeasure.org"
            }
          }
        ],
        "text": {
          "status": "generated",
          "div": "<div xmlns=\"http://www.w3.org/1999/xhtml\"><table class=\"hl7__eu__lab__report\"><tr><th>Test</th><th>16-May-2016</th><th>Reference&#xA0;Range</th><th>Unit</th></tr><tr><td>Sodium [Moles/volume] in Blood</td><td>136.2</td><td>135 - 145</td><td></td><td>mmol/L</td></tr></table></div>"
        },
        "status": "final",
        "subject": {
          "reference": "urn:uuid:6c03d3bc-a934-4e4a-86f8-bbd0dd1b7ea9",
          "display": "Iva Kratochvílová"
        },
        "effectiveDateTime": "2016-05-16T21:24:23Z",
        "specimen": {
          "reference": "urn:uuid:4d8a8e31-5d18-486c-8caf-3b7f641afe7f"
        }
      }
    },
    {
      "fullUrl": "urn:uuid:46ab8319-34ff-46ea-b2c4-07cdba121ca4",
      "resource": {
        "resourceType": "Observation",
        "id": "46ab8319-34ff-46ea-b2c4-07cdba121ca4",
        "meta": {
          "profile": [
            "http://hl7.eu/fhir/laboratory/StructureDefinition/Observation-resultslab-eu-lab"
          ]
        },
        "performer": [
          {
            "display": "The Central European Lab"
          }
        ],
        "category": [
          {
            "coding": [
              {
                "system": "http://terminology.hl7.org/CodeSystem/observation-category",
                "code": "laboratory"
              }
            ]
          }
        ],
        "code": {
          "coding": [
            {
              "code": "6298-4",
              "system": "http://loinc.org",
              "display": "Potassium [Moles/volume] in Blood"
            }
          ],
          "text": "Potassium [Moles/volume] in Blood"
        },
        "valueQuantity": {
          "system": "http://unitsofmeasure.org",
          "value": 5.1,
          "unit": "mmol/L",
          "code": "mmol/L"
        },
        "referenceRange": [
          {
            "low": {
              "value": 3.5,
              "code": "mmol/L",
              "system": "http://unitsofmeasure.org"
            }
          },
          {
            "high": {
              "value": 5.1,
              "code": "mmol/L",
              "system": "http://unitsofmeasure.org"
            }
          }
        ],
        "text": {
          "status": "generated",
          "div": "<div xmlns=\"http://www.w3.org/1999/xhtml\"><table class=\"hl7__eu__lab__report\"><tr><th>Test</th><th>16-May-2016</th><th>Reference&#xA0;Range</th><th>Unit</th></tr><tr><td>Potassium [Moles/volume] in Blood</td><td>5.1</td><td>3.5 - 5.1</td><td></td><td>mmol/L</td></tr></table></div>"
        },
        "status": "final",
        "subject": {
          "reference": "urn:uuid:6c03d3bc-a934-4e4a-86f8-bbd0dd1b7ea9",
          "display": "Iva Kratochvílová"
        },
        "effectiveDateTime": "2016-05-16T21:24:23Z",
        "specimen": {
          "reference": "urn:uuid:4d8a8e31-5d18-486c-8caf-3b7f641afe7f"
        }
      }
    },
    {
      "fullUrl": "urn:uuid:45243065-d518-4950-a404-e31ed487772c",
      "resource": {
        "resourceType": "Observation",
        "id": "45243065-d518-4950-a404-e31ed487772c",
        "meta": {
          "profile": [
            "http://hl7.eu/fhir/laboratory/StructureDefinition/Observation-resultslab-eu-lab"
          ]
        },
        "performer": [
          {
            "display": "The Central European Lab"
          }
        ],
        "category": [
          {
            "coding": [
              {
                "system": "http://terminology.hl7.org/CodeSystem/observation-category",
                "code": "laboratory"
              }
            ]
          }
        ],
        "code": {
          "coding": [
            {
              "code": "2069-3",
              "system": "http://loinc.org",
              "display": "Chloride [Moles/volume] in Blood"
            }
          ],
          "text": "Chloride [Moles/volume] in Blood"
        },
        "valueQuantity": {
          "system": "http://unitsofmeasure.org",
          "value": 103.7,
          "unit": "mmol/L",
          "code": "mmol/L"
        },
        "referenceRange": [
          {
            "low": {
              "value": 98,
              "code": "mmol/L",
              "system": "http://unitsofmeasure.org"
            }
          },
          {
            "high": {
              "value": 110,
              "code": "mmol/L",
              "system": "http://unitsofmeasure.org"
            }
          }
        ],
        "text": {
          "status": "generated",
          "div": "<div xmlns=\"http://www.w3.org/1999/xhtml\"><table class=\"hl7__eu__lab__report\"><tr><th>Test</th><th>16-May-2016</th><th>Reference&#xA0;Range</th><th>Unit</th></tr><tr><td>Chloride [Moles/volume] in Blood</td><td>103.7</td><td>98 - 110</td><td></td><td>mmol/L</td></tr></table></div>"
        },
        "status": "final",
        "subject": {
          "reference": "urn:uuid:6c03d3bc-a934-4e4a-86f8-bbd0dd1b7ea9",
          "display": "Iva Kratochvílová"
        },
        "effectiveDateTime": "2016-05-16T21:24:23Z",
        "specimen": {
          "reference": "urn:uuid:4d8a8e31-5d18-486c-8caf-3b7f641afe7f"
        }
      }
    },
    {
      "fullUrl": "urn:uuid:c25be5c8-8b4e-45b5-84be-ef86887df0fc",
      "resource": {
        "resourceType": "Observation",
        "id": "c25be5c8-8b4e-45b5-84be-ef86887df0fc",
        "meta": {
          "profile": [
            "http://hl7.eu/fhir/laboratory/StructureDefinition/Observation-resultslab-eu-lab"
          ]
        },
        "performer": [
          {
            "display": "The Central European Lab"
          }
        ],
        "category": [
          {
            "coding": [
              {
                "system": "http://terminology.hl7.org/CodeSystem/observation-category",
                "code": "laboratory"
              }
            ]
          }
        ],
        "code": {
          "coding": [
            {
              "code": "20565-8",
              "system": "http://loinc.org",
              "display": "Carbon dioxide, total [Moles/volume] in Blood"
            }
          ],
          "text": "Carbon dioxide, total [Moles/volume] in Blood"
        },
        "valueQuantity": {
          "system": "http://unitsofmeasure.org",
          "value": 23.1,
          "unit": "mmol/L",
          "code": "mmol/L"
        },
        "referenceRange": [
          {
            "low": {
              "value": 22,
              "code": "mmol/L",
              "system": "http://unitsofmeasure.org"
            }
          },
          {
            "high": {
              "value": 29,
              "code": "mmol/L",
              "system": "http://unitsofmeasure.org"
            }
          }
        ],
        "text": {
          "status": "generated",
          "div": "<div xmlns=\"http://www.w3.org/1999/xhtml\"><table class=\"hl7__eu__lab__report\"><tr><th>Test</th><th>16-May-2016</th><th>Reference&#xA0;Range</th><th>Unit</th></tr><tr><td>Carbon dioxide, total [Moles/volume] in Blood</td><td>23.1</td><td>22 - 29</td><td></td><td>mmol/L</td></tr></table></div>"
        },
        "status": "final",
        "subject": {
          "reference": "urn:uuid:6c03d3bc-a934-4e4a-86f8-bbd0dd1b7ea9",
          "display": "Iva Kratochvílová"
        },
        "effectiveDateTime": "2016-05-16T21:24:23Z",
        "specimen": {
          "reference": "urn:uuid:4d8a8e31-5d18-486c-8caf-3b7f641afe7f"
        }
      }
    },
    {
      "fullUrl": "urn:uuid:1a92372f-5221-47fc-892a-f4f021238378",
      "resource": {
        "resourceType": "Observation",
        "id": "1a92372f-5221-47fc-892a-f4f021238378",
        "meta": {
          "profile": [
            "http://hl7.eu/fhir/laboratory/StructureDefinition/Observation-resultslab-eu-lab"
          ]
        },
        "performer": [
          {
            "display": "The Central European Lab"
          }
        ],
        "category": [
          {
            "coding": [
              {
                "system": "http://terminology.hl7.org/CodeSystem/observation-category",
                "code": "laboratory"
              }
            ]
          }
        ],
        "code": {
          "coding": [
            {
              "code": "6690-2",
              "system": "http://loinc.org",
              "display": "Leukocytes [#/volume] in Blood by Automated count"
            }
          ],
          "text": "Leukocytes [#/volume] in Blood by Automated count"
        },
        "valueQuantity": {
          "system": "http://unitsofmeasure.org",
          "value": 7.5,
          "unit": "10*3/uL",
          "code": "10*3/uL"
        },
        "referenceRange": [
          {
            "low": {
              "value": 3.4,
              "code": "10*3/uL",
              "system": "http://unitsofmeasure.org"
            }
          },
          {
            "high": {
              "value": 10.6,
              "code": "10*3/uL",
              "system": "http://unitsofmeasure.org"
            }
          }
        ],
        "text": {
          "status": "generated",
          "div": "<div xmlns=\"http://www.w3.org/1999/xhtml\"><table class=\"hl7__eu__lab__report\"><tr><th>Test</th><th>16-May-2016</th><th>Reference&#xA0;Range</th><th>Unit</th></tr><tr><td>Leukocytes [#/volume] in Blood by Automated count</td><td>7.5</td><td>3.4 - 10.6</td><td></td><td>10*3/uL</td></tr></table></div>"
        },
        "status": "final",
        "subject": {
          "reference": "urn:uuid:6c03d3bc-a934-4e4a-86f8-bbd0dd1b7ea9",
          "display": "Iva Kratochvílová"
        },
        "effectiveDateTime": "2016-05-16T21:24:23Z",
        "specimen": {
          "reference": "urn:uuid:4d8a8e31-5d18-486c-8caf-3b7f641afe7f"
        }
      }
    },
    {
      "fullUrl": "urn:uuid:98b260d2-ed54-482b-be9a-2f9d2bff856e",
      "resource": {
        "resourceType": "Observation",
        "id": "98b260d2-ed54-482b-be9a-2f9d2bff856e",
        "meta": {
          "profile": [
            "http://hl7.eu/fhir/laboratory/StructureDefinition/Observation-resultslab-eu-lab"
          ]
        },
        "performer": [
          {
            "display": "The Central European Lab"
          }
        ],
        "category": [
          {
            "coding": [
              {
                "system": "http://terminology.hl7.org/CodeSystem/observation-category",
                "code": "laboratory"
              }
            ]
          }
        ],
        "code": {
          "coding": [
            {
              "code": "789-8",
              "system": "http://loinc.org",
              "display": "Erythrocytes [#/volume] in Blood by Automated count"
            }
          ],
          "text": "Erythrocytes [#/volume] in Blood by Automated count"
        },
        "valueQuantity": {
          "system": "http://unitsofmeasure.org",
          "value": 3.9,
          "unit": "10*6/uL",
          "code": "10*6/uL"
        },
        "referenceRange": [
          {
            "low": {
              "value": 4.2,
              "code": "10*6/uL",
              "system": "http://unitsofmeasure.org"
            }
          },
          {
            "high": {
              "value": 5.2,
              "code": "10*6/uL",
              "system": "http://unitsofmeasure.org"
            }
          }
        ],
        "interpretation": [
          {
            "coding": [
              {
                "code": "L",
                "system": "http://terminology.hl7.org/CodeSystem/v3-ObservationInterpretation",
                "display": "Low"
              }
            ]
          }
        ],
        "text": {
          "status": "generated",
          "div": "<div xmlns=\"http://www.w3.org/1999/xhtml\"><table class=\"hl7__eu__lab__report\"><tr><th>Test</th><th>16-May-2016</th><th>Reference&#xA0;Range</th><th>Unit</th></tr><tr><td>Erythrocytes [#/volume] in Blood by Automated count</td><td>3.9</td><td>4.2 - 5.2</td><td>L</td><td>10*6/uL</td></tr></table></div>"
        },
        "status": "final",
        "subject": {
          "reference": "urn:uuid:6c03d3bc-a934-4e4a-86f8-bbd0dd1b7ea9",
          "display": "Iva Kratochvílová"
        },
        "effectiveDateTime": "2016-05-16T21:24:23Z",
        "specimen": {
          "reference": "urn:uuid:4d8a8e31-5d18-486c-8caf-3b7f641afe7f"
        }
      }
    },
    {
      "fullUrl": "urn:uuid:b9cbccae-699d-41f0-b8e0-600834ef0e3c",
      "resource": {
        "resourceType": "Observation",
        "id": "b9cbccae-699d-41f0-b8e0-600834ef0e3c",
        "meta": {
          "profile": [
            "http://hl7.eu/fhir/laboratory/StructureDefinition/Observation-resultslab-eu-lab"
          ]
        },
        "performer": [
          {
            "display": "The Central European Lab"
          }
        ],
        "category": [
          {
            "coding": [
              {
                "system": "http://terminology.hl7.org/CodeSystem/observation-category",
                "code": "laboratory"
              }
            ]
          }
        ],
        "code": {
          "coding": [
            {
              "code": "718-7",
              "system": "http://loinc.org",
              "display": "Hemoglobin [Mass/volume] in Blood"
            }
          ],
          "text": "Hemoglobin [Mass/volume] in Blood"
        },
        "valueQuantity": {
          "system": "http://unitsofmeasure.org",
          "value": 15.2,
          "unit": "g/dL",
          "code": "g/dL"
        },
        "referenceRange": [
          {
            "low": {
              "value": 12,
              "code": "g/dL",
              "system": "http://unitsofmeasure.org"
            }
          },
          {
            "high": {
              "value": 16,
              "code": "g/dL",
              "system": "http://unitsofmeasure.org"
            }
          }
        ],
        "text": {
          "status": "generated",
          "div": "<div xmlns=\"http://www.w3.org/1999/xhtml\"><table class=\"hl7__eu__lab__report\"><tr><th>Test</th><th>16-May-2016</th><th>Reference&#xA0;Range</th><th>Unit</th></tr><tr><td>Hemoglobin [Mass/volume] in Blood</td><td>15.2</td><td>12 - 16</td><td></td><td>g/dL</td></tr></table></div>"
        },
        "status": "final",
        "subject": {
          "reference": "urn:uuid:6c03d3bc-a934-4e4a-86f8-bbd0dd1b7ea9",
          "display": "Iva Kratochvílová"
        },
        "effectiveDateTime": "2016-05-16T21:24:23Z",
        "specimen": {
          "reference": "urn:uuid:4d8a8e31-5d18-486c-8caf-3b7f641afe7f"
        }
      }
    },
    {
      "fullUrl": "urn:uuid:2480fcf2-f411-49ac-b726-19d7de8cd080",
      "resource": {
        "resourceType": "Observation",
        "id": "2480fcf2-f411-49ac-b726-19d7de8cd080",
        "meta": {
          "profile": [
            "http://hl7.eu/fhir/laboratory/StructureDefinition/Observation-resultslab-eu-lab"
          ]
        },
        "performer": [
          {
            "display": "The Central European Lab"
          }
        ],
        "category": [
          {
            "coding": [
              {
                "system": "http://terminology.hl7.org/CodeSystem/observation-category",
                "code": "laboratory"
              }
            ]
          }
        ],
        "code": {
          "coding": [
            {
              "code": "4544-3",
              "system": "http://loinc.org",
              "display": "Hematocrit [Volume Fraction] of Blood by Automated count"
            }
          ],
          "text": "Hematocrit [Volume Fraction] of Blood by Automated count"
        },
        "valueQuantity": {
          "system": "http://unitsofmeasure.org",
          "value": 39.1,
          "unit": "%",
          "code": "%"
        },
        "referenceRange": [
          {
            "low": {
              "value": 36,
              "code": "%",
              "system": "http://unitsofmeasure.org"
            }
          },
          {
            "high": {
              "value": 48,
              "code": "%",
              "system": "http://unitsofmeasure.org"
            }
          }
        ],
        "text": {
          "status": "generated",
          "div": "<div xmlns=\"http://www.w3.org/1999/xhtml\"><table class=\"hl7__eu__lab__report\"><tr><th>Test</th><th>16-May-2016</th><th>Reference&#xA0;Range</th><th>Unit</th></tr><tr><td>Hematocrit [Volume Fraction] of Blood by Automated count</td><td>39.1</td><td>36 - 48</td><td></td><td>%</td></tr></table></div>"
        },
        "status": "final",
        "subject": {
          "reference": "urn:uuid:6c03d3bc-a934-4e4a-86f8-bbd0dd1b7ea9",
          "display": "Iva Kratochvílová"
        },
        "effectiveDateTime": "2016-05-16T21:24:23Z",
        "specimen": {
          "reference": "urn:uuid:4d8a8e31-5d18-486c-8caf-3b7f641afe7f"
        }
      }
    },
    {
      "fullUrl": "urn:uuid:cf1fc109-df69-4f30-aba4-adeba11e5277",
      "resource": {
        "resourceType": "Observation",
        "id": "cf1fc109-df69-4f30-aba4-adeba11e5277",
        "meta": {
          "profile": [
            "http://hl7.eu/fhir/laboratory/StructureDefinition/Observation-resultslab-eu-lab"
          ]
        },
        "performer": [
          {
            "display": "The Central European Lab"
          }
        ],
        "category": [
          {
            "coding": [
              {
                "system": "http://terminology.hl7.org/CodeSystem/observation-category",
                "code": "laboratory"
              }
            ]
          }
        ],
        "code": {
          "coding": [
            {
              "code": "787-2",
              "system": "http://loinc.org",
              "display": "MCV [Entitic volume] by Automated count"
            }
          ],
          "text": "MCV [Entitic volume] by Automated count"
        },
        "valueQuantity": {
          "system": "http://unitsofmeasure.org",
          "value": 89.5,
          "unit": "fL",
          "code": "fL"
        },
        "referenceRange": [
          {
            "low": {
              "value": 82,
              "code": "fL",
              "system": "http://unitsofmeasure.org"
            }
          },
          {
            "high": {
              "value": 98,
              "code": "fL",
              "system": "http://unitsofmeasure.org"
            }
          }
        ],
        "text": {
          "status": "generated",
          "div": "<div xmlns=\"http://www.w3.org/1999/xhtml\"><table class=\"hl7__eu__lab__report\"><tr><th>Test</th><th>16-May-2016</th><th>Reference&#xA0;Range</th><th>Unit</th></tr><tr><td>MCV [Entitic volume] by Automated count</td><td>89.5</td><td>82 - 98</td><td></td><td>fL</td></tr></table></div>"
        },
        "status": "final",
        "subject": {
          "reference": "urn:uuid:6c03d3bc-a934-4e4a-86f8-bbd0dd1b7ea9",
          "display": "Iva Kratochvílová"
        },
        "effectiveDateTime": "2016-05-16T21:24:23Z",
        "specimen": {
          "reference": "urn:uuid:4d8a8e31-5d18-486c-8caf-3b7f641afe7f"
        }
      }
    },
    {
      "fullUrl": "urn:uuid:77718f84-b8d9-49c3-bf86-f4cf46a81882",
      "resource": {
        "resourceType": "Observation",
        "id": "77718f84-b8d9-49c3-bf86-f4cf46a81882",
        "meta": {
          "profile": [
            "http://hl7.eu/fhir/laboratory/StructureDefinition/Observation-resultslab-eu-lab"
          ]
        },
        "performer": [
          {
            "display": "The Central European Lab"
          }
        ],
        "category": [
          {
            "coding": [
              {
                "system": "http://terminology.hl7.org/CodeSystem/observation-category",
                "code": "laboratory"
              }
            ]
          }
        ],
        "code": {
          "coding": [
            {
              "code": "785-6",
              "system": "http://loinc.org",
              "display": "MCH [Entitic mass] by Automated count"
            }
          ],
          "text": "MCH [Entitic mass] by Automated count"
        },
        "valueQuantity": {
          "system": "http://unitsofmeasure.org",
          "value": 29.7,
          "unit": "pg",
          "code": "pg"
        },
        "referenceRange": [
          {
            "low": {
              "value": 27,
              "code": "pg",
              "system": "http://unitsofmeasure.org"
            }
          },
          {
            "high": {
              "value": 33,
              "code": "pg",
              "system": "http://unitsofmeasure.org"
            }
          }
        ],
        "text": {
          "status": "generated",
          "div": "<div xmlns=\"http://www.w3.org/1999/xhtml\"><table class=\"hl7__eu__lab__report\"><tr><th>Test</th><th>16-May-2016</th><th>Reference&#xA0;Range</th><th>Unit</th></tr><tr><td>MCH [Entitic mass] by Automated count</td><td>29.7</td><td>27 - 33</td><td></td><td>pg</td></tr></table></div>"
        },
        "status": "final",
        "subject": {
          "reference": "urn:uuid:6c03d3bc-a934-4e4a-86f8-bbd0dd1b7ea9",
          "display": "Iva Kratochvílová"
        },
        "effectiveDateTime": "2016-05-16T21:24:23Z",
        "specimen": {
          "reference": "urn:uuid:4d8a8e31-5d18-486c-8caf-3b7f641afe7f"
        }
      }
    },
    {
      "fullUrl": "urn:uuid:91d07590-ce30-4d01-b21a-195a1a9654c3",
      "resource": {
        "resourceType": "Observation",
        "id": "91d07590-ce30-4d01-b21a-195a1a9654c3",
        "meta": {
          "profile": [
            "http://hl7.eu/fhir/laboratory/StructureDefinition/Observation-resultslab-eu-lab"
          ]
        },
        "performer": [
          {
            "display": "The Central European Lab"
          }
        ],
        "category": [
          {
            "coding": [
              {
                "system": "http://terminology.hl7.org/CodeSystem/observation-category",
                "code": "laboratory"
              }
            ]
          }
        ],
        "code": {
          "coding": [
            {
              "code": "786-4",
              "system": "http://loinc.org",
              "display": "MCHC [Mass/volume] by Automated count"
            }
          ],
          "text": "MCHC [Mass/volume] by Automated count"
        },
        "valueQuantity": {
          "system": "http://unitsofmeasure.org",
          "value": 33.8,
          "unit": "g/dL",
          "code": "g/dL"
        },
        "referenceRange": [
          {
            "low": {
              "value": 32,
              "code": "g/dL",
              "system": "http://unitsofmeasure.org"
            }
          },
          {
            "high": {
              "value": 37,
              "code": "g/dL",
              "system": "http://unitsofmeasure.org"
            }
          }
        ],
        "text": {
          "status": "generated",
          "div": "<div xmlns=\"http://www.w3.org/1999/xhtml\"><table class=\"hl7__eu__lab__report\"><tr><th>Test</th><th>16-May-2016</th><th>Reference&#xA0;Range</th><th>Unit</th></tr><tr><td>MCHC [Mass/volume] by Automated count</td><td>33.8</td><td>32 - 37</td><td></td><td>g/dL</td></tr></table></div>"
        },
        "status": "final",
        "subject": {
          "reference": "urn:uuid:6c03d3bc-a934-4e4a-86f8-bbd0dd1b7ea9",
          "display": "Iva Kratochvílová"
        },
        "effectiveDateTime": "2016-05-16T21:24:23Z",
        "specimen": {
          "reference": "urn:uuid:4d8a8e31-5d18-486c-8caf-3b7f641afe7f"
        }
      }
    },
    {
      "fullUrl": "urn:uuid:fe507316-ee1b-48b6-9baf-1a982c972632",
      "resource": {
        "resourceType": "Observation",
        "id": "fe507316-ee1b-48b6-9baf-1a982c972632",
        "meta": {
          "profile": [
            "http://hl7.eu/fhir/laboratory/StructureDefinition/Observation-resultslab-eu-lab"
          ]
        },
        "performer": [
          {
            "display": "The Central European Lab"
          }
        ],
        "category": [
          {
            "coding": [
              {
                "system": "http://terminology.hl7.org/CodeSystem/observation-category",
                "code": "laboratory"
              }
            ]
          }
        ],
        "code": {
          "coding": [
            {
              "code": "21000-5",
              "system": "http://loinc.org",
              "display": "Erythrocyte distribution width [Entitic volume] by Automated count"
            }
          ],
          "text": "Erythrocyte distribution width [Entitic volume] by Automated count"
        },
        "valueQuantity": {
          "system": "http://unitsofmeasure.org",
          "value": 44.8,
          "unit": "fL",
          "code": "fL"
        },
        "referenceRange": [
          {
            "low": {
              "value": 36,
              "code": "fL",
              "system": "http://unitsofmeasure.org"
            }
          },
          {
            "high": {
              "value": 46,
              "code": "fL",
              "system": "http://unitsofmeasure.org"
            }
          }
        ],
        "text": {
          "status": "generated",
          "div": "<div xmlns=\"http://www.w3.org/1999/xhtml\"><table class=\"hl7__eu__lab__report\"><tr><th>Test</th><th>16-May-2016</th><th>Reference&#xA0;Range</th><th>Unit</th></tr><tr><td>Erythrocyte distribution width [Entitic volume] by Automated count</td><td>44.8</td><td>36 - 46</td><td></td><td>fL</td></tr></table></div>"
        },
        "status": "final",
        "subject": {
          "reference": "urn:uuid:6c03d3bc-a934-4e4a-86f8-bbd0dd1b7ea9",
          "display": "Iva Kratochvílová"
        },
        "effectiveDateTime": "2016-05-16T21:24:23Z",
        "specimen": {
          "reference": "urn:uuid:4d8a8e31-5d18-486c-8caf-3b7f641afe7f"
        }
      }
    },
    {
      "fullUrl": "urn:uuid:269a22c1-ed6c-4e24-9194-4691e30508da",
      "resource": {
        "resourceType": "Observation",
        "id": "269a22c1-ed6c-4e24-9194-4691e30508da",
        "meta": {
          "profile": [
            "http://hl7.eu/fhir/laboratory/StructureDefinition/Observation-resultslab-eu-lab"
          ]
        },
        "performer": [
          {
            "display": "The Central European Lab"
          }
        ],
        "category": [
          {
            "coding": [
              {
                "system": "http://terminology.hl7.org/CodeSystem/observation-category",
                "code": "laboratory"
              }
            ]
          }
        ],
        "code": {
          "coding": [
            {
              "code": "777-3",
              "system": "http://loinc.org",
              "display": "Platelets [#/volume] in Blood by Automated count"
            }
          ],
          "text": "Platelets [#/volume] in Blood by Automated count"
        },
        "valueQuantity": {
          "system": "http://unitsofmeasure.org",
          "value": 426.8,
          "unit": "10*3/uL",
          "code": "10*3/uL"
        },
        "referenceRange": [
          {
            "low": {
              "value": 150,
              "code": "10*3/uL",
              "system": "http://unitsofmeasure.org"
            }
          },
          {
            "high": {
              "value": 450,
              "code": "10*3/uL",
              "system": "http://unitsofmeasure.org"
            }
          }
        ],
        "text": {
          "status": "generated",
          "div": "<div xmlns=\"http://www.w3.org/1999/xhtml\"><table class=\"hl7__eu__lab__report\"><tr><th>Test</th><th>16-May-2016</th><th>Reference&#xA0;Range</th><th>Unit</th></tr><tr><td>Platelets [#/volume] in Blood by Automated count</td><td>426.8</td><td>150 - 450</td><td></td><td>10*3/uL</td></tr></table></div>"
        },
        "status": "final",
        "subject": {
          "reference": "urn:uuid:6c03d3bc-a934-4e4a-86f8-bbd0dd1b7ea9",
          "display": "Iva Kratochvílová"
        },
        "effectiveDateTime": "2016-05-16T21:24:23Z",
        "specimen": {
          "reference": "urn:uuid:4d8a8e31-5d18-486c-8caf-3b7f641afe7f"
        }
      }
    },
    {
      "fullUrl": "urn:uuid:b84c851e-3bd6-4702-8cac-fc979c3716b3",
      "resource": {
        "resourceType": "Observation",
        "id": "b84c851e-3bd6-4702-8cac-fc979c3716b3",
        "meta": {
          "profile": [
            "http://hl7.eu/fhir/laboratory/StructureDefinition/Observation-resultslab-eu-lab"
          ]
        },
        "performer": [
          {
            "display": "The Central European Lab"
          }
        ],
        "category": [
          {
            "coding": [
              {
                "system": "http://terminology.hl7.org/CodeSystem/observation-category",
                "code": "laboratory"
              }
            ]
          }
        ],
        "code": {
          "coding": [
            {
              "code": "32207-3",
              "system": "http://loinc.org",
              "display": "Platelet distribution width [Entitic volume] in Blood by Automated count"
            }
          ],
          "text": "Platelet distribution width [Entitic volume] in Blood by Automated count"
        },
        "valueQuantity": {
          "system": "http://unitsofmeasure.org",
          "value": 317,
          "unit": "fL",
          "code": "fL"
        },
        "referenceRange": [
          {
            "low": {
              "value": 11.6,
              "code": "fL",
              "system": "http://unitsofmeasure.org"
            }
          },
          {
            "high": {
              "value": 17.4,
              "code": "fL",
              "system": "http://unitsofmeasure.org"
            }
          }
        ],
        "interpretation": [
          {
            "coding": [
              {
                "code": "H",
                "system": "http://terminology.hl7.org/CodeSystem/v3-ObservationInterpretation",
                "display": "High"
              }
            ]
          }
        ],
        "text": {
          "status": "generated",
          "div": "<div xmlns=\"http://www.w3.org/1999/xhtml\"><table class=\"hl7__eu__lab__report\"><tr><th>Test</th><th>16-May-2016</th><th>Reference&#xA0;Range</th><th>Unit</th></tr><tr><td>Platelet distribution width [Entitic volume] in Blood by Automated count</td><td>317.0</td><td>11.6 - 17.4</td><td>H</td><td>fL</td></tr></table></div>"
        },
        "status": "final",
        "subject": {
          "reference": "urn:uuid:6c03d3bc-a934-4e4a-86f8-bbd0dd1b7ea9",
          "display": "Iva Kratochvílová"
        },
        "effectiveDateTime": "2016-05-16T21:24:23Z",
        "specimen": {
          "reference": "urn:uuid:4d8a8e31-5d18-486c-8caf-3b7f641afe7f"
        }
      }
    },
    {
      "fullUrl": "urn:uuid:537ca0d0-9ed7-43a8-921c-07c19cd3e9c7",
      "resource": {
        "resourceType": "Observation",
        "id": "537ca0d0-9ed7-43a8-921c-07c19cd3e9c7",
        "meta": {
          "profile": [
            "http://hl7.eu/fhir/laboratory/StructureDefinition/Observation-resultslab-eu-lab"
          ]
        },
        "performer": [
          {
            "display": "The Central European Lab"
          }
        ],
        "category": [
          {
            "coding": [
              {
                "system": "http://terminology.hl7.org/CodeSystem/observation-category",
                "code": "laboratory"
              }
            ]
          }
        ],
        "code": {
          "coding": [
            {
              "code": "32623-1",
              "system": "http://loinc.org",
              "display": "Platelet mean volume [Entitic volume] in Blood by Automated count"
            }
          ],
          "text": "Platelet mean volume [Entitic volume] in Blood by Automated count"
        },
        "valueQuantity": {
          "system": "http://unitsofmeasure.org",
          "value": 9.4,
          "unit": "fL",
          "code": "fL"
        },
        "referenceRange": [
          {
            "low": {
              "value": 7.4,
              "code": "fL",
              "system": "http://unitsofmeasure.org"
            }
          },
          {
            "high": {
              "value": 12,
              "code": "fL",
              "system": "http://unitsofmeasure.org"
            }
          }
        ],
        "text": {
          "status": "generated",
          "div": "<div xmlns=\"http://www.w3.org/1999/xhtml\"><table class=\"hl7__eu__lab__report\"><tr><th>Test</th><th>16-May-2016</th><th>Reference&#xA0;Range</th><th>Unit</th></tr><tr><td>Platelet mean volume [Entitic volume] in Blood by Automated count</td><td>9.4</td><td>7.4 - 12</td><td></td><td>fL</td></tr></table></div>"
        },
        "status": "final",
        "subject": {
          "reference": "urn:uuid:6c03d3bc-a934-4e4a-86f8-bbd0dd1b7ea9",
          "display": "Iva Kratochvílová"
        },
        "effectiveDateTime": "2016-05-16T21:24:23Z",
        "specimen": {
          "reference": "urn:uuid:4d8a8e31-5d18-486c-8caf-3b7f641afe7f"
        }
      }
    },
    {
      "fullUrl": "urn:uuid:043a8c1a-2d44-4611-b212-1241ad95d115",
      "resource": {
        "resourceType": "Observation",
        "id": "043a8c1a-2d44-4611-b212-1241ad95d115",
        "meta": {
          "profile": [
            "http://hl7.eu/fhir/laboratory/StructureDefinition/Observation-resultslab-eu-lab"
          ]
        },
        "performer": [
          {
            "display": "The Central European Lab"
          }
        ],
        "category": [
          {
            "coding": [
              {
                "system": "http://terminology.hl7.org/CodeSystem/observation-category",
                "code": "laboratory"
              }
            ]
          }
        ],
        "code": {
          "coding": [
            {
              "code": "25428-4",
              "system": "http://loinc.org",
              "display": "Glucose [Presence] in Urine by Test strip"
            }
          ],
          "text": "Glucose [Presence] in Urine by Test strip"
        },
        "valueQuantity": {
          "system": "http://unitsofmeasure.org",
          "value": 0,
          "unit": "{presence}",
          "code": "{presence}"
        },
        "referenceRange": [
          {
            "low": {
              "value": 0,
              "code": "g/dL",
              "system": "http://unitsofmeasure.org"
            }
          },
          {
            "high": {
              "value": 0.8,
              "code": "g/dL",
              "system": "http://unitsofmeasure.org"
            }
          }
        ],
        "text": {
          "status": "generated",
          "div": "<div xmlns=\"http://www.w3.org/1999/xhtml\"><table class=\"hl7__eu__lab__report\"><tr><th>Test</th><th>16-May-2016</th><th>Reference&#xA0;Range</th><th>Unit</th></tr><tr><td>Glucose [Presence] in Urine by Test strip</td><td>0.0</td><td>0 - 0.8</td><td></td><td>{presence}</td></tr></table></div>"
        },
        "status": "final",
        "subject": {
          "reference": "urn:uuid:6c03d3bc-a934-4e4a-86f8-bbd0dd1b7ea9",
          "display": "Iva Kratochvílová"
        },
        "effectiveDateTime": "2016-05-16T21:24:23Z",
        "specimen": {
          "reference": "urn:uuid:a4e59827-3c45-492d-a9c6-a60777a10bd3"
        }
      }
    },
    {
      "fullUrl": "urn:uuid:45a5d96f-ddfa-48f4-aca7-7ca3f6a71729",
      "resource": {
        "resourceType": "Observation",
        "id": "45a5d96f-ddfa-48f4-aca7-7ca3f6a71729",
        "meta": {
          "profile": [
            "http://hl7.eu/fhir/laboratory/StructureDefinition/Observation-resultslab-eu-lab"
          ]
        },
        "performer": [
          {
            "display": "The Central European Lab"
          }
        ],
        "category": [
          {
            "coding": [
              {
                "system": "http://terminology.hl7.org/CodeSystem/observation-category",
                "code": "laboratory"
              }
            ]
          }
        ],
        "code": {
          "coding": [
            {
              "code": "5770-3",
              "system": "http://loinc.org",
              "display": "Bilirubin.total [Presence] in Urine by Test strip"
            }
          ],
          "text": "Bilirubin.total [Presence] in Urine by Test strip"
        },
        "valueQuantity": {
          "system": "http://unitsofmeasure.org",
          "value": 0,
          "unit": "{presence}",
          "code": "{presence}"
        },
        "referenceRange": [
          {
            "low": {
              "value": 0,
              "code": "mg/dL",
              "system": "http://unitsofmeasure.org"
            }
          },
          {
            "high": {
              "value": 0,
              "code": "mg/dL",
              "system": "http://unitsofmeasure.org"
            }
          }
        ],
        "text": {
          "status": "generated",
          "div": "<div xmlns=\"http://www.w3.org/1999/xhtml\"><table class=\"hl7__eu__lab__report\"><tr><th>Test</th><th>16-May-2016</th><th>Reference&#xA0;Range</th><th>Unit</th></tr><tr><td>Bilirubin.total [Presence] in Urine by Test strip</td><td>0.0</td><td>0 - 0</td><td></td><td>{presence}</td></tr></table></div>"
        },
        "status": "final",
        "subject": {
          "reference": "urn:uuid:6c03d3bc-a934-4e4a-86f8-bbd0dd1b7ea9",
          "display": "Iva Kratochvílová"
        },
        "effectiveDateTime": "2016-05-16T21:24:23Z",
        "specimen": {
          "reference": "urn:uuid:a4e59827-3c45-492d-a9c6-a60777a10bd3"
        }
      }
    },
    {
      "fullUrl": "urn:uuid:375971c7-31d0-4f05-b91e-bb0cc603d9b3",
      "resource": {
        "resourceType": "Observation",
        "id": "375971c7-31d0-4f05-b91e-bb0cc603d9b3",
        "meta": {
          "profile": [
            "http://hl7.eu/fhir/laboratory/StructureDefinition/Observation-resultslab-eu-lab"
          ]
        },
        "performer": [
          {
            "display": "The Central European Lab"
          }
        ],
        "category": [
          {
            "coding": [
              {
                "system": "http://terminology.hl7.org/CodeSystem/observation-category",
                "code": "laboratory"
              }
            ]
          }
        ],
        "code": {
          "coding": [
            {
              "code": "2514-8",
              "system": "http://loinc.org",
              "display": "Ketones [Presence] in Urine by Test strip"
            }
          ],
          "text": "Ketones [Presence] in Urine by Test strip"
        },
        "valueQuantity": {
          "system": "http://unitsofmeasure.org",
          "value": 0,
          "unit": "{presence}",
          "code": "{presence}"
        },
        "referenceRange": [
          {
            "low": {
              "value": 0,
              "code": "Presence",
              "system": "http://unitsofmeasure.org"
            }
          },
          {
            "high": {
              "value": 0,
              "code": "Presence",
              "system": "http://unitsofmeasure.org"
            }
          }
        ],
        "text": {
          "status": "generated",
          "div": "<div xmlns=\"http://www.w3.org/1999/xhtml\"><table class=\"hl7__eu__lab__report\"><tr><th>Test</th><th>16-May-2016</th><th>Reference&#xA0;Range</th><th>Unit</th></tr><tr><td>Ketones [Presence] in Urine by Test strip</td><td>0.0</td><td>0 - 0</td><td></td><td>{presence}</td></tr></table></div>"
        },
        "status": "final",
        "subject": {
          "reference": "urn:uuid:6c03d3bc-a934-4e4a-86f8-bbd0dd1b7ea9",
          "display": "Iva Kratochvílová"
        },
        "effectiveDateTime": "2016-05-16T21:24:23Z",
        "specimen": {
          "reference": "urn:uuid:a4e59827-3c45-492d-a9c6-a60777a10bd3"
        }
      }
    },
    {
      "fullUrl": "urn:uuid:0aab24d4-f267-47a3-98d5-78009c5d929d",
      "resource": {
        "resourceType": "Observation",
        "id": "0aab24d4-f267-47a3-98d5-78009c5d929d",
        "meta": {
          "profile": [
            "http://hl7.eu/fhir/laboratory/StructureDefinition/Observation-resultslab-eu-lab"
          ]
        },
        "performer": [
          {
            "display": "The Central European Lab"
          }
        ],
        "category": [
          {
            "coding": [
              {
                "system": "http://terminology.hl7.org/CodeSystem/observation-category",
                "code": "laboratory"
              }
            ]
          }
        ],
        "code": {
          "coding": [
            {
              "code": "5811-5",
              "system": "http://loinc.org",
              "display": "Specific gravity of Urine by Test strip"
            }
          ],
          "text": "Specific gravity of Urine by Test strip"
        },
        "valueQuantity": {
          "system": "http://unitsofmeasure.org",
          "value": 1,
          "unit": "{SG}",
          "code": "{SG}"
        },
        "referenceRange": [
          {
            "low": {
              "value": 1.005,
              "code": "SG",
              "system": "http://unitsofmeasure.org"
            }
          },
          {
            "high": {
              "value": 1.03,
              "code": "SG",
              "system": "http://unitsofmeasure.org"
            }
          }
        ],
        "interpretation": [
          {
            "coding": [
              {
                "code": "L",
                "system": "http://terminology.hl7.org/CodeSystem/v3-ObservationInterpretation",
                "display": "Low"
              }
            ]
          }
        ],
        "text": {
          "status": "generated",
          "div": "<div xmlns=\"http://www.w3.org/1999/xhtml\"><table class=\"hl7__eu__lab__report\"><tr><th>Test</th><th>16-May-2016</th><th>Reference&#xA0;Range</th><th>Unit</th></tr><tr><td>Specific gravity of Urine by Test strip</td><td>1.0</td><td>1.005 - 1.03</td><td>L</td><td>{SG}</td></tr></table></div>"
        },
        "status": "final",
        "subject": {
          "reference": "urn:uuid:6c03d3bc-a934-4e4a-86f8-bbd0dd1b7ea9",
          "display": "Iva Kratochvílová"
        },
        "effectiveDateTime": "2016-05-16T21:24:23Z",
        "specimen": {
          "reference": "urn:uuid:a4e59827-3c45-492d-a9c6-a60777a10bd3"
        }
      }
    },
    {
      "fullUrl": "urn:uuid:d66ef63f-051f-4dba-91b0-c53d93832c55",
      "resource": {
        "resourceType": "Observation",
        "id": "d66ef63f-051f-4dba-91b0-c53d93832c55",
        "meta": {
          "profile": [
            "http://hl7.eu/fhir/laboratory/StructureDefinition/Observation-resultslab-eu-lab"
          ]
        },
        "performer": [
          {
            "display": "The Central European Lab"
          }
        ],
        "category": [
          {
            "coding": [
              {
                "system": "http://terminology.hl7.org/CodeSystem/observation-category",
                "code": "laboratory"
              }
            ]
          }
        ],
        "code": {
          "coding": [
            {
              "code": "5803-2",
              "system": "http://loinc.org",
              "display": "pH of Urine by Test strip"
            }
          ],
          "text": "pH of Urine by Test strip"
        },
        "valueQuantity": {
          "system": "http://unitsofmeasure.org",
          "value": 6,
          "unit": "[pH]",
          "code": "[pH]"
        },
        "referenceRange": [
          {
            "low": {
              "value": 4.5,
              "code": "pH",
              "system": "http://unitsofmeasure.org"
            }
          },
          {
            "high": {
              "value": 8,
              "code": "pH",
              "system": "http://unitsofmeasure.org"
            }
          }
        ],
        "text": {
          "status": "generated",
          "div": "<div xmlns=\"http://www.w3.org/1999/xhtml\"><table class=\"hl7__eu__lab__report\"><tr><th>Test</th><th>16-May-2016</th><th>Reference&#xA0;Range</th><th>Unit</th></tr><tr><td>pH of Urine by Test strip</td><td>6.0</td><td>4.5 - 8</td><td></td><td>[pH]</td></tr></table></div>"
        },
        "status": "final",
        "subject": {
          "reference": "urn:uuid:6c03d3bc-a934-4e4a-86f8-bbd0dd1b7ea9",
          "display": "Iva Kratochvílová"
        },
        "effectiveDateTime": "2016-05-16T21:24:23Z",
        "specimen": {
          "reference": "urn:uuid:a4e59827-3c45-492d-a9c6-a60777a10bd3"
        }
      }
    },
    {
      "fullUrl": "urn:uuid:37930cf7-8ff1-44f5-aba9-47a88783dd85",
      "resource": {
        "resourceType": "Observation",
        "id": "37930cf7-8ff1-44f5-aba9-47a88783dd85",
        "meta": {
          "profile": [
            "http://hl7.eu/fhir/laboratory/StructureDefinition/Observation-resultslab-eu-lab"
          ]
        },
        "performer": [
          {
            "display": "The Central European Lab"
          }
        ],
        "category": [
          {
            "coding": [
              {
                "system": "http://terminology.hl7.org/CodeSystem/observation-category",
                "code": "laboratory"
              }
            ]
          }
        ],
        "code": {
          "coding": [
            {
              "code": "20454-5",
              "system": "http://loinc.org",
              "display": "Protein [Presence] in Urine by Test strip"
            }
          ],
          "text": "Protein [Presence] in Urine by Test strip"
        },
        "valueQuantity": {
          "system": "http://unitsofmeasure.org",
          "value": 0,
          "unit": "{presence}",
          "code": "{presence}"
        },
        "referenceRange": [
          {
            "low": {
              "value": 0,
              "code": "mg/dL",
              "system": "http://unitsofmeasure.org"
            }
          },
          {
            "high": {
              "value": 0,
              "code": "mg/dL",
              "system": "http://unitsofmeasure.org"
            }
          }
        ],
        "text": {
          "status": "generated",
          "div": "<div xmlns=\"http://www.w3.org/1999/xhtml\"><table class=\"hl7__eu__lab__report\"><tr><th>Test</th><th>16-May-2016</th><th>Reference&#xA0;Range</th><th>Unit</th></tr><tr><td>Protein [Presence] in Urine by Test strip</td><td>0.0</td><td>0 - 0</td><td></td><td>{presence}</td></tr></table></div>"
        },
        "status": "final",
        "subject": {
          "reference": "urn:uuid:6c03d3bc-a934-4e4a-86f8-bbd0dd1b7ea9",
          "display": "Iva Kratochvílová"
        },
        "effectiveDateTime": "2016-05-16T21:24:23Z",
        "specimen": {
          "reference": "urn:uuid:a4e59827-3c45-492d-a9c6-a60777a10bd3"
        }
      }
    },
    {
      "fullUrl": "urn:uuid:34b311ff-23b9-4066-817a-1ce776e9013e",
      "resource": {
        "resourceType": "Observation",
        "id": "34b311ff-23b9-4066-817a-1ce776e9013e",
        "meta": {
          "profile": [
            "http://hl7.eu/fhir/laboratory/StructureDefinition/Observation-resultslab-eu-lab"
          ]
        },
        "performer": [
          {
            "display": "The Central European Lab"
          }
        ],
        "category": [
          {
            "coding": [
              {
                "system": "http://terminology.hl7.org/CodeSystem/observation-category",
                "code": "laboratory"
              }
            ]
          }
        ],
        "code": {
          "coding": [
            {
              "code": "5802-4",
              "system": "http://loinc.org",
              "display": "Nitrite [Presence] in Urine by Test strip"
            }
          ],
          "text": "Nitrite [Presence] in Urine by Test strip"
        },
        "valueQuantity": {
          "system": "http://unitsofmeasure.org",
          "value": 0,
          "unit": "{presence}",
          "code": "{presence}"
        },
        "referenceRange": [
          {
            "low": {
              "value": 0,
              "code": "Presence",
              "system": "http://unitsofmeasure.org"
            }
          },
          {
            "high": {
              "value": 0,
              "code": "Presence",
              "system": "http://unitsofmeasure.org"
            }
          }
        ],
        "text": {
          "status": "generated",
          "div": "<div xmlns=\"http://www.w3.org/1999/xhtml\"><table class=\"hl7__eu__lab__report\"><tr><th>Test</th><th>16-May-2016</th><th>Reference&#xA0;Range</th><th>Unit</th></tr><tr><td>Nitrite [Presence] in Urine by Test strip</td><td>0.0</td><td>0 - 0</td><td></td><td>{presence}</td></tr></table></div>"
        },
        "status": "final",
        "subject": {
          "reference": "urn:uuid:6c03d3bc-a934-4e4a-86f8-bbd0dd1b7ea9",
          "display": "Iva Kratochvílová"
        },
        "effectiveDateTime": "2016-05-16T21:24:23Z",
        "specimen": {
          "reference": "urn:uuid:a4e59827-3c45-492d-a9c6-a60777a10bd3"
        }
      }
    },
    {
      "fullUrl": "urn:uuid:09da0ee3-c42f-4847-a8ce-f621aff8fcb1",
      "resource": {
        "resourceType": "Observation",
        "id": "09da0ee3-c42f-4847-a8ce-f621aff8fcb1",
        "meta": {
          "profile": [
            "http://hl7.eu/fhir/laboratory/StructureDefinition/Observation-resultslab-eu-lab"
          ]
        },
        "performer": [
          {
            "display": "The Central European Lab"
          }
        ],
        "category": [
          {
            "coding": [
              {
                "system": "http://terminology.hl7.org/CodeSystem/observation-category",
                "code": "laboratory"
              }
            ]
          }
        ],
        "code": {
          "coding": [
            {
              "code": "5794-3",
              "system": "http://loinc.org",
              "display": "Hemoglobin [Presence] in Urine by Test strip"
            }
          ],
          "text": "Hemoglobin [Presence] in Urine by Test strip"
        },
        "valueQuantity": {
          "system": "http://unitsofmeasure.org",
          "value": 0,
          "unit": "{presence}",
          "code": "{presence}"
        },
        "referenceRange": [
          {
            "low": {
              "value": 0,
              "code": "Presence",
              "system": "http://unitsofmeasure.org"
            }
          },
          {
            "high": {
              "value": 0,
              "code": "Presence",
              "system": "http://unitsofmeasure.org"
            }
          }
        ],
        "text": {
          "status": "generated",
          "div": "<div xmlns=\"http://www.w3.org/1999/xhtml\"><table class=\"hl7__eu__lab__report\"><tr><th>Test</th><th>16-May-2016</th><th>Reference&#xA0;Range</th><th>Unit</th></tr><tr><td>Hemoglobin [Presence] in Urine by Test strip</td><td>0.0</td><td>0 - 0</td><td></td><td>{presence}</td></tr></table></div>"
        },
        "status": "final",
        "subject": {
          "reference": "urn:uuid:6c03d3bc-a934-4e4a-86f8-bbd0dd1b7ea9",
          "display": "Iva Kratochvílová"
        },
        "effectiveDateTime": "2016-05-16T21:24:23Z",
        "specimen": {
          "reference": "urn:uuid:a4e59827-3c45-492d-a9c6-a60777a10bd3"
        }
      }
    },
    {
      "fullUrl": "urn:uuid:08aa5c23-b66a-4c3b-a6b0-f375857923f0",
      "resource": {
        "resourceType": "Observation",
        "id": "08aa5c23-b66a-4c3b-a6b0-f375857923f0",
        "meta": {
          "profile": [
            "http://hl7.eu/fhir/laboratory/StructureDefinition/Observation-resultslab-eu-lab"
          ]
        },
        "performer": [
          {
            "display": "The Central European Lab"
          }
        ],
        "category": [
          {
            "coding": [
              {
                "system": "http://terminology.hl7.org/CodeSystem/observation-category",
                "code": "laboratory"
              }
            ]
          }
        ],
        "code": {
          "coding": [
            {
              "code": "5799-2",
              "system": "http://loinc.org",
              "display": "Leukocyte esterase [Presence] in Urine by Test strip"
            }
          ],
          "text": "Leukocyte esterase [Presence] in Urine by Test strip"
        },
        "valueQuantity": {
          "system": "http://unitsofmeasure.org",
          "value": 0,
          "unit": "{presence}",
          "code": "{presence}"
        },
        "referenceRange": [
          {
            "low": {
              "value": 0,
              "code": "Presence",
              "system": "http://unitsofmeasure.org"
            }
          },
          {
            "high": {
              "value": 0,
              "code": "Presence",
              "system": "http://unitsofmeasure.org"
            }
          }
        ],
        "text": {
          "status": "generated",
          "div": "<div xmlns=\"http://www.w3.org/1999/xhtml\"><table class=\"hl7__eu__lab__report\"><tr><th>Test</th><th>16-May-2016</th><th>Reference&#xA0;Range</th><th>Unit</th></tr><tr><td>Leukocyte esterase [Presence] in Urine by Test strip</td><td>0.0</td><td>0 - 0</td><td></td><td>{presence}</td></tr></table></div>"
        },
        "status": "final",
        "subject": {
          "reference": "urn:uuid:6c03d3bc-a934-4e4a-86f8-bbd0dd1b7ea9",
          "display": "Iva Kratochvílová"
        },
        "effectiveDateTime": "2016-05-16T21:24:23Z",
        "specimen": {
          "reference": "urn:uuid:a4e59827-3c45-492d-a9c6-a60777a10bd3"
        }
      }
    },
    {
      "fullUrl": "urn:uuid:881af00a-96a1-4bbe-a518-c7d7e0e5828c",
      "resource": {
        "resourceType": "Device",
        "id": "881af00a-96a1-4bbe-a518-c7d7e0e5828c",
        "deviceName": [
          {
            "name": "SYNDERAI Synthetic Generator",
            "type": "manufacturer-name"
          }
        ],
        "version": [
          {
            "value": "5.0"
          }
        ],
        "text": {
          "status": "generated",
          "div": "<div xmlns=\"http://www.w3.org/1999/xhtml\">SYNDERAI Synthetic Generator v5.0</div>"
        },
        "status": "active\"",
        "distinctIdentifier": "synderai-generator-50",
        "manufacturer": "SYNDERAI Project"
      }
    },
    {
      "fullUrl": "urn:uuid:f79dcd5c-78e1-4536-a38c-c74662137160",
      "resource": {
        "resourceType": "Provenance",
        "id": "f79dcd5c-78e1-4536-a38c-c74662137160",
        "target": [
          {
            "reference": "Patient/6c03d3bc-a934-4e4a-86f8-bbd0dd1b7ea9"
          },
          {
            "reference": "Bundle/4c584c1e-b1e9-4114-9728-949c7af7dc0e"
          },
          {
            "reference": "Composition/908fea41-211c-455c-ab27-c0e11c95b70e"
          },
          {
            "reference": "PractitionerRole/3d7b542e-25f6-4fd9-8d5e-51e8bd43b20a"
          },
          {
            "reference": "Practitioner/74e9fe60-1691-4e4a-b17a-3b8c86906425"
          },
          {
            "reference": "PractitionerRole/5d409c6f-152d-4cb0-82b7-eeb5c522b081"
          },
          {
            "reference": "Organization/b3f6fbbc-fe26-40a4-b05a-413c2afa5ab3"
          }
        ],
        "activity": {
          "text": "Synthetic Example Data Generation"
        },
        "policy": [
          "https://synderai.net/synderai-synthetic-data-policy"
        ],
        "agent": [
          {
            "type": {
              "text": "author"
            },
            "who": {
              "reference": "Device/881af00a-96a1-4bbe-a518-c7d7e0e5828c"
            }
          }
        ],
        "reason": [
          {
            "text": "Interoperability Testing and Training (non-clinical use)"
          }
        ],
        "text": {
          "status": "generated",
          "div": "<div xmlns=\"http://www.w3.org/1999/xhtml\">Provenance for SYNDERAI Synthetic Example Data Resource</div>"
        },
        "recorded": "2016-05-16T23:24:23Z"
      }
    },
    {
      "fullUrl": "urn:uuid:3d7b542e-25f6-4fd9-8d5e-51e8bd43b20a",
      "resource": {
        "resourceType": "PractitionerRole",
        "id": "3d7b542e-25f6-4fd9-8d5e-51e8bd43b20a",
        "meta": {
          "profile": [
            "http://hl7.eu/fhir/base/StructureDefinition/practitionerRole-eu"
          ]
        },
        "text": {
          "status": "generated",
          "div": "<div xmlns=\"http://www.w3.org/1999/xhtml\">Laboratory Role Id: 3d7b542e-25f6-4fd9-8d5e-51e8bd43b20a</div>"
        },
        "practitioner": {
          "reference": "urn:uuid:74e9fe60-1691-4e4a-b17a-3b8c86906425"
        }
      }
    },
    {
      "fullUrl": "urn:uuid:74e9fe60-1691-4e4a-b17a-3b8c86906425",
      "resource": {
        "resourceType": "Practitioner",
        "id": "74e9fe60-1691-4e4a-b17a-3b8c86906425",
        "meta": {
          "profile": [
            "http://hl7.eu/fhir/base/StructureDefinition/practitioner-eu"
          ]
        },
        "identifier": [
          {
            "assigner": {
              "display": "HL7 Europe"
            },
            "system": "urn:oid:2.16.840.1.113883.2.51.999",
            "value": "81faa0c3-8677-4f33-a8e2-f43893d1c459"
          }
        ],
        "name": [
          {
            "prefix": [
              "dr"
            ],
            "given": [
              "Ex"
            ],
            "family": "Ample"
          }
        ],
        "address": [
          {
            "line": [
              "Laboratoire Central Européenne",
              "Boulevard du Jardin Botanique 32"
            ],
            "postalCode": "1000",
            "city": "Brussels",
            "country": "Belgium"
          }
        ],
        "text": {
          "status": "generated",
          "div": "<div xmlns=\"http://www.w3.org/1999/xhtml\">Laboratory: Laboratoire Central Européenne, 1000 Brussels, Belgium</div>"
        }
      }
    }
  ],
  "type": "document",
  "timestamp": "2016-05-16T23:24:23Z"
}
