{
  "resourceType": "Bundle",
  "id": "78c8bf0e-d829-45bb-811e-1a3d86892de6",
  "meta": {
    "profile": [
      "http://hl7.eu/fhir/laboratory/StructureDefinition/Bundle-eu-lab"
    ]
  },
  "identifier": {
    "assigner": {
      "display": "HL7 Europe"
    },
    "system": "urn:oid:2.16.840.1.113883.2.51.999",
    "value": "61cd1a48-2990-4900-ba10-b133958e2681"
  },
  "entry": [
    {
      "fullUrl": "urn:uuid:32bdd2e3-f06e-431b-9cc6-82f5addaa0b3",
      "resource": {
        "resourceType": "Composition",
        "id": "32bdd2e3-f06e-431b-9cc6-82f5addaa0b3",
        "meta": {
          "profile": [
            "http://hl7.eu/fhir/laboratory/StructureDefinition/Composition-eu-lab"
          ]
        },
        "identifier": {
          "assigner": {
            "display": "HL7 Europe"
          },
          "system": "urn:oid:2.16.840.1.113883.2.51.999",
          "value": "4cea00ca-8f39-4078-92e1-44c84d614f9e"
        },
        "author": [
          {
            "reference": "urn:uuid:9c2f8986-c0f8-46db-9294-5521321fbafc"
          }
        ],
        "category": [
          {
            "coding": [
              {
                "code": "26436-6",
                "system": "http://loinc.org",
                "display": "Laboratory studies (set)"
              }
            ]
          }
        ],
        "type": {
          "coding": [
            {
              "code": "11502-2",
              "system": "http://loinc.org",
              "display": "Laboratory report"
            }
          ],
          "text": "Laboratory Report"
        },
        "section": [
          {
            "code": {
              "coding": [
                {
                  "code": "26436-6",
                  "system": "http://loinc.org",
                  "display": "Laboratory studies (set)"
                }
              ],
              "text": "Laboratory studies"
            },
            "section": [
              {
                "code": {
                  "coding": [
                    {
                      "code": "$18719-5",
                      "system": "http://loinc.org",
                      "display": "Chemistry studies (set)"
                    }
                  ],
                  "text": "Chemistry"
                },
                "entry": [
                  {
                    "reference": "urn:uuid:5d0ffa4b-9e6f-4562-b59c-00e95b30e2c2"
                  },
                  {
                    "reference": "urn:uuid:4400b5b7-0d7b-4c1a-85d1-5cf1ff8ea832"
                  },
                  {
                    "reference": "urn:uuid:d1fb3f88-9501-4573-8f06-18914e33d4f4"
                  },
                  {
                    "reference": "urn:uuid:58b88303-77ab-442c-9f1a-0d365f2381e6"
                  },
                  {
                    "reference": "urn:uuid:7576e18e-7964-439f-a533-1c31dacb8232"
                  },
                  {
                    "reference": "urn:uuid:8f5e2ad1-0e77-4cf9-bbee-f6f5824bb28e"
                  },
                  {
                    "reference": "urn:uuid:e1e86780-0560-4982-8939-9af403cedc92"
                  },
                  {
                    "reference": "urn:uuid:1851f3b0-7924-4ed9-b82b-a2b500cf5de1"
                  },
                  {
                    "reference": "urn:uuid:93e7447a-301c-471d-a1a4-a67f3dbaf59b"
                  },
                  {
                    "reference": "urn:uuid:784a91fe-c7b6-4951-88b9-1901e7211b73"
                  },
                  {
                    "reference": "urn:uuid:e7f55c25-5356-453d-a838-80a98729a3e8"
                  },
                  {
                    "reference": "urn:uuid:9d6b1322-6be9-4bbc-860a-bf404b47b95a"
                  },
                  {
                    "reference": "urn:uuid:15150a73-6c51-4f65-9629-cf86d7ae1e2b"
                  },
                  {
                    "reference": "urn:uuid:b039a05a-36a1-474d-a69d-f8cdb9292567"
                  },
                  {
                    "reference": "urn:uuid:1325c414-def3-4895-82ba-6a48b995d7cb"
                  },
                  {
                    "reference": "urn:uuid:17806097-d29b-45cc-8a80-fc9d649f0f19"
                  }
                ],
                "text": {
                  "status": "generated",
                  "div": "<div xmlns=\"http://www.w3.org/1999/xhtml\"><h3>Chemistry</h3><table class=\"hl7__eu__lab__report\"><thead><tr><th>Test</th><th>10-SEP-2015</th><th>Reference&#xA0;Range</th><th>Unit</th></tr></thead><tbody><tr><td>Glucose [Mass/volume] in Blood</td><td>95.9</td><td>70 - 140</td><td>mg/dL</td></tr><tr><td>Urea nitrogen [Mass/volume] in Blood</td><td>7.2</td><td>7 - 30</td><td>mg/dL</td></tr><tr><td>Creatinine [Mass/volume] in Blood</td><td><strong>2.5 H</strong></td><td>0.5 - 1.3</td><td>mg/dL</td></tr><tr><td>Calcium [Mass/volume] in Blood</td><td>8.8</td><td>8.6 - 10.2</td><td>mg/dL</td></tr><tr><td>Sodium [Moles/volume] in Blood</td><td>136.7</td><td>135 - 145</td><td>mmol/L</td></tr><tr><td>Potassium [Moles/volume] in Blood</td><td>3.8</td><td>3.5 - 5.1</td><td>mmol/L</td></tr><tr><td>Chloride [Moles/volume] in Blood</td><td>106.1</td><td>98 - 114</td><td>mmol/L</td></tr><tr><td>Carbon dioxide, total [Moles/volume] in Blood</td><td>24.2</td><td>22 - 32</td><td>mmol/L</td></tr><tr><td>Protein [Mass/volume] in Serum or Plasma</td><td>6.5</td><td>6 - 8.3</td><td>g/dL</td></tr><tr><td>Albumin [Mass/volume] in Serum or Plasma</td><td>3.7</td><td>3.5 - 5.5</td><td>g/dL</td></tr><tr><td>Globulin [Mass/volume] in Serum by calculation</td><td>3.2</td><td>2 - 3.5</td><td>g/L</td></tr><tr><td>Bilirubin.total [Mass/volume] in Serum or Plasma</td><td>1.0</td><td>0.3 - 1.2</td><td>mg/dL</td></tr><tr><td>Alkaline phosphatase [Enzymatic activity/volume] in Serum or Plasma</td><td><strong>29.5 L</strong></td><td>44 - 142</td><td>U/L</td></tr><tr><td>Alanine aminotransferase [Enzymatic activity/volume] in Serum or Plasma</td><td><strong>56.8 H</strong></td><td>7 - 40</td><td>U/L</td></tr><tr><td>Aspartate aminotransferase [Enzymatic activity/volume] in Serum or Plasma</td><td>22.8</td><td>10 - 40</td><td>U/L</td></tr><tr><td>Ketones [Presence] in Urine by Test strip</td><td>Urine ketone test = +++</td><td></td><td></td></tr></tbody></table></div>"
                },
                "title": "Chemistry"
              },
              {
                "code": {
                  "coding": [
                    {
                      "code": "$18729-4",
                      "system": "http://loinc.org",
                      "display": "Urinalysis studies (set)"
                    }
                  ],
                  "text": "Urinalysis"
                },
                "entry": [
                  {
                    "reference": "urn:uuid:1f85c73c-38b2-4279-8c1f-1f1bf6cb7db0"
                  },
                  {
                    "reference": "urn:uuid:a38defae-70a7-420e-b718-69f02c22b3f9"
                  },
                  {
                    "reference": "urn:uuid:ce943d5d-873a-4c91-83fd-3cd22c175485"
                  },
                  {
                    "reference": "urn:uuid:54d1c087-5838-4f10-9129-cce011c6cf2b"
                  },
                  {
                    "reference": "urn:uuid:294f694f-b6df-4889-9c0e-183b17e865ea"
                  },
                  {
                    "reference": "urn:uuid:24e76261-5356-4888-92c0-470b4bd66c15"
                  },
                  {
                    "reference": "urn:uuid:8bd48608-14e3-42bd-b6fc-0174eac23345"
                  },
                  {
                    "reference": "urn:uuid:a53738cc-edb1-44f7-9033-495f381038a7"
                  },
                  {
                    "reference": "urn:uuid:e3d5779d-335a-47de-b4a2-dad914189602"
                  },
                  {
                    "reference": "urn:uuid:c9a9f181-2a12-4582-bd55-d3c8b0c25277"
                  },
                  {
                    "reference": "urn:uuid:5ba8f2b1-f286-40f0-85cc-f376c2c706dd"
                  },
                  {
                    "reference": "urn:uuid:a3ca7f56-4206-458e-8a66-4d4a68bf7e33"
                  }
                ],
                "text": {
                  "status": "generated",
                  "div": "<div xmlns=\"http://www.w3.org/1999/xhtml\"><h3>Urinalysis</h3><table class=\"hl7__eu__lab__report\"><thead><tr><th>Test</th><th>10-SEP-2015</th><th>Reference&#xA0;Range</th><th>Unit</th></tr></thead><tbody><tr><td>Glucose [Mass/volume] in Urine by Test strip</td><td><strong>2.3 H</strong></td><td>0.8 - 0</td><td>mg/dL</td></tr><tr><td>Glucose [Presence] in Urine by Test strip</td><td>++</td><td></td><td></td></tr><tr><td>Bilirubin.total [Mass/volume] in Urine by Test strip</td><td>1.4</td><td>0 - 1.5</td><td>mg/dL</td></tr><tr><td>Bilirubin.total [Presence] in Urine by Test strip</td><td>Finding of bilirubin in urine</td><td></td><td></td></tr><tr><td>Ketones [Mass/volume] in Urine by Test strip</td><td>2.2</td><td>0 - 8</td><td>mg/dL</td></tr><tr><td>Specific gravity of Urine by Test strip</td><td><strong>1.0 L</strong></td><td>1.01 - 1.03</td><td>{nominal}</td></tr><tr><td>pH of Urine by Test strip</td><td>5.7</td><td>4.6 - 7.5</td><td>pH</td></tr><tr><td>Protein [Mass/volume] in Urine by Test strip</td><td><strong>382.3 H</strong></td><td>0 - 14</td><td>mg/dL</td></tr><tr><td>Protein [Presence] in Urine by Test strip</td><td>Urine protein test = +++</td><td></td><td></td></tr><tr><td>Nitrite [Presence] in Urine by Test strip</td><td>Urine nitrite negative</td><td></td><td></td></tr><tr><td>Hemoglobin [Presence] in Urine by Test strip</td><td>Urine blood test = negative</td><td></td><td></td></tr><tr><td>Leukocyte esterase [Presence] in Urine by Test strip</td><td>Urine leukocyte test negative</td><td></td><td></td></tr></tbody></table></div>"
                },
                "title": "Urinalysis"
              },
              {
                "code": {
                  "coding": [
                    {
                      "code": "$LP7846-1",
                      "system": "http://loinc.org",
                      "display": "Specimen information"
                    }
                  ],
                  "text": "Specimen information"
                },
                "entry": [
                  {
                    "reference": "urn:uuid:a79fdab3-3048-43f4-83b3-2b04cd2bd440"
                  },
                  {
                    "reference": "urn:uuid:5d1c2e7c-7f31-4b23-bc62-bcd96bb7939b"
                  },
                  {
                    "reference": "urn:uuid:611b4070-b486-4561-88a0-4d13a068223f"
                  },
                  {
                    "reference": "urn:uuid:a148e160-9ca9-4060-98a3-edbefb4fdcd8"
                  }
                ],
                "text": {
                  "status": "generated",
                  "div": "<div xmlns=\"http://www.w3.org/1999/xhtml\"><h3>Specimen information</h3><table class=\"hl7__eu__lab__report\"><thead><tr><th>Test</th><th>10-SEP-2015</th><th>Specimen</th><th></th></tr></thead><tbody><tr><td>Appearance of Urine</td><td>Cloudy urine</td><td>Urine</td><td></td></tr><tr><td>Odor of Urine</td><td>Urine smell ammoniacal</td><td>Urine</td><td></td></tr><tr><td>Clarity of Urine</td><td>Translucent</td><td>Urine</td><td></td></tr><tr><td>Color of Urine</td><td>Brown color</td><td>Urine</td><td></td></tr></tbody></table></div>"
                },
                "title": "Specimen information"
              }
            ],
            "title": "Laboratory Report"
          },
          {
            "text": {
              "status": "generated",
              "div": "<div xmlns=\"http://www.w3.org/1999/xhtml\"><h3>Annotation</h3><table class=\"hl7__eu__lab__report\"><tr><th>Conclusion and Recommendations based on this report and previous findings known to us</th></tr><tr><td>The patient shows elevated serum creatinine, indicating impaired renal function, and significant proteinuria, glycosuria, and ketonuria, suggesting possible diabetic nephropathy or acute kidney injury. Elevated ALT may indicate mild liver involvement. Urine is abnormal in appearance and color, with low specific gravity, but no evidence of infection. Further nephrological and diabetic evaluation is recommended.</td></tr></table></div>"
            },
            "code": {
              "coding": [
                {
                  "system": "http://loinc.org",
                  "code": "48767-8",
                  "display": "Annotation comment"
                }
              ]
            },
            "title": "Annotation comment"
          }
        ],
        "status": "final",
        "subject": {
          "reference": "urn:uuid:d889cd9f-56bd-44e0-9f91-b8ae54309170",
          "display": "Maria Nohlmans"
        },
        "date": "2015-09-10T02:50:39Z",
        "title": "Laboratory Report",
        "confidentiality": "N"
      }
    },
    {
      "fullUrl": "urn:uuid:df18b86f-acf6-424e-9002-2bd6118208c4",
      "resource": {
        "resourceType": "DiagnosticReport",
        "id": "df18b86f-acf6-424e-9002-2bd6118208c4",
        "meta": {
          "profile": [
            "http://hl7.eu/fhir/laboratory/StructureDefinition/DiagnosticReport-eu-lab"
          ]
        },
        "identifier": [
          {
            "assigner": {
              "display": "HL7 Europe"
            },
            "system": "urn:oid:2.16.840.1.113883.2.51.999",
            "value": "04b50f65-3e0a-4962-b0ce-ff759652e199"
          }
        ],
        "extension": [
          {
            "url": "http://hl7.org/fhir/5.0/StructureDefinition/extension-DiagnosticReport.composition",
            "valueReference": {
              "reference": "urn:uuid:4cea00ca-8f39-4078-92e1-44c84d614f9e"
            }
          }
        ],
        "category": [
          {
            "coding": [
              {
                "code": "26436-6",
                "system": "http://loinc.org",
                "display": "Laboratory studies (set)"
              }
            ]
          }
        ],
        "specimen": [
          {
            "reference": "urn:uuid:974960a5-d4da-4952-9039-0111bdbd3a17"
          },
          {
            "reference": "urn:uuid:bf82dc08-636a-4330-ba42-a3d7fdef83fc"
          },
          {
            "reference": "urn:uuid:62f2fd95-57ec-4a82-9948-b10ff39324c2"
          },
          {
            "reference": "urn:uuid:5268dbda-16af-4db7-af41-50f1f8570e3c"
          }
        ],
        "result": [
          {
            "reference": "urn:uuid:5d0ffa4b-9e6f-4562-b59c-00e95b30e2c2"
          },
          {
            "reference": "urn:uuid:4400b5b7-0d7b-4c1a-85d1-5cf1ff8ea832"
          },
          {
            "reference": "urn:uuid:d1fb3f88-9501-4573-8f06-18914e33d4f4"
          },
          {
            "reference": "urn:uuid:58b88303-77ab-442c-9f1a-0d365f2381e6"
          },
          {
            "reference": "urn:uuid:7576e18e-7964-439f-a533-1c31dacb8232"
          },
          {
            "reference": "urn:uuid:8f5e2ad1-0e77-4cf9-bbee-f6f5824bb28e"
          },
          {
            "reference": "urn:uuid:e1e86780-0560-4982-8939-9af403cedc92"
          },
          {
            "reference": "urn:uuid:1851f3b0-7924-4ed9-b82b-a2b500cf5de1"
          },
          {
            "reference": "urn:uuid:93e7447a-301c-471d-a1a4-a67f3dbaf59b"
          },
          {
            "reference": "urn:uuid:784a91fe-c7b6-4951-88b9-1901e7211b73"
          },
          {
            "reference": "urn:uuid:e7f55c25-5356-453d-a838-80a98729a3e8"
          },
          {
            "reference": "urn:uuid:9d6b1322-6be9-4bbc-860a-bf404b47b95a"
          },
          {
            "reference": "urn:uuid:15150a73-6c51-4f65-9629-cf86d7ae1e2b"
          },
          {
            "reference": "urn:uuid:b039a05a-36a1-474d-a69d-f8cdb9292567"
          },
          {
            "reference": "urn:uuid:1325c414-def3-4895-82ba-6a48b995d7cb"
          },
          {
            "reference": "urn:uuid:a79fdab3-3048-43f4-83b3-2b04cd2bd440"
          },
          {
            "reference": "urn:uuid:5d1c2e7c-7f31-4b23-bc62-bcd96bb7939b"
          },
          {
            "reference": "urn:uuid:611b4070-b486-4561-88a0-4d13a068223f"
          },
          {
            "reference": "urn:uuid:a148e160-9ca9-4060-98a3-edbefb4fdcd8"
          },
          {
            "reference": "urn:uuid:1f85c73c-38b2-4279-8c1f-1f1bf6cb7db0"
          },
          {
            "reference": "urn:uuid:a38defae-70a7-420e-b718-69f02c22b3f9"
          },
          {
            "reference": "urn:uuid:ce943d5d-873a-4c91-83fd-3cd22c175485"
          },
          {
            "reference": "urn:uuid:54d1c087-5838-4f10-9129-cce011c6cf2b"
          },
          {
            "reference": "urn:uuid:294f694f-b6df-4889-9c0e-183b17e865ea"
          },
          {
            "reference": "urn:uuid:17806097-d29b-45cc-8a80-fc9d649f0f19"
          },
          {
            "reference": "urn:uuid:24e76261-5356-4888-92c0-470b4bd66c15"
          },
          {
            "reference": "urn:uuid:8bd48608-14e3-42bd-b6fc-0174eac23345"
          },
          {
            "reference": "urn:uuid:a53738cc-edb1-44f7-9033-495f381038a7"
          },
          {
            "reference": "urn:uuid:e3d5779d-335a-47de-b4a2-dad914189602"
          },
          {
            "reference": "urn:uuid:c9a9f181-2a12-4582-bd55-d3c8b0c25277"
          },
          {
            "reference": "urn:uuid:5ba8f2b1-f286-40f0-85cc-f376c2c706dd"
          },
          {
            "reference": "urn:uuid:a3ca7f56-4206-458e-8a66-4d4a68bf7e33"
          }
        ],
        "status": "registered",
        "code": {
          "coding": [
            {
              "code": "11502-2",
              "system": "http://loinc.org",
              "display": "Laboratory report"
            }
          ]
        },
        "subject": {
          "reference": "urn:uuid:d889cd9f-56bd-44e0-9f91-b8ae54309170",
          "display": "Maria Nohlmans"
        }
      }
    },
    {
      "fullUrl": "urn:uuid:d889cd9f-56bd-44e0-9f91-b8ae54309170",
      "resource": {
        "resourceType": "Patient",
        "id": "d889cd9f-56bd-44e0-9f91-b8ae54309170",
        "meta": {
          "security": [
            {
              "system": "http://terminology.hl7.org/CodeSystem/v3-ActReason",
              "code": "HTEST"
            },
            {
              "system": "http://terminology.hl7.org/CodeSystem/v3-ActReason",
              "code": "TRAIN"
            }
          ],
          "tag": [
            {
              "system": "https://synderai.net/fhir/CodeSystem/tags",
              "code": "synthetic",
              "display": "SYNDERAI Synthetic data"
            }
          ],
          "profile": [
            "http://hl7.eu/fhir/base/StructureDefinition/patient-eu-core"
          ]
        },
        "identifier": [
          {
            "type": {
              "coding": [
                {
                  "code": "PT",
                  "system": "http://terminology.hl7.org/CodeSystem/v2-0203"
                }
              ]
            },
            "system": "http://ec.europa.eu/identifier/eci",
            "value": "6886-506417-1"
          },
          {
            "type": {
              "coding": [
                {
                  "code": "MR",
                  "system": "http://terminology.hl7.org/CodeSystem/v2-0203"
                }
              ]
            },
            "system": "http://local.setting.eu/identifier",
            "value": "2cb21ed6-b617-b1f3-2290-589a710de5ee"
          }
        ],
        "name": [
          {
            "family": "Nohlmans"
          },
          {
            "given": [
              "Maria"
            ]
          },
          {
            "text": "Maria Nohlmans"
          }
        ],
        "address": [
          {
            "line": [
              "Alfons-Wulff-Weg 1"
            ],
            "use": "home",
            "type": "physical",
            "postalCode": "25813",
            "city": "Husum",
            "country": "Germany"
          }
        ],
        "telecom": [
          {
            "system": "phone",
            "value": "+49(0)1911 105501"
          }
        ],
        "extension": [
          {
            "url": "http://hl7.org/fhir/StructureDefinition/patient-nationality",
            "valueCodeableConcept": {
              "coding": [
                {
                  "code": "DE",
                  "system": "http://hl7.org/fhir/ValueSet/country"
                }
              ]
            }
          }
        ],
        "text": {
          "status": "generated",
          "div": "<div xmlns=\"http://www.w3.org/1999/xhtml\"><table class=\"hl7__ips\"><tr><td>Maria Nohlmans</td><td>female</td><td>11-Jun-1947</td></tr></table></div>"
        },
        "gender": "female",
        "birthDate": "1947-06-11"
      }
    },
    {
      "fullUrl": "urn:uuid:0ce4673e-6eab-41ec-81c1-e0b5755b29e4",
      "resource": {
        "resourceType": "ServiceRequest",
        "id": "0ce4673e-6eab-41ec-81c1-e0b5755b29e4",
        "meta": {
          "profile": [
            "http://hl7.eu/fhir/laboratory/StructureDefinition/ServiceRequest-eu-lab"
          ]
        },
        "identifier": [
          {
            "system": "http://example.org",
            "value": "e465e2ea-b98e-4f56-864b-733ba2546476"
          }
        ],
        "specimen": [
          {
            "reference": "urn:uuid:974960a5-d4da-4952-9039-0111bdbd3a17"
          },
          {
            "reference": "urn:uuid:bf82dc08-636a-4330-ba42-a3d7fdef83fc"
          },
          {
            "reference": "urn:uuid:62f2fd95-57ec-4a82-9948-b10ff39324c2"
          },
          {
            "reference": "urn:uuid:5268dbda-16af-4db7-af41-50f1f8570e3c"
          }
        ],
        "reasonCode": [
          {
            "coding": [
              {
                "code": "401314000",
                "system": "http://snomed.info/sct",
                "display": "Acute non-ST segment elevation myocardial infarction"
              }
            ]
          },
          {
            "coding": [
              {
                "code": "157141000119108",
                "system": "http://snomed.info/sct",
                "display": "Proteinuria due to type 2 diabetes mellitus"
              }
            ]
          },
          {
            "coding": [
              {
                "code": "237602007",
                "system": "http://snomed.info/sct",
                "display": "Metabolic syndrome X"
              }
            ]
          },
          {
            "coding": [
              {
                "code": "90781000119102",
                "system": "http://snomed.info/sct",
                "display": "Microalbuminuria due to type 2 diabetes mellitus"
              }
            ]
          },
          {
            "coding": [
              {
                "code": "127013003",
                "system": "http://snomed.info/sct",
                "display": "Disorder of kidney due to diabetes mellitus"
              }
            ]
          },
          {
            "coding": [
              {
                "code": "59621000",
                "system": "http://snomed.info/sct",
                "display": "Essential hypertension"
              }
            ]
          },
          {
            "coding": [
              {
                "code": "271737000",
                "system": "http://snomed.info/sct",
                "display": "Anemia"
              }
            ]
          },
          {
            "coding": [
              {
                "code": "15777000",
                "system": "http://snomed.info/sct",
                "display": "Prediabetes"
              }
            ]
          }
        ],
        "status": "active",
        "intent": "order",
        "code": {
          "coding": [
            {
              "code": "108252007",
              "system": "http://snomed.info/sct",
              "display": "Laboratory procedure"
            }
          ]
        },
        "subject": {
          "reference": "urn:uuid:d889cd9f-56bd-44e0-9f91-b8ae54309170",
          "display": "Maria Nohlmans"
        },
        "requester": {
          "reference": "urn:uuid:c062794e-7465-4e1e-bb05-4748ef06682e"
        }
      }
    },
    {
      "fullUrl": "urn:uuid:c062794e-7465-4e1e-bb05-4748ef06682e",
      "resource": {
        "resourceType": "PractitionerRole",
        "id": "c062794e-7465-4e1e-bb05-4748ef06682e",
        "meta": {
          "profile": [
            "http://hl7.eu/fhir/base/StructureDefinition/practitionerRole-eu"
          ]
        },
        "text": {
          "status": "generated",
          "div": "<div xmlns=\"http://www.w3.org/1999/xhtml\">Provider Role Id: c062794e-7465-4e1e-bb05-4748ef06682e</div>"
        },
        "organization": {
          "reference": "urn:uuid:b7d8a3ef-61b8-4869-83ff-a3634f524272"
        }
      }
    },
    {
      "fullUrl": "urn:uuid:b7d8a3ef-61b8-4869-83ff-a3634f524272",
      "resource": {
        "resourceType": "Organization",
        "id": "b7d8a3ef-61b8-4869-83ff-a3634f524272",
        "meta": {
          "profile": [
            "http://hl7.eu/fhir/base/StructureDefinition/organization-eu"
          ]
        },
        "identifier": [
          {
            "assigner": {
              "display": "HL7 Europe"
            },
            "system": "urn:oid:2.16.840.1.113883.2.51.999",
            "value": "d76b7d64-922a-4d0a-aa27-b44f8a5c58b5"
          }
        ],
        "address": [
          {
            "line": [
              "Brinckmannstraße 35"
            ],
            "city": "Husum",
            "postalCode": "25813",
            "country": "Germany"
          }
        ],
        "text": {
          "status": "generated",
          "div": "<div xmlns=\"http://www.w3.org/1999/xhtml\">Provider Organization: Dr. Wolfram Hussels Kieferorthopäde</div>"
        },
        "name": "Dr. Wolfram Hussels Kieferorthopäde"
      }
    },
    {
      "fullUrl": "urn:uuid:974960a5-d4da-4952-9039-0111bdbd3a17",
      "resource": {
        "resourceType": "Specimen",
        "id": "974960a5-d4da-4952-9039-0111bdbd3a17",
        "meta": {
          "profile": [
            "http://hl7.eu/fhir/laboratory/StructureDefinition/Specimen-eu-lab"
          ]
        },
        "collection": {
          "collectedDateTime": "2015-09-10"
        },
        "text": {
          "status": "generated",
          "div": "<div xmlns=\"http://www.w3.org/1999/xhtml\"><table class=\"hl7__eu__lab__report\"><tr><th>Specimen</th><th>Collection Date</th></tr><tr><td>Whole blood specimen (specimen)</td><td><span class=\"nb\">10-Sep-2015</span></td></tr></table></div>"
        },
        "type": {
          "coding": [
            {
              "code": "258580003",
              "system": "http://snomed.info/sct",
              "display": "Whole blood specimen (specimen)"
            }
          ]
        }
      }
    },
    {
      "fullUrl": "urn:uuid:bf82dc08-636a-4330-ba42-a3d7fdef83fc",
      "resource": {
        "resourceType": "Specimen",
        "id": "bf82dc08-636a-4330-ba42-a3d7fdef83fc",
        "meta": {
          "profile": [
            "http://hl7.eu/fhir/laboratory/StructureDefinition/Specimen-eu-lab"
          ]
        },
        "collection": {
          "collectedDateTime": "2015-09-10"
        },
        "text": {
          "status": "generated",
          "div": "<div xmlns=\"http://www.w3.org/1999/xhtml\"><table class=\"hl7__eu__lab__report\"><tr><th>Specimen</th><th>Collection Date</th></tr><tr><td>Acellular blood (serum or plasma) specimen</td><td><span class=\"nb\">10-Sep-2015</span></td></tr></table></div>"
        },
        "type": {
          "coding": [
            {
              "code": "122592007",
              "system": "http://snomed.info/sct",
              "display": "Acellular blood (serum or plasma) specimen"
            }
          ]
        }
      }
    },
    {
      "fullUrl": "urn:uuid:62f2fd95-57ec-4a82-9948-b10ff39324c2",
      "resource": {
        "resourceType": "Specimen",
        "id": "62f2fd95-57ec-4a82-9948-b10ff39324c2",
        "meta": {
          "profile": [
            "http://hl7.eu/fhir/laboratory/StructureDefinition/Specimen-eu-lab"
          ]
        },
        "collection": {
          "collectedDateTime": "2015-09-10"
        },
        "text": {
          "status": "generated",
          "div": "<div xmlns=\"http://www.w3.org/1999/xhtml\"><table class=\"hl7__eu__lab__report\"><tr><th>Specimen</th><th>Collection Date</th></tr><tr><td>Serum specimen</td><td><span class=\"nb\">10-Sep-2015</span></td></tr></table></div>"
        },
        "type": {
          "coding": [
            {
              "code": "119364003",
              "system": "http://snomed.info/sct",
              "display": "Serum specimen"
            }
          ]
        }
      }
    },
    {
      "fullUrl": "urn:uuid:5268dbda-16af-4db7-af41-50f1f8570e3c",
      "resource": {
        "resourceType": "Specimen",
        "id": "5268dbda-16af-4db7-af41-50f1f8570e3c",
        "meta": {
          "profile": [
            "http://hl7.eu/fhir/laboratory/StructureDefinition/Specimen-eu-lab"
          ]
        },
        "collection": {
          "collectedDateTime": "2015-09-10"
        },
        "text": {
          "status": "generated",
          "div": "<div xmlns=\"http://www.w3.org/1999/xhtml\"><table class=\"hl7__eu__lab__report\"><tr><th>Specimen</th><th>Collection Date</th></tr><tr><td>Urine specimen</td><td><span class=\"nb\">10-Sep-2015</span></td></tr></table></div>"
        },
        "type": {
          "coding": [
            {
              "code": "122575003",
              "system": "http://snomed.info/sct",
              "display": "Urine specimen"
            }
          ]
        }
      }
    },
    {
      "fullUrl": "urn:uuid:5d0ffa4b-9e6f-4562-b59c-00e95b30e2c2",
      "resource": {
        "resourceType": "Observation",
        "id": "5d0ffa4b-9e6f-4562-b59c-00e95b30e2c2",
        "meta": {
          "profile": [
            "http://hl7.eu/fhir/laboratory/StructureDefinition/Observation-resultslab-eu-lab"
          ]
        },
        "performer": [
          {
            "display": "The Central European Lab"
          }
        ],
        "category": [
          {
            "coding": [
              {
                "system": "http://terminology.hl7.org/CodeSystem/observation-category",
                "code": "laboratory"
              }
            ]
          }
        ],
        "code": {
          "coding": [
            {
              "code": "2339-0",
              "system": "http://loinc.org",
              "display": "Glucose [Mass/volume] in Blood"
            }
          ],
          "text": "Glucose [Mass/volume] in Blood"
        },
        "valueQuantity": {
          "system": "http://unitsofmeasure.org",
          "value": 95.9,
          "unit": "mg/dL",
          "code": "mg/dL"
        },
        "referenceRange": [
          {
            "low": {
              "value": 70,
              "code": "mg/dL",
              "system": "http://unitsofmeasure.org"
            }
          },
          {
            "high": {
              "value": 140,
              "code": "mg/dL",
              "system": "http://unitsofmeasure.org"
            }
          }
        ],
        "text": {
          "status": "generated",
          "div": "<div xmlns=\"http://www.w3.org/1999/xhtml\"><table class=\"hl7__eu__lab__report\"><tr><th>Test</th><th>10-Sep-2015</th><th>Reference&#xA0;Range</th><th>Unit</th></tr><tr><td>Glucose [Mass/volume] in Blood</td><td>95.9</td><td>70 - 140</td><td></td><td>mg/dL</td></tr></table></div>"
        },
        "status": "final",
        "subject": {
          "reference": "urn:uuid:d889cd9f-56bd-44e0-9f91-b8ae54309170",
          "display": "Maria Nohlmans"
        },
        "effectiveDateTime": "2015-09-10T00:50:39Z",
        "specimen": {
          "reference": "urn:uuid:974960a5-d4da-4952-9039-0111bdbd3a17"
        }
      }
    },
    {
      "fullUrl": "urn:uuid:4400b5b7-0d7b-4c1a-85d1-5cf1ff8ea832",
      "resource": {
        "resourceType": "Observation",
        "id": "4400b5b7-0d7b-4c1a-85d1-5cf1ff8ea832",
        "meta": {
          "profile": [
            "http://hl7.eu/fhir/laboratory/StructureDefinition/Observation-resultslab-eu-lab"
          ]
        },
        "performer": [
          {
            "display": "The Central European Lab"
          }
        ],
        "category": [
          {
            "coding": [
              {
                "system": "http://terminology.hl7.org/CodeSystem/observation-category",
                "code": "laboratory"
              }
            ]
          }
        ],
        "code": {
          "coding": [
            {
              "code": "6299-2",
              "system": "http://loinc.org",
              "display": "Urea nitrogen [Mass/volume] in Blood"
            }
          ],
          "text": "Urea nitrogen [Mass/volume] in Blood"
        },
        "valueQuantity": {
          "system": "http://unitsofmeasure.org",
          "value": 7.2,
          "unit": "mg/dL",
          "code": "mg/dL"
        },
        "referenceRange": [
          {
            "low": {
              "value": 7,
              "code": "mg/dL",
              "system": "http://unitsofmeasure.org"
            }
          },
          {
            "high": {
              "value": 30,
              "code": "mg/dL",
              "system": "http://unitsofmeasure.org"
            }
          }
        ],
        "text": {
          "status": "generated",
          "div": "<div xmlns=\"http://www.w3.org/1999/xhtml\"><table class=\"hl7__eu__lab__report\"><tr><th>Test</th><th>10-Sep-2015</th><th>Reference&#xA0;Range</th><th>Unit</th></tr><tr><td>Urea nitrogen [Mass/volume] in Blood</td><td>7.2</td><td>7 - 30</td><td></td><td>mg/dL</td></tr></table></div>"
        },
        "status": "final",
        "subject": {
          "reference": "urn:uuid:d889cd9f-56bd-44e0-9f91-b8ae54309170",
          "display": "Maria Nohlmans"
        },
        "effectiveDateTime": "2015-09-10T00:50:39Z",
        "specimen": {
          "reference": "urn:uuid:974960a5-d4da-4952-9039-0111bdbd3a17"
        }
      }
    },
    {
      "fullUrl": "urn:uuid:d1fb3f88-9501-4573-8f06-18914e33d4f4",
      "resource": {
        "resourceType": "Observation",
        "id": "d1fb3f88-9501-4573-8f06-18914e33d4f4",
        "meta": {
          "profile": [
            "http://hl7.eu/fhir/laboratory/StructureDefinition/Observation-resultslab-eu-lab"
          ]
        },
        "performer": [
          {
            "display": "The Central European Lab"
          }
        ],
        "category": [
          {
            "coding": [
              {
                "system": "http://terminology.hl7.org/CodeSystem/observation-category",
                "code": "laboratory"
              }
            ]
          }
        ],
        "code": {
          "coding": [
            {
              "code": "38483-4",
              "system": "http://loinc.org",
              "display": "Creatinine [Mass/volume] in Blood"
            }
          ],
          "text": "Creatinine [Mass/volume] in Blood"
        },
        "valueQuantity": {
          "system": "http://unitsofmeasure.org",
          "value": 2.5,
          "unit": "mg/dL",
          "code": "mg/dL"
        },
        "referenceRange": [
          {
            "low": {
              "value": 0.5,
              "code": "mg/dL",
              "system": "http://unitsofmeasure.org"
            }
          },
          {
            "high": {
              "value": 1.3,
              "code": "mg/dL",
              "system": "http://unitsofmeasure.org"
            }
          }
        ],
        "interpretation": [
          {
            "coding": [
              {
                "code": "H",
                "system": "http://terminology.hl7.org/CodeSystem/v3-ObservationInterpretation",
                "display": "High"
              }
            ]
          }
        ],
        "text": {
          "status": "generated",
          "div": "<div xmlns=\"http://www.w3.org/1999/xhtml\"><table class=\"hl7__eu__lab__report\"><tr><th>Test</th><th>10-Sep-2015</th><th>Reference&#xA0;Range</th><th>Unit</th></tr><tr><td>Creatinine [Mass/volume] in Blood</td><td>2.5</td><td>0.5 - 1.3</td><td>H</td><td>mg/dL</td></tr></table></div>"
        },
        "status": "final",
        "subject": {
          "reference": "urn:uuid:d889cd9f-56bd-44e0-9f91-b8ae54309170",
          "display": "Maria Nohlmans"
        },
        "effectiveDateTime": "2015-09-10T00:50:39Z",
        "specimen": {
          "reference": "urn:uuid:974960a5-d4da-4952-9039-0111bdbd3a17"
        }
      }
    },
    {
      "fullUrl": "urn:uuid:58b88303-77ab-442c-9f1a-0d365f2381e6",
      "resource": {
        "resourceType": "Observation",
        "id": "58b88303-77ab-442c-9f1a-0d365f2381e6",
        "meta": {
          "profile": [
            "http://hl7.eu/fhir/laboratory/StructureDefinition/Observation-resultslab-eu-lab"
          ]
        },
        "performer": [
          {
            "display": "The Central European Lab"
          }
        ],
        "category": [
          {
            "coding": [
              {
                "system": "http://terminology.hl7.org/CodeSystem/observation-category",
                "code": "laboratory"
              }
            ]
          }
        ],
        "code": {
          "coding": [
            {
              "code": "49765-1",
              "system": "http://loinc.org",
              "display": "Calcium [Mass/volume] in Blood"
            }
          ],
          "text": "Calcium [Mass/volume] in Blood"
        },
        "valueQuantity": {
          "system": "http://unitsofmeasure.org",
          "value": 8.8,
          "unit": "mg/dL",
          "code": "mg/dL"
        },
        "referenceRange": [
          {
            "low": {
              "value": 8.6,
              "code": "mg/dL",
              "system": "http://unitsofmeasure.org"
            }
          },
          {
            "high": {
              "value": 10.2,
              "code": "mg/dL",
              "system": "http://unitsofmeasure.org"
            }
          }
        ],
        "text": {
          "status": "generated",
          "div": "<div xmlns=\"http://www.w3.org/1999/xhtml\"><table class=\"hl7__eu__lab__report\"><tr><th>Test</th><th>10-Sep-2015</th><th>Reference&#xA0;Range</th><th>Unit</th></tr><tr><td>Calcium [Mass/volume] in Blood</td><td>8.8</td><td>8.6 - 10.2</td><td></td><td>mg/dL</td></tr></table></div>"
        },
        "status": "final",
        "subject": {
          "reference": "urn:uuid:d889cd9f-56bd-44e0-9f91-b8ae54309170",
          "display": "Maria Nohlmans"
        },
        "effectiveDateTime": "2015-09-10T00:50:39Z",
        "specimen": {
          "reference": "urn:uuid:974960a5-d4da-4952-9039-0111bdbd3a17"
        }
      }
    },
    {
      "fullUrl": "urn:uuid:7576e18e-7964-439f-a533-1c31dacb8232",
      "resource": {
        "resourceType": "Observation",
        "id": "7576e18e-7964-439f-a533-1c31dacb8232",
        "meta": {
          "profile": [
            "http://hl7.eu/fhir/laboratory/StructureDefinition/Observation-resultslab-eu-lab"
          ]
        },
        "performer": [
          {
            "display": "The Central European Lab"
          }
        ],
        "category": [
          {
            "coding": [
              {
                "system": "http://terminology.hl7.org/CodeSystem/observation-category",
                "code": "laboratory"
              }
            ]
          }
        ],
        "code": {
          "coding": [
            {
              "code": "2947-0",
              "system": "http://loinc.org",
              "display": "Sodium [Moles/volume] in Blood"
            }
          ],
          "text": "Sodium [Moles/volume] in Blood"
        },
        "valueQuantity": {
          "system": "http://unitsofmeasure.org",
          "value": 136.7,
          "unit": "mmol/L",
          "code": "mmol/L"
        },
        "referenceRange": [
          {
            "low": {
              "value": 135,
              "code": "mmol/L",
              "system": "http://unitsofmeasure.org"
            }
          },
          {
            "high": {
              "value": 145,
              "code": "mmol/L",
              "system": "http://unitsofmeasure.org"
            }
          }
        ],
        "text": {
          "status": "generated",
          "div": "<div xmlns=\"http://www.w3.org/1999/xhtml\"><table class=\"hl7__eu__lab__report\"><tr><th>Test</th><th>10-Sep-2015</th><th>Reference&#xA0;Range</th><th>Unit</th></tr><tr><td>Sodium [Moles/volume] in Blood</td><td>136.7</td><td>135 - 145</td><td></td><td>mmol/L</td></tr></table></div>"
        },
        "status": "final",
        "subject": {
          "reference": "urn:uuid:d889cd9f-56bd-44e0-9f91-b8ae54309170",
          "display": "Maria Nohlmans"
        },
        "effectiveDateTime": "2015-09-10T00:50:39Z",
        "specimen": {
          "reference": "urn:uuid:974960a5-d4da-4952-9039-0111bdbd3a17"
        }
      }
    },
    {
      "fullUrl": "urn:uuid:8f5e2ad1-0e77-4cf9-bbee-f6f5824bb28e",
      "resource": {
        "resourceType": "Observation",
        "id": "8f5e2ad1-0e77-4cf9-bbee-f6f5824bb28e",
        "meta": {
          "profile": [
            "http://hl7.eu/fhir/laboratory/StructureDefinition/Observation-resultslab-eu-lab"
          ]
        },
        "performer": [
          {
            "display": "The Central European Lab"
          }
        ],
        "category": [
          {
            "coding": [
              {
                "system": "http://terminology.hl7.org/CodeSystem/observation-category",
                "code": "laboratory"
              }
            ]
          }
        ],
        "code": {
          "coding": [
            {
              "code": "6298-4",
              "system": "http://loinc.org",
              "display": "Potassium [Moles/volume] in Blood"
            }
          ],
          "text": "Potassium [Moles/volume] in Blood"
        },
        "valueQuantity": {
          "system": "http://unitsofmeasure.org",
          "value": 3.8,
          "unit": "mmol/L",
          "code": "mmol/L"
        },
        "referenceRange": [
          {
            "low": {
              "value": 3.5,
              "code": "mmol/L",
              "system": "http://unitsofmeasure.org"
            }
          },
          {
            "high": {
              "value": 5.1,
              "code": "mmol/L",
              "system": "http://unitsofmeasure.org"
            }
          }
        ],
        "text": {
          "status": "generated",
          "div": "<div xmlns=\"http://www.w3.org/1999/xhtml\"><table class=\"hl7__eu__lab__report\"><tr><th>Test</th><th>10-Sep-2015</th><th>Reference&#xA0;Range</th><th>Unit</th></tr><tr><td>Potassium [Moles/volume] in Blood</td><td>3.8</td><td>3.5 - 5.1</td><td></td><td>mmol/L</td></tr></table></div>"
        },
        "status": "final",
        "subject": {
          "reference": "urn:uuid:d889cd9f-56bd-44e0-9f91-b8ae54309170",
          "display": "Maria Nohlmans"
        },
        "effectiveDateTime": "2015-09-10T00:50:39Z",
        "specimen": {
          "reference": "urn:uuid:974960a5-d4da-4952-9039-0111bdbd3a17"
        }
      }
    },
    {
      "fullUrl": "urn:uuid:e1e86780-0560-4982-8939-9af403cedc92",
      "resource": {
        "resourceType": "Observation",
        "id": "e1e86780-0560-4982-8939-9af403cedc92",
        "meta": {
          "profile": [
            "http://hl7.eu/fhir/laboratory/StructureDefinition/Observation-resultslab-eu-lab"
          ]
        },
        "performer": [
          {
            "display": "The Central European Lab"
          }
        ],
        "category": [
          {
            "coding": [
              {
                "system": "http://terminology.hl7.org/CodeSystem/observation-category",
                "code": "laboratory"
              }
            ]
          }
        ],
        "code": {
          "coding": [
            {
              "code": "2069-3",
              "system": "http://loinc.org",
              "display": "Chloride [Moles/volume] in Blood"
            }
          ],
          "text": "Chloride [Moles/volume] in Blood"
        },
        "valueQuantity": {
          "system": "http://unitsofmeasure.org",
          "value": 106.1,
          "unit": "mmol/L",
          "code": "mmol/L"
        },
        "referenceRange": [
          {
            "low": {
              "value": 98,
              "code": "mmol/L",
              "system": "http://unitsofmeasure.org"
            }
          },
          {
            "high": {
              "value": 114,
              "code": "mmol/L",
              "system": "http://unitsofmeasure.org"
            }
          }
        ],
        "text": {
          "status": "generated",
          "div": "<div xmlns=\"http://www.w3.org/1999/xhtml\"><table class=\"hl7__eu__lab__report\"><tr><th>Test</th><th>10-Sep-2015</th><th>Reference&#xA0;Range</th><th>Unit</th></tr><tr><td>Chloride [Moles/volume] in Blood</td><td>106.1</td><td>98 - 114</td><td></td><td>mmol/L</td></tr></table></div>"
        },
        "status": "final",
        "subject": {
          "reference": "urn:uuid:d889cd9f-56bd-44e0-9f91-b8ae54309170",
          "display": "Maria Nohlmans"
        },
        "effectiveDateTime": "2015-09-10T00:50:39Z",
        "specimen": {
          "reference": "urn:uuid:974960a5-d4da-4952-9039-0111bdbd3a17"
        }
      }
    },
    {
      "fullUrl": "urn:uuid:1851f3b0-7924-4ed9-b82b-a2b500cf5de1",
      "resource": {
        "resourceType": "Observation",
        "id": "1851f3b0-7924-4ed9-b82b-a2b500cf5de1",
        "meta": {
          "profile": [
            "http://hl7.eu/fhir/laboratory/StructureDefinition/Observation-resultslab-eu-lab"
          ]
        },
        "performer": [
          {
            "display": "The Central European Lab"
          }
        ],
        "category": [
          {
            "coding": [
              {
                "system": "http://terminology.hl7.org/CodeSystem/observation-category",
                "code": "laboratory"
              }
            ]
          }
        ],
        "code": {
          "coding": [
            {
              "code": "20565-8",
              "system": "http://loinc.org",
              "display": "Carbon dioxide, total [Moles/volume] in Blood"
            }
          ],
          "text": "Carbon dioxide, total [Moles/volume] in Blood"
        },
        "valueQuantity": {
          "system": "http://unitsofmeasure.org",
          "value": 24.2,
          "unit": "mmol/L",
          "code": "mmol/L"
        },
        "referenceRange": [
          {
            "low": {
              "value": 22,
              "code": "mmol/L",
              "system": "http://unitsofmeasure.org"
            }
          },
          {
            "high": {
              "value": 32,
              "code": "mmol/L",
              "system": "http://unitsofmeasure.org"
            }
          }
        ],
        "text": {
          "status": "generated",
          "div": "<div xmlns=\"http://www.w3.org/1999/xhtml\"><table class=\"hl7__eu__lab__report\"><tr><th>Test</th><th>10-Sep-2015</th><th>Reference&#xA0;Range</th><th>Unit</th></tr><tr><td>Carbon dioxide, total [Moles/volume] in Blood</td><td>24.2</td><td>22 - 32</td><td></td><td>mmol/L</td></tr></table></div>"
        },
        "status": "final",
        "subject": {
          "reference": "urn:uuid:d889cd9f-56bd-44e0-9f91-b8ae54309170",
          "display": "Maria Nohlmans"
        },
        "effectiveDateTime": "2015-09-10T00:50:39Z",
        "specimen": {
          "reference": "urn:uuid:974960a5-d4da-4952-9039-0111bdbd3a17"
        }
      }
    },
    {
      "fullUrl": "urn:uuid:93e7447a-301c-471d-a1a4-a67f3dbaf59b",
      "resource": {
        "resourceType": "Observation",
        "id": "93e7447a-301c-471d-a1a4-a67f3dbaf59b",
        "meta": {
          "profile": [
            "http://hl7.eu/fhir/laboratory/StructureDefinition/Observation-resultslab-eu-lab"
          ]
        },
        "performer": [
          {
            "display": "The Central European Lab"
          }
        ],
        "category": [
          {
            "coding": [
              {
                "system": "http://terminology.hl7.org/CodeSystem/observation-category",
                "code": "laboratory"
              }
            ]
          }
        ],
        "code": {
          "coding": [
            {
              "code": "2885-2",
              "system": "http://loinc.org",
              "display": "Protein [Mass/volume] in Serum or Plasma"
            }
          ],
          "text": "Protein [Mass/volume] in Serum or Plasma"
        },
        "valueQuantity": {
          "system": "http://unitsofmeasure.org",
          "value": 6.5,
          "unit": "g/dL",
          "code": "g/dL"
        },
        "referenceRange": [
          {
            "low": {
              "value": 6,
              "code": "g/dL",
              "system": "http://unitsofmeasure.org"
            }
          },
          {
            "high": {
              "value": 8.3,
              "code": "g/dL",
              "system": "http://unitsofmeasure.org"
            }
          }
        ],
        "text": {
          "status": "generated",
          "div": "<div xmlns=\"http://www.w3.org/1999/xhtml\"><table class=\"hl7__eu__lab__report\"><tr><th>Test</th><th>10-Sep-2015</th><th>Reference&#xA0;Range</th><th>Unit</th></tr><tr><td>Protein [Mass/volume] in Serum or Plasma</td><td>6.5</td><td>6 - 8.3</td><td></td><td>g/dL</td></tr></table></div>"
        },
        "status": "final",
        "subject": {
          "reference": "urn:uuid:d889cd9f-56bd-44e0-9f91-b8ae54309170",
          "display": "Maria Nohlmans"
        },
        "effectiveDateTime": "2015-09-10T00:50:39Z",
        "specimen": {
          "reference": "urn:uuid:bf82dc08-636a-4330-ba42-a3d7fdef83fc"
        }
      }
    },
    {
      "fullUrl": "urn:uuid:784a91fe-c7b6-4951-88b9-1901e7211b73",
      "resource": {
        "resourceType": "Observation",
        "id": "784a91fe-c7b6-4951-88b9-1901e7211b73",
        "meta": {
          "profile": [
            "http://hl7.eu/fhir/laboratory/StructureDefinition/Observation-resultslab-eu-lab"
          ]
        },
        "performer": [
          {
            "display": "The Central European Lab"
          }
        ],
        "category": [
          {
            "coding": [
              {
                "system": "http://terminology.hl7.org/CodeSystem/observation-category",
                "code": "laboratory"
              }
            ]
          }
        ],
        "code": {
          "coding": [
            {
              "code": "1751-7",
              "system": "http://loinc.org",
              "display": "Albumin [Mass/volume] in Serum or Plasma"
            }
          ],
          "text": "Albumin [Mass/volume] in Serum or Plasma"
        },
        "valueQuantity": {
          "system": "http://unitsofmeasure.org",
          "value": 3.7,
          "unit": "g/dL",
          "code": "g/dL"
        },
        "referenceRange": [
          {
            "low": {
              "value": 3.5,
              "code": "g/dL",
              "system": "http://unitsofmeasure.org"
            }
          },
          {
            "high": {
              "value": 5.5,
              "code": "g/dL",
              "system": "http://unitsofmeasure.org"
            }
          }
        ],
        "text": {
          "status": "generated",
          "div": "<div xmlns=\"http://www.w3.org/1999/xhtml\"><table class=\"hl7__eu__lab__report\"><tr><th>Test</th><th>10-Sep-2015</th><th>Reference&#xA0;Range</th><th>Unit</th></tr><tr><td>Albumin [Mass/volume] in Serum or Plasma</td><td>3.7</td><td>3.5 - 5.5</td><td></td><td>g/dL</td></tr></table></div>"
        },
        "status": "final",
        "subject": {
          "reference": "urn:uuid:d889cd9f-56bd-44e0-9f91-b8ae54309170",
          "display": "Maria Nohlmans"
        },
        "effectiveDateTime": "2015-09-10T00:50:39Z",
        "specimen": {
          "reference": "urn:uuid:bf82dc08-636a-4330-ba42-a3d7fdef83fc"
        }
      }
    },
    {
      "fullUrl": "urn:uuid:e7f55c25-5356-453d-a838-80a98729a3e8",
      "resource": {
        "resourceType": "Observation",
        "id": "e7f55c25-5356-453d-a838-80a98729a3e8",
        "meta": {
          "profile": [
            "http://hl7.eu/fhir/laboratory/StructureDefinition/Observation-resultslab-eu-lab"
          ]
        },
        "performer": [
          {
            "display": "The Central European Lab"
          }
        ],
        "category": [
          {
            "coding": [
              {
                "system": "http://terminology.hl7.org/CodeSystem/observation-category",
                "code": "laboratory"
              }
            ]
          }
        ],
        "code": {
          "coding": [
            {
              "code": "10834-0",
              "system": "http://loinc.org",
              "display": "Globulin [Mass/volume] in Serum by calculation"
            }
          ],
          "text": "Globulin [Mass/volume] in Serum by calculation"
        },
        "valueQuantity": {
          "system": "http://unitsofmeasure.org",
          "value": 3.2,
          "unit": "g/L",
          "code": "g/L"
        },
        "referenceRange": [
          {
            "low": {
              "value": 2,
              "code": "g/L",
              "system": "http://unitsofmeasure.org"
            }
          },
          {
            "high": {
              "value": 3.5,
              "code": "g/L",
              "system": "http://unitsofmeasure.org"
            }
          }
        ],
        "text": {
          "status": "generated",
          "div": "<div xmlns=\"http://www.w3.org/1999/xhtml\"><table class=\"hl7__eu__lab__report\"><tr><th>Test</th><th>10-Sep-2015</th><th>Reference&#xA0;Range</th><th>Unit</th></tr><tr><td>Globulin [Mass/volume] in Serum by calculation</td><td>3.2</td><td>2 - 3.5</td><td></td><td>g/L</td></tr></table></div>"
        },
        "status": "final",
        "subject": {
          "reference": "urn:uuid:d889cd9f-56bd-44e0-9f91-b8ae54309170",
          "display": "Maria Nohlmans"
        },
        "effectiveDateTime": "2015-09-10T00:50:39Z",
        "specimen": {
          "reference": "urn:uuid:62f2fd95-57ec-4a82-9948-b10ff39324c2"
        }
      }
    },
    {
      "fullUrl": "urn:uuid:9d6b1322-6be9-4bbc-860a-bf404b47b95a",
      "resource": {
        "resourceType": "Observation",
        "id": "9d6b1322-6be9-4bbc-860a-bf404b47b95a",
        "meta": {
          "profile": [
            "http://hl7.eu/fhir/laboratory/StructureDefinition/Observation-resultslab-eu-lab"
          ]
        },
        "performer": [
          {
            "display": "The Central European Lab"
          }
        ],
        "category": [
          {
            "coding": [
              {
                "system": "http://terminology.hl7.org/CodeSystem/observation-category",
                "code": "laboratory"
              }
            ]
          }
        ],
        "code": {
          "coding": [
            {
              "code": "1975-2",
              "system": "http://loinc.org",
              "display": "Bilirubin.total [Mass/volume] in Serum or Plasma"
            }
          ],
          "text": "Bilirubin.total [Mass/volume] in Serum or Plasma"
        },
        "valueQuantity": {
          "system": "http://unitsofmeasure.org",
          "value": 1,
          "unit": "mg/dL",
          "code": "mg/dL"
        },
        "referenceRange": [
          {
            "low": {
              "value": 0.3,
              "code": "mg/dL",
              "system": "http://unitsofmeasure.org"
            }
          },
          {
            "high": {
              "value": 1.2,
              "code": "mg/dL",
              "system": "http://unitsofmeasure.org"
            }
          }
        ],
        "text": {
          "status": "generated",
          "div": "<div xmlns=\"http://www.w3.org/1999/xhtml\"><table class=\"hl7__eu__lab__report\"><tr><th>Test</th><th>10-Sep-2015</th><th>Reference&#xA0;Range</th><th>Unit</th></tr><tr><td>Bilirubin.total [Mass/volume] in Serum or Plasma</td><td>1.0</td><td>0.3 - 1.2</td><td></td><td>mg/dL</td></tr></table></div>"
        },
        "status": "final",
        "subject": {
          "reference": "urn:uuid:d889cd9f-56bd-44e0-9f91-b8ae54309170",
          "display": "Maria Nohlmans"
        },
        "effectiveDateTime": "2015-09-10T00:50:39Z",
        "specimen": {
          "reference": "urn:uuid:bf82dc08-636a-4330-ba42-a3d7fdef83fc"
        }
      }
    },
    {
      "fullUrl": "urn:uuid:15150a73-6c51-4f65-9629-cf86d7ae1e2b",
      "resource": {
        "resourceType": "Observation",
        "id": "15150a73-6c51-4f65-9629-cf86d7ae1e2b",
        "meta": {
          "profile": [
            "http://hl7.eu/fhir/laboratory/StructureDefinition/Observation-resultslab-eu-lab"
          ]
        },
        "performer": [
          {
            "display": "The Central European Lab"
          }
        ],
        "category": [
          {
            "coding": [
              {
                "system": "http://terminology.hl7.org/CodeSystem/observation-category",
                "code": "laboratory"
              }
            ]
          }
        ],
        "code": {
          "coding": [
            {
              "code": "6768-6",
              "system": "http://loinc.org",
              "display": "Alkaline phosphatase [Enzymatic activity/volume] in Serum or Plasma"
            }
          ],
          "text": "Alkaline phosphatase [Enzymatic activity/volume] in Serum or Plasma"
        },
        "valueQuantity": {
          "system": "http://unitsofmeasure.org",
          "value": 29.5,
          "unit": "U/L",
          "code": "U/L"
        },
        "referenceRange": [
          {
            "low": {
              "value": 44,
              "code": "U/L",
              "system": "http://unitsofmeasure.org"
            }
          },
          {
            "high": {
              "value": 142,
              "code": "U/L",
              "system": "http://unitsofmeasure.org"
            }
          }
        ],
        "interpretation": [
          {
            "coding": [
              {
                "code": "L",
                "system": "http://terminology.hl7.org/CodeSystem/v3-ObservationInterpretation",
                "display": "Low"
              }
            ]
          }
        ],
        "text": {
          "status": "generated",
          "div": "<div xmlns=\"http://www.w3.org/1999/xhtml\"><table class=\"hl7__eu__lab__report\"><tr><th>Test</th><th>10-Sep-2015</th><th>Reference&#xA0;Range</th><th>Unit</th></tr><tr><td>Alkaline phosphatase [Enzymatic activity/volume] in Serum or Plasma</td><td>29.5</td><td>44 - 142</td><td>L</td><td>U/L</td></tr></table></div>"
        },
        "status": "final",
        "subject": {
          "reference": "urn:uuid:d889cd9f-56bd-44e0-9f91-b8ae54309170",
          "display": "Maria Nohlmans"
        },
        "effectiveDateTime": "2015-09-10T00:50:39Z",
        "specimen": {
          "reference": "urn:uuid:bf82dc08-636a-4330-ba42-a3d7fdef83fc"
        }
      }
    },
    {
      "fullUrl": "urn:uuid:b039a05a-36a1-474d-a69d-f8cdb9292567",
      "resource": {
        "resourceType": "Observation",
        "id": "b039a05a-36a1-474d-a69d-f8cdb9292567",
        "meta": {
          "profile": [
            "http://hl7.eu/fhir/laboratory/StructureDefinition/Observation-resultslab-eu-lab"
          ]
        },
        "performer": [
          {
            "display": "The Central European Lab"
          }
        ],
        "category": [
          {
            "coding": [
              {
                "system": "http://terminology.hl7.org/CodeSystem/observation-category",
                "code": "laboratory"
              }
            ]
          }
        ],
        "code": {
          "coding": [
            {
              "code": "1742-6",
              "system": "http://loinc.org",
              "display": "Alanine aminotransferase [Enzymatic activity/volume] in Serum or Plasma"
            }
          ],
          "text": "Alanine aminotransferase [Enzymatic activity/volume] in Serum or Plasma"
        },
        "valueQuantity": {
          "system": "http://unitsofmeasure.org",
          "value": 56.8,
          "unit": "U/L",
          "code": "U/L"
        },
        "referenceRange": [
          {
            "low": {
              "value": 7,
              "code": "U/L",
              "system": "http://unitsofmeasure.org"
            }
          },
          {
            "high": {
              "value": 40,
              "code": "U/L",
              "system": "http://unitsofmeasure.org"
            }
          }
        ],
        "interpretation": [
          {
            "coding": [
              {
                "code": "H",
                "system": "http://terminology.hl7.org/CodeSystem/v3-ObservationInterpretation",
                "display": "High"
              }
            ]
          }
        ],
        "text": {
          "status": "generated",
          "div": "<div xmlns=\"http://www.w3.org/1999/xhtml\"><table class=\"hl7__eu__lab__report\"><tr><th>Test</th><th>10-Sep-2015</th><th>Reference&#xA0;Range</th><th>Unit</th></tr><tr><td>Alanine aminotransferase [Enzymatic activity/volume] in Serum or Plasma</td><td>56.8</td><td>7 - 40</td><td>H</td><td>U/L</td></tr></table></div>"
        },
        "status": "final",
        "subject": {
          "reference": "urn:uuid:d889cd9f-56bd-44e0-9f91-b8ae54309170",
          "display": "Maria Nohlmans"
        },
        "effectiveDateTime": "2015-09-10T00:50:39Z",
        "specimen": {
          "reference": "urn:uuid:bf82dc08-636a-4330-ba42-a3d7fdef83fc"
        }
      }
    },
    {
      "fullUrl": "urn:uuid:1325c414-def3-4895-82ba-6a48b995d7cb",
      "resource": {
        "resourceType": "Observation",
        "id": "1325c414-def3-4895-82ba-6a48b995d7cb",
        "meta": {
          "profile": [
            "http://hl7.eu/fhir/laboratory/StructureDefinition/Observation-resultslab-eu-lab"
          ]
        },
        "performer": [
          {
            "display": "The Central European Lab"
          }
        ],
        "category": [
          {
            "coding": [
              {
                "system": "http://terminology.hl7.org/CodeSystem/observation-category",
                "code": "laboratory"
              }
            ]
          }
        ],
        "code": {
          "coding": [
            {
              "code": "1920-8",
              "system": "http://loinc.org",
              "display": "Aspartate aminotransferase [Enzymatic activity/volume] in Serum or Plasma"
            }
          ],
          "text": "Aspartate aminotransferase [Enzymatic activity/volume] in Serum or Plasma"
        },
        "valueQuantity": {
          "system": "http://unitsofmeasure.org",
          "value": 22.8,
          "unit": "U/L",
          "code": "U/L"
        },
        "referenceRange": [
          {
            "low": {
              "value": 10,
              "code": "U/L",
              "system": "http://unitsofmeasure.org"
            }
          },
          {
            "high": {
              "value": 40,
              "code": "U/L",
              "system": "http://unitsofmeasure.org"
            }
          }
        ],
        "text": {
          "status": "generated",
          "div": "<div xmlns=\"http://www.w3.org/1999/xhtml\"><table class=\"hl7__eu__lab__report\"><tr><th>Test</th><th>10-Sep-2015</th><th>Reference&#xA0;Range</th><th>Unit</th></tr><tr><td>Aspartate aminotransferase [Enzymatic activity/volume] in Serum or Plasma</td><td>22.8</td><td>10 - 40</td><td></td><td>U/L</td></tr></table></div>"
        },
        "status": "final",
        "subject": {
          "reference": "urn:uuid:d889cd9f-56bd-44e0-9f91-b8ae54309170",
          "display": "Maria Nohlmans"
        },
        "effectiveDateTime": "2015-09-10T00:50:39Z",
        "specimen": {
          "reference": "urn:uuid:bf82dc08-636a-4330-ba42-a3d7fdef83fc"
        }
      }
    },
    {
      "fullUrl": "urn:uuid:a79fdab3-3048-43f4-83b3-2b04cd2bd440",
      "resource": {
        "resourceType": "Observation",
        "id": "a79fdab3-3048-43f4-83b3-2b04cd2bd440",
        "meta": {
          "profile": [
            "http://hl7.eu/fhir/laboratory/StructureDefinition/Observation-resultslab-eu-lab"
          ]
        },
        "performer": [
          {
            "display": "The Central European Lab"
          }
        ],
        "category": [
          {
            "coding": [
              {
                "system": "http://terminology.hl7.org/CodeSystem/observation-category",
                "code": "laboratory"
              }
            ]
          }
        ],
        "code": {
          "coding": [
            {
              "code": "5767-9",
              "system": "http://loinc.org",
              "display": "Appearance of Urine"
            }
          ],
          "text": "Appearance of Urine"
        },
        "text": {
          "status": "generated",
          "div": "<div xmlns=\"http://www.w3.org/1999/xhtml\"><table class=\"hl7__eu__lab__report\"><tr><th>Test</th><th>10-Sep-2015</th><th>Reference&#xA0;Range</th><th>Unit</th></tr><tr><td>Appearance of Urine</td></tr></table></div>"
        },
        "status": "final",
        "subject": {
          "reference": "urn:uuid:d889cd9f-56bd-44e0-9f91-b8ae54309170",
          "display": "Maria Nohlmans"
        },
        "effectiveDateTime": "2015-09-10T00:50:39Z",
        "specimen": {
          "reference": "urn:uuid:5268dbda-16af-4db7-af41-50f1f8570e3c"
        }
      }
    },
    {
      "fullUrl": "urn:uuid:5d1c2e7c-7f31-4b23-bc62-bcd96bb7939b",
      "resource": {
        "resourceType": "Observation",
        "id": "5d1c2e7c-7f31-4b23-bc62-bcd96bb7939b",
        "meta": {
          "profile": [
            "http://hl7.eu/fhir/laboratory/StructureDefinition/Observation-resultslab-eu-lab"
          ]
        },
        "performer": [
          {
            "display": "The Central European Lab"
          }
        ],
        "category": [
          {
            "coding": [
              {
                "system": "http://terminology.hl7.org/CodeSystem/observation-category",
                "code": "laboratory"
              }
            ]
          }
        ],
        "code": {
          "coding": [
            {
              "code": "34533-0",
              "system": "http://loinc.org",
              "display": "Odor of Urine"
            }
          ],
          "text": "Odor of Urine"
        },
        "text": {
          "status": "generated",
          "div": "<div xmlns=\"http://www.w3.org/1999/xhtml\"><table class=\"hl7__eu__lab__report\"><tr><th>Test</th><th>10-Sep-2015</th><th>Reference&#xA0;Range</th><th>Unit</th></tr><tr><td>Odor of Urine</td></tr></table></div>"
        },
        "status": "final",
        "subject": {
          "reference": "urn:uuid:d889cd9f-56bd-44e0-9f91-b8ae54309170",
          "display": "Maria Nohlmans"
        },
        "effectiveDateTime": "2015-09-10T00:50:39Z",
        "specimen": {
          "reference": "urn:uuid:5268dbda-16af-4db7-af41-50f1f8570e3c"
        }
      }
    },
    {
      "fullUrl": "urn:uuid:611b4070-b486-4561-88a0-4d13a068223f",
      "resource": {
        "resourceType": "Observation",
        "id": "611b4070-b486-4561-88a0-4d13a068223f",
        "meta": {
          "profile": [
            "http://hl7.eu/fhir/laboratory/StructureDefinition/Observation-resultslab-eu-lab"
          ]
        },
        "performer": [
          {
            "display": "The Central European Lab"
          }
        ],
        "category": [
          {
            "coding": [
              {
                "system": "http://terminology.hl7.org/CodeSystem/observation-category",
                "code": "laboratory"
              }
            ]
          }
        ],
        "code": {
          "coding": [
            {
              "code": "32167-9",
              "system": "http://loinc.org",
              "display": "Clarity of Urine"
            }
          ],
          "text": "Clarity of Urine"
        },
        "text": {
          "status": "generated",
          "div": "<div xmlns=\"http://www.w3.org/1999/xhtml\"><table class=\"hl7__eu__lab__report\"><tr><th>Test</th><th>10-Sep-2015</th><th>Reference&#xA0;Range</th><th>Unit</th></tr><tr><td>Clarity of Urine</td></tr></table></div>"
        },
        "status": "final",
        "subject": {
          "reference": "urn:uuid:d889cd9f-56bd-44e0-9f91-b8ae54309170",
          "display": "Maria Nohlmans"
        },
        "effectiveDateTime": "2015-09-10T00:50:39Z",
        "specimen": {
          "reference": "urn:uuid:5268dbda-16af-4db7-af41-50f1f8570e3c"
        }
      }
    },
    {
      "fullUrl": "urn:uuid:a148e160-9ca9-4060-98a3-edbefb4fdcd8",
      "resource": {
        "resourceType": "Observation",
        "id": "a148e160-9ca9-4060-98a3-edbefb4fdcd8",
        "meta": {
          "profile": [
            "http://hl7.eu/fhir/laboratory/StructureDefinition/Observation-resultslab-eu-lab"
          ]
        },
        "performer": [
          {
            "display": "The Central European Lab"
          }
        ],
        "category": [
          {
            "coding": [
              {
                "system": "http://terminology.hl7.org/CodeSystem/observation-category",
                "code": "laboratory"
              }
            ]
          }
        ],
        "code": {
          "coding": [
            {
              "code": "5778-6",
              "system": "http://loinc.org",
              "display": "Color of Urine"
            }
          ],
          "text": "Color of Urine"
        },
        "text": {
          "status": "generated",
          "div": "<div xmlns=\"http://www.w3.org/1999/xhtml\"><table class=\"hl7__eu__lab__report\"><tr><th>Test</th><th>10-Sep-2015</th><th>Reference&#xA0;Range</th><th>Unit</th></tr><tr><td>Color of Urine</td></tr></table></div>"
        },
        "status": "final",
        "subject": {
          "reference": "urn:uuid:d889cd9f-56bd-44e0-9f91-b8ae54309170",
          "display": "Maria Nohlmans"
        },
        "effectiveDateTime": "2015-09-10T00:50:39Z",
        "specimen": {
          "reference": "urn:uuid:5268dbda-16af-4db7-af41-50f1f8570e3c"
        }
      }
    },
    {
      "fullUrl": "urn:uuid:1f85c73c-38b2-4279-8c1f-1f1bf6cb7db0",
      "resource": {
        "resourceType": "Observation",
        "id": "1f85c73c-38b2-4279-8c1f-1f1bf6cb7db0",
        "meta": {
          "profile": [
            "http://hl7.eu/fhir/laboratory/StructureDefinition/Observation-resultslab-eu-lab"
          ]
        },
        "performer": [
          {
            "display": "The Central European Lab"
          }
        ],
        "category": [
          {
            "coding": [
              {
                "system": "http://terminology.hl7.org/CodeSystem/observation-category",
                "code": "laboratory"
              }
            ]
          }
        ],
        "code": {
          "coding": [
            {
              "code": "5792-7",
              "system": "http://loinc.org",
              "display": "Glucose [Mass/volume] in Urine by Test strip"
            }
          ],
          "text": "Glucose [Mass/volume] in Urine by Test strip"
        },
        "valueQuantity": {
          "system": "http://unitsofmeasure.org",
          "value": 2.3,
          "unit": "mg/dL",
          "code": "mg/dL"
        },
        "referenceRange": [
          {
            "low": {
              "value": 0.8,
              "code": "mg/dL",
              "system": "http://unitsofmeasure.org"
            }
          },
          {
            "high": {
              "value": 0,
              "code": "mg/dL",
              "system": "http://unitsofmeasure.org"
            }
          }
        ],
        "interpretation": [
          {
            "coding": [
              {
                "code": "H",
                "system": "http://terminology.hl7.org/CodeSystem/v3-ObservationInterpretation",
                "display": "High"
              }
            ]
          }
        ],
        "text": {
          "status": "generated",
          "div": "<div xmlns=\"http://www.w3.org/1999/xhtml\"><table class=\"hl7__eu__lab__report\"><tr><th>Test</th><th>10-Sep-2015</th><th>Reference&#xA0;Range</th><th>Unit</th></tr><tr><td>Glucose [Mass/volume] in Urine by Test strip</td><td>2.3</td><td>0.8 - 0</td><td>H</td><td>mg/dL</td></tr></table></div>"
        },
        "status": "final",
        "subject": {
          "reference": "urn:uuid:d889cd9f-56bd-44e0-9f91-b8ae54309170",
          "display": "Maria Nohlmans"
        },
        "effectiveDateTime": "2015-09-10T00:50:39Z",
        "specimen": {
          "reference": "urn:uuid:5268dbda-16af-4db7-af41-50f1f8570e3c"
        }
      }
    },
    {
      "fullUrl": "urn:uuid:a38defae-70a7-420e-b718-69f02c22b3f9",
      "resource": {
        "resourceType": "Observation",
        "id": "a38defae-70a7-420e-b718-69f02c22b3f9",
        "meta": {
          "profile": [
            "http://hl7.eu/fhir/laboratory/StructureDefinition/Observation-resultslab-eu-lab"
          ]
        },
        "performer": [
          {
            "display": "The Central European Lab"
          }
        ],
        "category": [
          {
            "coding": [
              {
                "system": "http://terminology.hl7.org/CodeSystem/observation-category",
                "code": "laboratory"
              }
            ]
          }
        ],
        "code": {
          "coding": [
            {
              "code": "25428-4",
              "system": "http://loinc.org",
              "display": "Glucose [Presence] in Urine by Test strip"
            }
          ],
          "text": "Glucose [Presence] in Urine by Test strip"
        },
        "text": {
          "status": "generated",
          "div": "<div xmlns=\"http://www.w3.org/1999/xhtml\"><table class=\"hl7__eu__lab__report\"><tr><th>Test</th><th>10-Sep-2015</th><th>Reference&#xA0;Range</th><th>Unit</th></tr><tr><td>Glucose [Presence] in Urine by Test strip</td></tr></table></div>"
        },
        "status": "final",
        "subject": {
          "reference": "urn:uuid:d889cd9f-56bd-44e0-9f91-b8ae54309170",
          "display": "Maria Nohlmans"
        },
        "effectiveDateTime": "2015-09-10T00:50:39Z",
        "specimen": {
          "reference": "urn:uuid:5268dbda-16af-4db7-af41-50f1f8570e3c"
        }
      }
    },
    {
      "fullUrl": "urn:uuid:ce943d5d-873a-4c91-83fd-3cd22c175485",
      "resource": {
        "resourceType": "Observation",
        "id": "ce943d5d-873a-4c91-83fd-3cd22c175485",
        "meta": {
          "profile": [
            "http://hl7.eu/fhir/laboratory/StructureDefinition/Observation-resultslab-eu-lab"
          ]
        },
        "performer": [
          {
            "display": "The Central European Lab"
          }
        ],
        "category": [
          {
            "coding": [
              {
                "system": "http://terminology.hl7.org/CodeSystem/observation-category",
                "code": "laboratory"
              }
            ]
          }
        ],
        "code": {
          "coding": [
            {
              "code": "20505-4",
              "system": "http://loinc.org",
              "display": "Bilirubin.total [Mass/volume] in Urine by Test strip"
            }
          ],
          "text": "Bilirubin.total [Mass/volume] in Urine by Test strip"
        },
        "valueQuantity": {
          "system": "http://unitsofmeasure.org",
          "value": 1.4,
          "unit": "mg/dL",
          "code": "mg/dL"
        },
        "referenceRange": [
          {
            "low": {
              "value": 0,
              "code": "mg/dL",
              "system": "http://unitsofmeasure.org"
            }
          },
          {
            "high": {
              "value": 1.5,
              "code": "mg/dL",
              "system": "http://unitsofmeasure.org"
            }
          }
        ],
        "text": {
          "status": "generated",
          "div": "<div xmlns=\"http://www.w3.org/1999/xhtml\"><table class=\"hl7__eu__lab__report\"><tr><th>Test</th><th>10-Sep-2015</th><th>Reference&#xA0;Range</th><th>Unit</th></tr><tr><td>Bilirubin.total [Mass/volume] in Urine by Test strip</td><td>1.4</td><td>0 - 1.5</td><td></td><td>mg/dL</td></tr></table></div>"
        },
        "status": "final",
        "subject": {
          "reference": "urn:uuid:d889cd9f-56bd-44e0-9f91-b8ae54309170",
          "display": "Maria Nohlmans"
        },
        "effectiveDateTime": "2015-09-10T00:50:39Z",
        "specimen": {
          "reference": "urn:uuid:5268dbda-16af-4db7-af41-50f1f8570e3c"
        }
      }
    },
    {
      "fullUrl": "urn:uuid:54d1c087-5838-4f10-9129-cce011c6cf2b",
      "resource": {
        "resourceType": "Observation",
        "id": "54d1c087-5838-4f10-9129-cce011c6cf2b",
        "meta": {
          "profile": [
            "http://hl7.eu/fhir/laboratory/StructureDefinition/Observation-resultslab-eu-lab"
          ]
        },
        "performer": [
          {
            "display": "The Central European Lab"
          }
        ],
        "category": [
          {
            "coding": [
              {
                "system": "http://terminology.hl7.org/CodeSystem/observation-category",
                "code": "laboratory"
              }
            ]
          }
        ],
        "code": {
          "coding": [
            {
              "code": "5770-3",
              "system": "http://loinc.org",
              "display": "Bilirubin.total [Presence] in Urine by Test strip"
            }
          ],
          "text": "Bilirubin.total [Presence] in Urine by Test strip"
        },
        "text": {
          "status": "generated",
          "div": "<div xmlns=\"http://www.w3.org/1999/xhtml\"><table class=\"hl7__eu__lab__report\"><tr><th>Test</th><th>10-Sep-2015</th><th>Reference&#xA0;Range</th><th>Unit</th></tr><tr><td>Bilirubin.total [Presence] in Urine by Test strip</td></tr></table></div>"
        },
        "status": "final",
        "subject": {
          "reference": "urn:uuid:d889cd9f-56bd-44e0-9f91-b8ae54309170",
          "display": "Maria Nohlmans"
        },
        "effectiveDateTime": "2015-09-10T00:50:39Z",
        "specimen": {
          "reference": "urn:uuid:5268dbda-16af-4db7-af41-50f1f8570e3c"
        }
      }
    },
    {
      "fullUrl": "urn:uuid:294f694f-b6df-4889-9c0e-183b17e865ea",
      "resource": {
        "resourceType": "Observation",
        "id": "294f694f-b6df-4889-9c0e-183b17e865ea",
        "meta": {
          "profile": [
            "http://hl7.eu/fhir/laboratory/StructureDefinition/Observation-resultslab-eu-lab"
          ]
        },
        "performer": [
          {
            "display": "The Central European Lab"
          }
        ],
        "category": [
          {
            "coding": [
              {
                "system": "http://terminology.hl7.org/CodeSystem/observation-category",
                "code": "laboratory"
              }
            ]
          }
        ],
        "code": {
          "coding": [
            {
              "code": "5797-6",
              "system": "http://loinc.org",
              "display": "Ketones [Mass/volume] in Urine by Test strip"
            }
          ],
          "text": "Ketones [Mass/volume] in Urine by Test strip"
        },
        "valueQuantity": {
          "system": "http://unitsofmeasure.org",
          "value": 2.2,
          "unit": "mg/dL",
          "code": "mg/dL"
        },
        "referenceRange": [
          {
            "low": {
              "value": 0,
              "code": "mg/dL",
              "system": "http://unitsofmeasure.org"
            }
          },
          {
            "high": {
              "value": 8,
              "code": "mg/dL",
              "system": "http://unitsofmeasure.org"
            }
          }
        ],
        "text": {
          "status": "generated",
          "div": "<div xmlns=\"http://www.w3.org/1999/xhtml\"><table class=\"hl7__eu__lab__report\"><tr><th>Test</th><th>10-Sep-2015</th><th>Reference&#xA0;Range</th><th>Unit</th></tr><tr><td>Ketones [Mass/volume] in Urine by Test strip</td><td>2.2</td><td>0 - 8</td><td></td><td>mg/dL</td></tr></table></div>"
        },
        "status": "final",
        "subject": {
          "reference": "urn:uuid:d889cd9f-56bd-44e0-9f91-b8ae54309170",
          "display": "Maria Nohlmans"
        },
        "effectiveDateTime": "2015-09-10T00:50:39Z",
        "specimen": {
          "reference": "urn:uuid:5268dbda-16af-4db7-af41-50f1f8570e3c"
        }
      }
    },
    {
      "fullUrl": "urn:uuid:17806097-d29b-45cc-8a80-fc9d649f0f19",
      "resource": {
        "resourceType": "Observation",
        "id": "17806097-d29b-45cc-8a80-fc9d649f0f19",
        "meta": {
          "profile": [
            "http://hl7.eu/fhir/laboratory/StructureDefinition/Observation-resultslab-eu-lab"
          ]
        },
        "performer": [
          {
            "display": "The Central European Lab"
          }
        ],
        "category": [
          {
            "coding": [
              {
                "system": "http://terminology.hl7.org/CodeSystem/observation-category",
                "code": "laboratory"
              }
            ]
          }
        ],
        "code": {
          "coding": [
            {
              "code": "2514-8",
              "system": "http://loinc.org",
              "display": "Ketones [Presence] in Urine by Test strip"
            }
          ],
          "text": "Ketones [Presence] in Urine by Test strip"
        },
        "text": {
          "status": "generated",
          "div": "<div xmlns=\"http://www.w3.org/1999/xhtml\"><table class=\"hl7__eu__lab__report\"><tr><th>Test</th><th>10-Sep-2015</th><th>Reference&#xA0;Range</th><th>Unit</th></tr><tr><td>Ketones [Presence] in Urine by Test strip</td></tr></table></div>"
        },
        "status": "final",
        "subject": {
          "reference": "urn:uuid:d889cd9f-56bd-44e0-9f91-b8ae54309170",
          "display": "Maria Nohlmans"
        },
        "effectiveDateTime": "2015-09-10T00:50:39Z",
        "specimen": {
          "reference": "urn:uuid:5268dbda-16af-4db7-af41-50f1f8570e3c"
        }
      }
    },
    {
      "fullUrl": "urn:uuid:24e76261-5356-4888-92c0-470b4bd66c15",
      "resource": {
        "resourceType": "Observation",
        "id": "24e76261-5356-4888-92c0-470b4bd66c15",
        "meta": {
          "profile": [
            "http://hl7.eu/fhir/laboratory/StructureDefinition/Observation-resultslab-eu-lab"
          ]
        },
        "performer": [
          {
            "display": "The Central European Lab"
          }
        ],
        "category": [
          {
            "coding": [
              {
                "system": "http://terminology.hl7.org/CodeSystem/observation-category",
                "code": "laboratory"
              }
            ]
          }
        ],
        "code": {
          "coding": [
            {
              "code": "5811-5",
              "system": "http://loinc.org",
              "display": "Specific gravity of Urine by Test strip"
            }
          ],
          "text": "Specific gravity of Urine by Test strip"
        },
        "valueQuantity": {
          "system": "http://unitsofmeasure.org",
          "value": 1,
          "unit": "{nominal}",
          "code": "{nominal}"
        },
        "referenceRange": [
          {
            "low": {
              "value": 1.01,
              "code": "g/mL",
              "system": "http://unitsofmeasure.org"
            }
          },
          {
            "high": {
              "value": 1.03,
              "code": "g/mL",
              "system": "http://unitsofmeasure.org"
            }
          }
        ],
        "interpretation": [
          {
            "coding": [
              {
                "code": "L",
                "system": "http://terminology.hl7.org/CodeSystem/v3-ObservationInterpretation",
                "display": "Low"
              }
            ]
          }
        ],
        "text": {
          "status": "generated",
          "div": "<div xmlns=\"http://www.w3.org/1999/xhtml\"><table class=\"hl7__eu__lab__report\"><tr><th>Test</th><th>10-Sep-2015</th><th>Reference&#xA0;Range</th><th>Unit</th></tr><tr><td>Specific gravity of Urine by Test strip</td><td>1.0</td><td>1.01 - 1.03</td><td>L</td><td>{nominal}</td></tr></table></div>"
        },
        "status": "final",
        "subject": {
          "reference": "urn:uuid:d889cd9f-56bd-44e0-9f91-b8ae54309170",
          "display": "Maria Nohlmans"
        },
        "effectiveDateTime": "2015-09-10T00:50:39Z",
        "specimen": {
          "reference": "urn:uuid:5268dbda-16af-4db7-af41-50f1f8570e3c"
        }
      }
    },
    {
      "fullUrl": "urn:uuid:8bd48608-14e3-42bd-b6fc-0174eac23345",
      "resource": {
        "resourceType": "Observation",
        "id": "8bd48608-14e3-42bd-b6fc-0174eac23345",
        "meta": {
          "profile": [
            "http://hl7.eu/fhir/laboratory/StructureDefinition/Observation-resultslab-eu-lab"
          ]
        },
        "performer": [
          {
            "display": "The Central European Lab"
          }
        ],
        "category": [
          {
            "coding": [
              {
                "system": "http://terminology.hl7.org/CodeSystem/observation-category",
                "code": "laboratory"
              }
            ]
          }
        ],
        "code": {
          "coding": [
            {
              "code": "5803-2",
              "system": "http://loinc.org",
              "display": "pH of Urine by Test strip"
            }
          ],
          "text": "pH of Urine by Test strip"
        },
        "valueQuantity": {
          "system": "http://unitsofmeasure.org",
          "value": 5.7,
          "unit": "pH",
          "code": "pH"
        },
        "referenceRange": [
          {
            "low": {
              "value": 4.6,
              "code": "pH",
              "system": "http://unitsofmeasure.org"
            }
          },
          {
            "high": {
              "value": 7.5,
              "code": "pH",
              "system": "http://unitsofmeasure.org"
            }
          }
        ],
        "text": {
          "status": "generated",
          "div": "<div xmlns=\"http://www.w3.org/1999/xhtml\"><table class=\"hl7__eu__lab__report\"><tr><th>Test</th><th>10-Sep-2015</th><th>Reference&#xA0;Range</th><th>Unit</th></tr><tr><td>pH of Urine by Test strip</td><td>5.7</td><td>4.6 - 7.5</td><td></td><td>pH</td></tr></table></div>"
        },
        "status": "final",
        "subject": {
          "reference": "urn:uuid:d889cd9f-56bd-44e0-9f91-b8ae54309170",
          "display": "Maria Nohlmans"
        },
        "effectiveDateTime": "2015-09-10T00:50:39Z",
        "specimen": {
          "reference": "urn:uuid:5268dbda-16af-4db7-af41-50f1f8570e3c"
        }
      }
    },
    {
      "fullUrl": "urn:uuid:a53738cc-edb1-44f7-9033-495f381038a7",
      "resource": {
        "resourceType": "Observation",
        "id": "a53738cc-edb1-44f7-9033-495f381038a7",
        "meta": {
          "profile": [
            "http://hl7.eu/fhir/laboratory/StructureDefinition/Observation-resultslab-eu-lab"
          ]
        },
        "performer": [
          {
            "display": "The Central European Lab"
          }
        ],
        "category": [
          {
            "coding": [
              {
                "system": "http://terminology.hl7.org/CodeSystem/observation-category",
                "code": "laboratory"
              }
            ]
          }
        ],
        "code": {
          "coding": [
            {
              "code": "5804-0",
              "system": "http://loinc.org",
              "display": "Protein [Mass/volume] in Urine by Test strip"
            }
          ],
          "text": "Protein [Mass/volume] in Urine by Test strip"
        },
        "valueQuantity": {
          "system": "http://unitsofmeasure.org",
          "value": 382.3,
          "unit": "mg/dL",
          "code": "mg/dL"
        },
        "referenceRange": [
          {
            "low": {
              "value": 0,
              "code": "mg/dL",
              "system": "http://unitsofmeasure.org"
            }
          },
          {
            "high": {
              "value": 14,
              "code": "mg/dL",
              "system": "http://unitsofmeasure.org"
            }
          }
        ],
        "interpretation": [
          {
            "coding": [
              {
                "code": "H",
                "system": "http://terminology.hl7.org/CodeSystem/v3-ObservationInterpretation",
                "display": "High"
              }
            ]
          }
        ],
        "text": {
          "status": "generated",
          "div": "<div xmlns=\"http://www.w3.org/1999/xhtml\"><table class=\"hl7__eu__lab__report\"><tr><th>Test</th><th>10-Sep-2015</th><th>Reference&#xA0;Range</th><th>Unit</th></tr><tr><td>Protein [Mass/volume] in Urine by Test strip</td><td>382.3</td><td>0 - 14</td><td>H</td><td>mg/dL</td></tr></table></div>"
        },
        "status": "final",
        "subject": {
          "reference": "urn:uuid:d889cd9f-56bd-44e0-9f91-b8ae54309170",
          "display": "Maria Nohlmans"
        },
        "effectiveDateTime": "2015-09-10T00:50:39Z",
        "specimen": {
          "reference": "urn:uuid:5268dbda-16af-4db7-af41-50f1f8570e3c"
        }
      }
    },
    {
      "fullUrl": "urn:uuid:e3d5779d-335a-47de-b4a2-dad914189602",
      "resource": {
        "resourceType": "Observation",
        "id": "e3d5779d-335a-47de-b4a2-dad914189602",
        "meta": {
          "profile": [
            "http://hl7.eu/fhir/laboratory/StructureDefinition/Observation-resultslab-eu-lab"
          ]
        },
        "performer": [
          {
            "display": "The Central European Lab"
          }
        ],
        "category": [
          {
            "coding": [
              {
                "system": "http://terminology.hl7.org/CodeSystem/observation-category",
                "code": "laboratory"
              }
            ]
          }
        ],
        "code": {
          "coding": [
            {
              "code": "20454-5",
              "system": "http://loinc.org",
              "display": "Protein [Presence] in Urine by Test strip"
            }
          ],
          "text": "Protein [Presence] in Urine by Test strip"
        },
        "text": {
          "status": "generated",
          "div": "<div xmlns=\"http://www.w3.org/1999/xhtml\"><table class=\"hl7__eu__lab__report\"><tr><th>Test</th><th>10-Sep-2015</th><th>Reference&#xA0;Range</th><th>Unit</th></tr><tr><td>Protein [Presence] in Urine by Test strip</td></tr></table></div>"
        },
        "status": "final",
        "subject": {
          "reference": "urn:uuid:d889cd9f-56bd-44e0-9f91-b8ae54309170",
          "display": "Maria Nohlmans"
        },
        "effectiveDateTime": "2015-09-10T00:50:39Z",
        "specimen": {
          "reference": "urn:uuid:5268dbda-16af-4db7-af41-50f1f8570e3c"
        }
      }
    },
    {
      "fullUrl": "urn:uuid:c9a9f181-2a12-4582-bd55-d3c8b0c25277",
      "resource": {
        "resourceType": "Observation",
        "id": "c9a9f181-2a12-4582-bd55-d3c8b0c25277",
        "meta": {
          "profile": [
            "http://hl7.eu/fhir/laboratory/StructureDefinition/Observation-resultslab-eu-lab"
          ]
        },
        "performer": [
          {
            "display": "The Central European Lab"
          }
        ],
        "category": [
          {
            "coding": [
              {
                "system": "http://terminology.hl7.org/CodeSystem/observation-category",
                "code": "laboratory"
              }
            ]
          }
        ],
        "code": {
          "coding": [
            {
              "code": "5802-4",
              "system": "http://loinc.org",
              "display": "Nitrite [Presence] in Urine by Test strip"
            }
          ],
          "text": "Nitrite [Presence] in Urine by Test strip"
        },
        "text": {
          "status": "generated",
          "div": "<div xmlns=\"http://www.w3.org/1999/xhtml\"><table class=\"hl7__eu__lab__report\"><tr><th>Test</th><th>10-Sep-2015</th><th>Reference&#xA0;Range</th><th>Unit</th></tr><tr><td>Nitrite [Presence] in Urine by Test strip</td></tr></table></div>"
        },
        "status": "final",
        "subject": {
          "reference": "urn:uuid:d889cd9f-56bd-44e0-9f91-b8ae54309170",
          "display": "Maria Nohlmans"
        },
        "effectiveDateTime": "2015-09-10T00:50:39Z",
        "specimen": {
          "reference": "urn:uuid:5268dbda-16af-4db7-af41-50f1f8570e3c"
        }
      }
    },
    {
      "fullUrl": "urn:uuid:5ba8f2b1-f286-40f0-85cc-f376c2c706dd",
      "resource": {
        "resourceType": "Observation",
        "id": "5ba8f2b1-f286-40f0-85cc-f376c2c706dd",
        "meta": {
          "profile": [
            "http://hl7.eu/fhir/laboratory/StructureDefinition/Observation-resultslab-eu-lab"
          ]
        },
        "performer": [
          {
            "display": "The Central European Lab"
          }
        ],
        "category": [
          {
            "coding": [
              {
                "system": "http://terminology.hl7.org/CodeSystem/observation-category",
                "code": "laboratory"
              }
            ]
          }
        ],
        "code": {
          "coding": [
            {
              "code": "5794-3",
              "system": "http://loinc.org",
              "display": "Hemoglobin [Presence] in Urine by Test strip"
            }
          ],
          "text": "Hemoglobin [Presence] in Urine by Test strip"
        },
        "text": {
          "status": "generated",
          "div": "<div xmlns=\"http://www.w3.org/1999/xhtml\"><table class=\"hl7__eu__lab__report\"><tr><th>Test</th><th>10-Sep-2015</th><th>Reference&#xA0;Range</th><th>Unit</th></tr><tr><td>Hemoglobin [Presence] in Urine by Test strip</td></tr></table></div>"
        },
        "status": "final",
        "subject": {
          "reference": "urn:uuid:d889cd9f-56bd-44e0-9f91-b8ae54309170",
          "display": "Maria Nohlmans"
        },
        "effectiveDateTime": "2015-09-10T00:50:39Z",
        "specimen": {
          "reference": "urn:uuid:5268dbda-16af-4db7-af41-50f1f8570e3c"
        }
      }
    },
    {
      "fullUrl": "urn:uuid:a3ca7f56-4206-458e-8a66-4d4a68bf7e33",
      "resource": {
        "resourceType": "Observation",
        "id": "a3ca7f56-4206-458e-8a66-4d4a68bf7e33",
        "meta": {
          "profile": [
            "http://hl7.eu/fhir/laboratory/StructureDefinition/Observation-resultslab-eu-lab"
          ]
        },
        "performer": [
          {
            "display": "The Central European Lab"
          }
        ],
        "category": [
          {
            "coding": [
              {
                "system": "http://terminology.hl7.org/CodeSystem/observation-category",
                "code": "laboratory"
              }
            ]
          }
        ],
        "code": {
          "coding": [
            {
              "code": "5799-2",
              "system": "http://loinc.org",
              "display": "Leukocyte esterase [Presence] in Urine by Test strip"
            }
          ],
          "text": "Leukocyte esterase [Presence] in Urine by Test strip"
        },
        "text": {
          "status": "generated",
          "div": "<div xmlns=\"http://www.w3.org/1999/xhtml\"><table class=\"hl7__eu__lab__report\"><tr><th>Test</th><th>10-Sep-2015</th><th>Reference&#xA0;Range</th><th>Unit</th></tr><tr><td>Leukocyte esterase [Presence] in Urine by Test strip</td></tr></table></div>"
        },
        "status": "final",
        "subject": {
          "reference": "urn:uuid:d889cd9f-56bd-44e0-9f91-b8ae54309170",
          "display": "Maria Nohlmans"
        },
        "effectiveDateTime": "2015-09-10T00:50:39Z",
        "specimen": {
          "reference": "urn:uuid:5268dbda-16af-4db7-af41-50f1f8570e3c"
        }
      }
    },
    {
      "fullUrl": "urn:uuid:8e246531-8830-4306-b5d9-84456294b581",
      "resource": {
        "resourceType": "Device",
        "id": "8e246531-8830-4306-b5d9-84456294b581",
        "deviceName": [
          {
            "name": "SYNDERAI Synthetic Generator",
            "type": "manufacturer-name"
          }
        ],
        "version": [
          {
            "value": "5.0"
          }
        ],
        "text": {
          "status": "generated",
          "div": "<div xmlns=\"http://www.w3.org/1999/xhtml\">SYNDERAI Synthetic Generator v5.0</div>"
        },
        "status": "active\"",
        "distinctIdentifier": "synderai-generator-50",
        "manufacturer": "SYNDERAI Project"
      }
    },
    {
      "fullUrl": "urn:uuid:736fb61c-4677-4096-bc47-a131e232fb0a",
      "resource": {
        "resourceType": "Provenance",
        "id": "736fb61c-4677-4096-bc47-a131e232fb0a",
        "target": [
          {
            "reference": "Patient/d889cd9f-56bd-44e0-9f91-b8ae54309170"
          },
          {
            "reference": "Bundle/78c8bf0e-d829-45bb-811e-1a3d86892de6"
          },
          {
            "reference": "Composition/32bdd2e3-f06e-431b-9cc6-82f5addaa0b3"
          },
          {
            "reference": "PractitionerRole/9c2f8986-c0f8-46db-9294-5521321fbafc"
          },
          {
            "reference": "Practitioner/4701b817-554d-430d-8768-a67bb7d0f656"
          },
          {
            "reference": "PractitionerRole/c062794e-7465-4e1e-bb05-4748ef06682e"
          },
          {
            "reference": "Organization/b7d8a3ef-61b8-4869-83ff-a3634f524272"
          }
        ],
        "activity": {
          "text": "Synthetic Example Data Generation"
        },
        "policy": [
          "https://synderai.net/synderai-synthetic-data-policy"
        ],
        "agent": [
          {
            "type": {
              "text": "author"
            },
            "who": {
              "reference": "Device/8e246531-8830-4306-b5d9-84456294b581"
            }
          }
        ],
        "reason": [
          {
            "text": "Interoperability Testing and Training (non-clinical use)"
          }
        ],
        "text": {
          "status": "generated",
          "div": "<div xmlns=\"http://www.w3.org/1999/xhtml\">Provenance for SYNDERAI Synthetic Example Data Resource</div>"
        },
        "recorded": "2015-09-10T02:50:39Z"
      }
    },
    {
      "fullUrl": "urn:uuid:9c2f8986-c0f8-46db-9294-5521321fbafc",
      "resource": {
        "resourceType": "PractitionerRole",
        "id": "9c2f8986-c0f8-46db-9294-5521321fbafc",
        "meta": {
          "profile": [
            "http://hl7.eu/fhir/base/StructureDefinition/practitionerRole-eu"
          ]
        },
        "text": {
          "status": "generated",
          "div": "<div xmlns=\"http://www.w3.org/1999/xhtml\">Laboratory Role Id: 9c2f8986-c0f8-46db-9294-5521321fbafc</div>"
        },
        "practitioner": {
          "reference": "urn:uuid:4701b817-554d-430d-8768-a67bb7d0f656"
        }
      }
    },
    {
      "fullUrl": "urn:uuid:4701b817-554d-430d-8768-a67bb7d0f656",
      "resource": {
        "resourceType": "Practitioner",
        "id": "4701b817-554d-430d-8768-a67bb7d0f656",
        "meta": {
          "profile": [
            "http://hl7.eu/fhir/base/StructureDefinition/practitioner-eu"
          ]
        },
        "identifier": [
          {
            "assigner": {
              "display": "HL7 Europe"
            },
            "system": "urn:oid:2.16.840.1.113883.2.51.999",
            "value": "d1e38d26-f6f2-4004-9391-caee32d64b2c"
          }
        ],
        "name": [
          {
            "prefix": [
              "dr"
            ],
            "given": [
              "Ex"
            ],
            "family": "Ample"
          }
        ],
        "address": [
          {
            "line": [
              "Laboratoire Central Européenne",
              "Boulevard du Jardin Botanique 32"
            ],
            "postalCode": "1000",
            "city": "Brussels",
            "country": "Belgium"
          }
        ],
        "text": {
          "status": "generated",
          "div": "<div xmlns=\"http://www.w3.org/1999/xhtml\">Laboratory: Laboratoire Central Européenne, 1000 Brussels, Belgium</div>"
        }
      }
    }
  ],
  "type": "document",
  "timestamp": "2015-09-10T02:50:39Z"
}
