{
  "resourceType": "Bundle",
  "id": "89db7957-53a3-4769-91f5-329b8b43771c",
  "meta": {
    "profile": [
      "http://hl7.eu/fhir/laboratory/StructureDefinition/Bundle-eu-lab"
    ]
  },
  "identifier": {
    "assigner": {
      "display": "HL7 Europe"
    },
    "system": "urn:oid:2.16.840.1.113883.2.51.999",
    "value": "13d2b299-b62f-4a12-9350-cab00071a32f"
  },
  "entry": [
    {
      "fullUrl": "urn:uuid:3d82a16d-fe87-4d0e-8df0-a7815e4a9afb",
      "resource": {
        "resourceType": "Composition",
        "id": "3d82a16d-fe87-4d0e-8df0-a7815e4a9afb",
        "meta": {
          "profile": [
            "http://hl7.eu/fhir/laboratory/StructureDefinition/Composition-eu-lab"
          ]
        },
        "identifier": {
          "assigner": {
            "display": "HL7 Europe"
          },
          "system": "urn:oid:2.16.840.1.113883.2.51.999",
          "value": "bcdec711-16f3-4edc-bd38-de0f47aef556"
        },
        "author": [
          {
            "reference": "urn:uuid:6dfaf3f4-bed2-42d7-9904-4a4e6d37fbf4"
          }
        ],
        "category": [
          {
            "coding": [
              {
                "code": "26436-6",
                "system": "http://loinc.org",
                "display": "Laboratory studies (set)"
              }
            ]
          }
        ],
        "type": {
          "coding": [
            {
              "code": "11502-2",
              "system": "http://loinc.org",
              "display": "Laboratory report"
            }
          ],
          "text": "Laboratory Report"
        },
        "section": [
          {
            "code": {
              "coding": [
                {
                  "code": "26436-6",
                  "system": "http://loinc.org",
                  "display": "Laboratory studies (set)"
                }
              ],
              "text": "Laboratory studies"
            },
            "section": [
              {
                "code": {
                  "coding": [
                    {
                      "code": "$18723-7",
                      "system": "http://loinc.org",
                      "display": "Hematology studies (set)"
                    }
                  ],
                  "text": "Hematology"
                },
                "entry": [
                  {
                    "reference": "urn:uuid:944b028c-80da-4def-81f5-80fe67145c7c"
                  },
                  {
                    "reference": "urn:uuid:f749d5bb-5b07-44b8-b6e8-8f841ce8846f"
                  },
                  {
                    "reference": "urn:uuid:bc408436-57ff-4bd8-9839-368c80dce2e0"
                  },
                  {
                    "reference": "urn:uuid:7b8d9726-d3d2-4e21-9cf2-2b7e8c8de9e4"
                  },
                  {
                    "reference": "urn:uuid:90264a87-cd3d-418d-b924-d3d73d02abcd"
                  },
                  {
                    "reference": "urn:uuid:6937c788-eea8-402c-bce1-b30fd2aa72c3"
                  },
                  {
                    "reference": "urn:uuid:63641241-d6dd-4f68-8cdd-49b222d9d48b"
                  },
                  {
                    "reference": "urn:uuid:d81a3e62-cafe-4efb-b678-f4e444ed8c5f"
                  },
                  {
                    "reference": "urn:uuid:29b013e8-6606-4f91-90cb-d3b4d93ed20a"
                  },
                  {
                    "reference": "urn:uuid:b363d377-8162-4ba5-bef3-829b8b79e7c5"
                  },
                  {
                    "reference": "urn:uuid:a6a82a8b-27c4-43cf-94e9-71ddcafac717"
                  }
                ],
                "text": {
                  "status": "generated",
                  "div": "<div xmlns=\"http://www.w3.org/1999/xhtml\"><h3>Hematology</h3><table class=\"hl7__eu__lab__report\"><thead><tr><th>Test</th><th>05-DEC-2023</th><th>Reference&#xA0;Range</th><th>Unit</th></tr></thead><tbody><tr><td>Leukocytes [#/volume] in Blood by Automated count</td><td>5.8</td><td>3.4 - 10.5</td><td>10*3/uL</td></tr><tr><td>Erythrocytes [#/volume] in Blood by Automated count</td><td>4.3</td><td>4.2 - 5.7</td><td>10*6/uL</td></tr><tr><td>Hemoglobin [Mass/volume] in Blood</td><td>14.1</td><td>12 - 16</td><td>g/dL</td></tr><tr><td>Hematocrit [Volume Fraction] of Blood by Automated count</td><td>37.5</td><td>36 - 48</td><td>%</td></tr><tr><td>MCV [Entitic volume] by Automated count</td><td>83.9</td><td>82 - 98</td><td>fL</td></tr><tr><td>MCH [Entitic mass] by Automated count</td><td>28.1</td><td>27 - 34</td><td>pg</td></tr><tr><td>MCHC [Mass/volume] by Automated count</td><td>36.0</td><td>31 - 36</td><td>g/dL</td></tr><tr><td>Erythrocyte distribution width [Entitic volume] by Automated count</td><td>39.9</td><td>36 - 56</td><td>fL</td></tr><tr><td>Platelets [#/volume] in Blood by Automated count</td><td>427.3</td><td>150 - 450</td><td>10*3/uL</td></tr><tr><td>Platelet distribution width [Entitic volume] in Blood by Automated count</td><td><strong>510.0 H</strong></td><td>11.6 - 17.4</td><td>fL</td></tr><tr><td>Platelet mean volume [Entitic volume] in Blood by Automated count</td><td>12.2</td><td>9.4 - 14</td><td>fL</td></tr></tbody></table></div>"
                },
                "title": "Hematology"
              },
              {
                "code": {
                  "coding": [
                    {
                      "code": "$18719-5",
                      "system": "http://loinc.org",
                      "display": "Chemistry studies (set)"
                    }
                  ],
                  "text": "Chemistry"
                },
                "entry": [
                  {
                    "reference": "urn:uuid:35fd2c32-8317-44a7-83e4-42a2eb334a09"
                  },
                  {
                    "reference": "urn:uuid:ae3a8108-79f9-441a-be54-4b6b363cc91a"
                  },
                  {
                    "reference": "urn:uuid:d8d4b6d3-e516-49db-b316-7442ea8b8fb6"
                  },
                  {
                    "reference": "urn:uuid:53cc5937-cbb8-4ac5-bf79-834bb1ce59d0"
                  },
                  {
                    "reference": "urn:uuid:cb39e56f-3882-469d-9a2f-ccb7100cbe9e"
                  },
                  {
                    "reference": "urn:uuid:6383d49e-719f-4e1e-9c00-49a71cd30cc9"
                  },
                  {
                    "reference": "urn:uuid:759e45d9-b851-41ba-965e-365b17e566ee"
                  },
                  {
                    "reference": "urn:uuid:db7cdcf9-da1b-4341-8a4c-9b5965214d98"
                  },
                  {
                    "reference": "urn:uuid:0ed14c0f-4ea7-4884-afb9-acb669ca0a88"
                  }
                ],
                "text": {
                  "status": "generated",
                  "div": "<div xmlns=\"http://www.w3.org/1999/xhtml\"><h3>Chemistry</h3><table class=\"hl7__eu__lab__report\"><thead><tr><th>Test</th><th>05-DEC-2023</th><th>Reference&#xA0;Range</th><th>Unit</th></tr></thead><tbody><tr><td>Hemoglobin A1c/Hemoglobin.total in Blood</td><td>5.9</td><td>4.5 - 6.4</td><td>%</td></tr><tr><td>Glucose [Mass/volume] in Blood</td><td>84.4</td><td>70 - 140</td><td>mg/dL</td></tr><tr><td>Urea nitrogen [Mass/volume] in Blood</td><td>19.9</td><td>7 - 43</td><td>mg/dL</td></tr><tr><td>Creatinine [Mass/volume] in Blood</td><td>1.0</td><td>0.7 - 1.1</td><td>mg/dL</td></tr><tr><td>Calcium [Mass/volume] in Blood</td><td>9.3</td><td>8.5 - 10.4</td><td>mg/dL</td></tr><tr><td>Sodium [Moles/volume] in Blood</td><td>137.7</td><td>135 - 145</td><td>mmol/L</td></tr><tr><td>Potassium [Moles/volume] in Blood</td><td>4.0</td><td>3.5 - 5.1</td><td>mmol/L</td></tr><tr><td>Chloride [Moles/volume] in Blood</td><td><strong>109.3 H</strong></td><td>98 - 107</td><td>mmol/L</td></tr><tr><td>Carbon dioxide, total [Moles/volume] in Blood</td><td>25.7</td><td>22 - 32</td><td>mmol/L</td></tr></tbody></table></div>"
                },
                "title": "Chemistry"
              }
            ],
            "title": "Laboratory Report"
          },
          {
            "text": {
              "status": "generated",
              "div": "<div xmlns=\"http://www.w3.org/1999/xhtml\"><h3>Annotation</h3><table class=\"hl7__eu__lab__report\"><tr><th>Conclusion and Recommendations based on this report and previous findings known to us</th></tr><tr><td>All measured parameters are within normal limits except for a mildly elevated chloride and a markedly increased platelet distribution width, which may indicate platelet size variability but is of unclear clinical significance if platelet count and morphology are otherwise normal. No evidence of anemia, renal dysfunction, or impaired glucose control. Correlate with clinical findings if platelet disorders are suspected.</td></tr></table></div>"
            },
            "code": {
              "coding": [
                {
                  "system": "http://loinc.org",
                  "code": "48767-8",
                  "display": "Annotation comment"
                }
              ]
            },
            "title": "Annotation comment"
          }
        ],
        "status": "final",
        "subject": {
          "reference": "urn:uuid:ac67170e-1015-48f9-82f3-6d3d6fbf09b3",
          "display": "Louise Köster"
        },
        "date": "2023-12-05T05:02:53Z",
        "title": "Laboratory Report",
        "confidentiality": "N"
      }
    },
    {
      "fullUrl": "urn:uuid:87a4fe6c-06b2-49df-b50a-02f0b28d25d1",
      "resource": {
        "resourceType": "DiagnosticReport",
        "id": "87a4fe6c-06b2-49df-b50a-02f0b28d25d1",
        "meta": {
          "profile": [
            "http://hl7.eu/fhir/laboratory/StructureDefinition/DiagnosticReport-eu-lab"
          ]
        },
        "identifier": [
          {
            "assigner": {
              "display": "HL7 Europe"
            },
            "system": "urn:oid:2.16.840.1.113883.2.51.999",
            "value": "bf78e62a-078b-4bc8-9ea5-64b8406cd4a3"
          }
        ],
        "extension": [
          {
            "url": "http://hl7.org/fhir/5.0/StructureDefinition/extension-DiagnosticReport.composition",
            "valueReference": {
              "reference": "urn:uuid:bcdec711-16f3-4edc-bd38-de0f47aef556"
            }
          }
        ],
        "category": [
          {
            "coding": [
              {
                "code": "26436-6",
                "system": "http://loinc.org",
                "display": "Laboratory studies (set)"
              }
            ]
          }
        ],
        "specimen": [
          {
            "reference": "urn:uuid:9c4aed4a-a936-4346-ab40-e418749a0088"
          },
          {
            "reference": "urn:uuid:9c4aed4a-a936-4346-ab40-e418749a0088"
          }
        ],
        "result": [
          {
            "reference": "urn:uuid:35fd2c32-8317-44a7-83e4-42a2eb334a09"
          },
          {
            "reference": "urn:uuid:ae3a8108-79f9-441a-be54-4b6b363cc91a"
          },
          {
            "reference": "urn:uuid:d8d4b6d3-e516-49db-b316-7442ea8b8fb6"
          },
          {
            "reference": "urn:uuid:53cc5937-cbb8-4ac5-bf79-834bb1ce59d0"
          },
          {
            "reference": "urn:uuid:cb39e56f-3882-469d-9a2f-ccb7100cbe9e"
          },
          {
            "reference": "urn:uuid:6383d49e-719f-4e1e-9c00-49a71cd30cc9"
          },
          {
            "reference": "urn:uuid:759e45d9-b851-41ba-965e-365b17e566ee"
          },
          {
            "reference": "urn:uuid:db7cdcf9-da1b-4341-8a4c-9b5965214d98"
          },
          {
            "reference": "urn:uuid:0ed14c0f-4ea7-4884-afb9-acb669ca0a88"
          },
          {
            "reference": "urn:uuid:944b028c-80da-4def-81f5-80fe67145c7c"
          },
          {
            "reference": "urn:uuid:f749d5bb-5b07-44b8-b6e8-8f841ce8846f"
          },
          {
            "reference": "urn:uuid:bc408436-57ff-4bd8-9839-368c80dce2e0"
          },
          {
            "reference": "urn:uuid:7b8d9726-d3d2-4e21-9cf2-2b7e8c8de9e4"
          },
          {
            "reference": "urn:uuid:90264a87-cd3d-418d-b924-d3d73d02abcd"
          },
          {
            "reference": "urn:uuid:6937c788-eea8-402c-bce1-b30fd2aa72c3"
          },
          {
            "reference": "urn:uuid:63641241-d6dd-4f68-8cdd-49b222d9d48b"
          },
          {
            "reference": "urn:uuid:d81a3e62-cafe-4efb-b678-f4e444ed8c5f"
          },
          {
            "reference": "urn:uuid:29b013e8-6606-4f91-90cb-d3b4d93ed20a"
          },
          {
            "reference": "urn:uuid:b363d377-8162-4ba5-bef3-829b8b79e7c5"
          },
          {
            "reference": "urn:uuid:a6a82a8b-27c4-43cf-94e9-71ddcafac717"
          }
        ],
        "status": "registered",
        "code": {
          "coding": [
            {
              "code": "11502-2",
              "system": "http://loinc.org",
              "display": "Laboratory report"
            }
          ]
        },
        "subject": {
          "reference": "urn:uuid:ac67170e-1015-48f9-82f3-6d3d6fbf09b3",
          "display": "Louise Köster"
        }
      }
    },
    {
      "fullUrl": "urn:uuid:ac67170e-1015-48f9-82f3-6d3d6fbf09b3",
      "resource": {
        "resourceType": "Patient",
        "id": "ac67170e-1015-48f9-82f3-6d3d6fbf09b3",
        "meta": {
          "security": [
            {
              "system": "http://terminology.hl7.org/CodeSystem/v3-ActReason",
              "code": "HTEST"
            },
            {
              "system": "http://terminology.hl7.org/CodeSystem/v3-ActReason",
              "code": "TRAIN"
            }
          ],
          "tag": [
            {
              "system": "https://synderai.net/fhir/CodeSystem/tags",
              "code": "synthetic",
              "display": "SYNDERAI Synthetic data"
            }
          ],
          "profile": [
            "http://hl7.eu/fhir/base/StructureDefinition/patient-eu-core"
          ]
        },
        "identifier": [
          {
            "type": {
              "coding": [
                {
                  "code": "PT",
                  "system": "http://terminology.hl7.org/CodeSystem/v2-0203"
                }
              ]
            },
            "system": "http://ec.europa.eu/identifier/eci",
            "value": "1053-167357-1"
          },
          {
            "type": {
              "coding": [
                {
                  "code": "MR",
                  "system": "http://terminology.hl7.org/CodeSystem/v2-0203"
                }
              ]
            },
            "system": "http://local.setting.eu/identifier",
            "value": "706b1a23-528f-0ed7-639f-1dc54e8ecc5d"
          }
        ],
        "name": [
          {
            "family": "Köster"
          },
          {
            "given": [
              "Louise"
            ]
          },
          {
            "text": "Louise Köster"
          }
        ],
        "address": [
          {
            "line": [
              "Regina-Butte-Ring 737"
            ],
            "use": "home",
            "type": "physical",
            "postalCode": "88348",
            "city": "Saulgau",
            "country": "Germany"
          }
        ],
        "telecom": [
          {
            "system": "phone",
            "value": "+49(0)2075293938"
          }
        ],
        "extension": [
          {
            "url": "http://hl7.org/fhir/StructureDefinition/patient-nationality",
            "valueCodeableConcept": {
              "coding": [
                {
                  "code": "DE",
                  "system": "http://hl7.org/fhir/ValueSet/country"
                }
              ]
            }
          }
        ],
        "text": {
          "status": "generated",
          "div": "<div xmlns=\"http://www.w3.org/1999/xhtml\"><table class=\"hl7__ips\"><tr><td>Louise Köster</td><td>female</td><td>01-Jul-1957</td></tr></table></div>"
        },
        "gender": "female",
        "birthDate": "1957-07-01"
      }
    },
    {
      "fullUrl": "urn:uuid:b6433a84-4f63-46c2-bcb5-0650b78e98b9",
      "resource": {
        "resourceType": "ServiceRequest",
        "id": "b6433a84-4f63-46c2-bcb5-0650b78e98b9",
        "meta": {
          "profile": [
            "http://hl7.eu/fhir/laboratory/StructureDefinition/ServiceRequest-eu-lab"
          ]
        },
        "identifier": [
          {
            "system": "http://example.org",
            "value": "9e48d6c3-d965-486b-91bc-257dab7fcf35"
          }
        ],
        "specimen": [
          {
            "reference": "urn:uuid:9c4aed4a-a936-4346-ab40-e418749a0088"
          }
        ],
        "reasonCode": [
          {
            "coding": [
              {
                "code": "15777000",
                "system": "http://snomed.info/sct",
                "display": "Prediabetes"
              }
            ]
          },
          {
            "coding": [
              {
                "code": "237602007",
                "system": "http://snomed.info/sct",
                "display": "Metabolic syndrome X"
              }
            ]
          },
          {
            "coding": [
              {
                "code": "414545008",
                "system": "http://snomed.info/sct",
                "display": "Ischemic heart disease"
              }
            ]
          },
          {
            "coding": [
              {
                "code": "59621000",
                "system": "http://snomed.info/sct",
                "display": "Essential hypertension"
              }
            ]
          }
        ],
        "status": "active",
        "intent": "order",
        "code": {
          "coding": [
            {
              "code": "108252007",
              "system": "http://snomed.info/sct",
              "display": "Laboratory procedure"
            }
          ]
        },
        "subject": {
          "reference": "urn:uuid:ac67170e-1015-48f9-82f3-6d3d6fbf09b3",
          "display": "Louise Köster"
        },
        "requester": {
          "reference": "urn:uuid:38dc873a-15af-4cf7-993c-4b680ee5af57"
        }
      }
    },
    {
      "fullUrl": "urn:uuid:38dc873a-15af-4cf7-993c-4b680ee5af57",
      "resource": {
        "resourceType": "PractitionerRole",
        "id": "38dc873a-15af-4cf7-993c-4b680ee5af57",
        "meta": {
          "profile": [
            "http://hl7.eu/fhir/base/StructureDefinition/practitionerRole-eu"
          ]
        },
        "text": {
          "status": "generated",
          "div": "<div xmlns=\"http://www.w3.org/1999/xhtml\">Provider Role Id: 38dc873a-15af-4cf7-993c-4b680ee5af57</div>"
        },
        "organization": {
          "reference": "urn:uuid:5aee0a81-4d22-4c89-9e31-fcb39932855a"
        }
      }
    },
    {
      "fullUrl": "urn:uuid:5aee0a81-4d22-4c89-9e31-fcb39932855a",
      "resource": {
        "resourceType": "Organization",
        "id": "5aee0a81-4d22-4c89-9e31-fcb39932855a",
        "meta": {
          "profile": [
            "http://hl7.eu/fhir/base/StructureDefinition/organization-eu"
          ]
        },
        "identifier": [
          {
            "assigner": {
              "display": "HL7 Europe"
            },
            "system": "urn:oid:2.16.840.1.113883.2.51.999",
            "value": "eea70e40-a935-4616-8d42-7b3c53587485"
          }
        ],
        "address": [
          {
            "line": [
              "Am Schönen Moos 7"
            ],
            "city": "Bad Saulgau",
            "postalCode": "88348",
            "country": "Germany"
          }
        ],
        "text": {
          "status": "generated",
          "div": "<div xmlns=\"http://www.w3.org/1999/xhtml\">Provider Organization: Klinik am schönen Moos</div>"
        },
        "name": "Klinik am schönen Moos"
      }
    },
    {
      "fullUrl": "urn:uuid:9c4aed4a-a936-4346-ab40-e418749a0088",
      "resource": {
        "resourceType": "Specimen",
        "id": "9c4aed4a-a936-4346-ab40-e418749a0088",
        "meta": {
          "profile": [
            "http://hl7.eu/fhir/laboratory/StructureDefinition/Specimen-eu-lab"
          ]
        },
        "collection": {
          "collectedDateTime": "2023-12-05"
        },
        "text": {
          "status": "generated",
          "div": "<div xmlns=\"http://www.w3.org/1999/xhtml\"><table class=\"hl7__eu__lab__report\"><tr><th>Specimen</th><th>Collection Date</th></tr><tr><td>Whole blood specimen (specimen)</td><td><span class=\"nb\">05-Dec-2023</span></td></tr></table></div>"
        },
        "type": {
          "coding": [
            {
              "code": "258580003",
              "system": "http://snomed.info/sct",
              "display": "Whole blood specimen (specimen)"
            }
          ]
        }
      }
    },
    {
      "fullUrl": "urn:uuid:9c4aed4a-a936-4346-ab40-e418749a0088",
      "resource": {
        "resourceType": "Specimen",
        "id": "9c4aed4a-a936-4346-ab40-e418749a0088",
        "meta": {
          "profile": [
            "http://hl7.eu/fhir/laboratory/StructureDefinition/Specimen-eu-lab"
          ]
        },
        "collection": {
          "collectedDateTime": "2023-12-05"
        },
        "text": {
          "status": "generated",
          "div": "<div xmlns=\"http://www.w3.org/1999/xhtml\"><table class=\"hl7__eu__lab__report\"><tr><th>Specimen</th><th>Collection Date</th></tr><tr><td>Whole blood specimen (specimen)</td><td><span class=\"nb\">05-Dec-2023</span></td></tr></table></div>"
        },
        "type": {
          "coding": [
            {
              "code": "258580003",
              "system": "http://snomed.info/sct",
              "display": "Whole blood specimen (specimen)"
            }
          ]
        }
      }
    },
    {
      "fullUrl": "urn:uuid:35fd2c32-8317-44a7-83e4-42a2eb334a09",
      "resource": {
        "resourceType": "Observation",
        "id": "35fd2c32-8317-44a7-83e4-42a2eb334a09",
        "meta": {
          "profile": [
            "http://hl7.eu/fhir/laboratory/StructureDefinition/Observation-resultslab-eu-lab"
          ]
        },
        "performer": [
          {
            "display": "The Central European Lab"
          }
        ],
        "category": [
          {
            "coding": [
              {
                "system": "http://terminology.hl7.org/CodeSystem/observation-category",
                "code": "laboratory"
              }
            ]
          }
        ],
        "code": {
          "coding": [
            {
              "code": "4548-4",
              "system": "http://loinc.org",
              "display": "Hemoglobin A1c/Hemoglobin.total in Blood"
            }
          ],
          "text": "Hemoglobin A1c/Hemoglobin.total in Blood"
        },
        "valueQuantity": {
          "system": "http://unitsofmeasure.org",
          "value": 5.9,
          "unit": "%",
          "code": "%"
        },
        "referenceRange": [
          {
            "low": {
              "value": 4.5,
              "code": "%",
              "system": "http://unitsofmeasure.org"
            }
          },
          {
            "high": {
              "value": 6.4,
              "code": "%",
              "system": "http://unitsofmeasure.org"
            }
          }
        ],
        "text": {
          "status": "generated",
          "div": "<div xmlns=\"http://www.w3.org/1999/xhtml\"><table class=\"hl7__eu__lab__report\"><tr><th>Test</th><th>05-Dec-2023</th><th>Reference&#xA0;Range</th><th>Unit</th></tr><tr><td>Hemoglobin A1c/Hemoglobin.total in Blood</td><td>5.9</td><td>4.5 - 6.4</td><td></td><td>%</td></tr></table></div>"
        },
        "status": "final",
        "subject": {
          "reference": "urn:uuid:ac67170e-1015-48f9-82f3-6d3d6fbf09b3",
          "display": "Louise Köster"
        },
        "effectiveDateTime": "2023-12-05T04:02:53Z",
        "specimen": {
          "reference": "urn:uuid:9c4aed4a-a936-4346-ab40-e418749a0088"
        }
      }
    },
    {
      "fullUrl": "urn:uuid:ae3a8108-79f9-441a-be54-4b6b363cc91a",
      "resource": {
        "resourceType": "Observation",
        "id": "ae3a8108-79f9-441a-be54-4b6b363cc91a",
        "meta": {
          "profile": [
            "http://hl7.eu/fhir/laboratory/StructureDefinition/Observation-resultslab-eu-lab"
          ]
        },
        "performer": [
          {
            "display": "The Central European Lab"
          }
        ],
        "category": [
          {
            "coding": [
              {
                "system": "http://terminology.hl7.org/CodeSystem/observation-category",
                "code": "laboratory"
              }
            ]
          }
        ],
        "code": {
          "coding": [
            {
              "code": "2339-0",
              "system": "http://loinc.org",
              "display": "Glucose [Mass/volume] in Blood"
            }
          ],
          "text": "Glucose [Mass/volume] in Blood"
        },
        "valueQuantity": {
          "system": "http://unitsofmeasure.org",
          "value": 84.4,
          "unit": "mg/dL",
          "code": "mg/dL"
        },
        "referenceRange": [
          {
            "low": {
              "value": 70,
              "code": "mg/dL",
              "system": "http://unitsofmeasure.org"
            }
          },
          {
            "high": {
              "value": 140,
              "code": "mg/dL",
              "system": "http://unitsofmeasure.org"
            }
          }
        ],
        "text": {
          "status": "generated",
          "div": "<div xmlns=\"http://www.w3.org/1999/xhtml\"><table class=\"hl7__eu__lab__report\"><tr><th>Test</th><th>05-Dec-2023</th><th>Reference&#xA0;Range</th><th>Unit</th></tr><tr><td>Glucose [Mass/volume] in Blood</td><td>84.4</td><td>70 - 140</td><td></td><td>mg/dL</td></tr></table></div>"
        },
        "status": "final",
        "subject": {
          "reference": "urn:uuid:ac67170e-1015-48f9-82f3-6d3d6fbf09b3",
          "display": "Louise Köster"
        },
        "effectiveDateTime": "2023-12-05T04:02:53Z",
        "specimen": {
          "reference": "urn:uuid:9c4aed4a-a936-4346-ab40-e418749a0088"
        }
      }
    },
    {
      "fullUrl": "urn:uuid:d8d4b6d3-e516-49db-b316-7442ea8b8fb6",
      "resource": {
        "resourceType": "Observation",
        "id": "d8d4b6d3-e516-49db-b316-7442ea8b8fb6",
        "meta": {
          "profile": [
            "http://hl7.eu/fhir/laboratory/StructureDefinition/Observation-resultslab-eu-lab"
          ]
        },
        "performer": [
          {
            "display": "The Central European Lab"
          }
        ],
        "category": [
          {
            "coding": [
              {
                "system": "http://terminology.hl7.org/CodeSystem/observation-category",
                "code": "laboratory"
              }
            ]
          }
        ],
        "code": {
          "coding": [
            {
              "code": "6299-2",
              "system": "http://loinc.org",
              "display": "Urea nitrogen [Mass/volume] in Blood"
            }
          ],
          "text": "Urea nitrogen [Mass/volume] in Blood"
        },
        "valueQuantity": {
          "system": "http://unitsofmeasure.org",
          "value": 19.9,
          "unit": "mg/dL",
          "code": "mg/dL"
        },
        "referenceRange": [
          {
            "low": {
              "value": 7,
              "code": "mg/dL",
              "system": "http://unitsofmeasure.org"
            }
          },
          {
            "high": {
              "value": 43,
              "code": "mg/dL",
              "system": "http://unitsofmeasure.org"
            }
          }
        ],
        "text": {
          "status": "generated",
          "div": "<div xmlns=\"http://www.w3.org/1999/xhtml\"><table class=\"hl7__eu__lab__report\"><tr><th>Test</th><th>05-Dec-2023</th><th>Reference&#xA0;Range</th><th>Unit</th></tr><tr><td>Urea nitrogen [Mass/volume] in Blood</td><td>19.9</td><td>7 - 43</td><td></td><td>mg/dL</td></tr></table></div>"
        },
        "status": "final",
        "subject": {
          "reference": "urn:uuid:ac67170e-1015-48f9-82f3-6d3d6fbf09b3",
          "display": "Louise Köster"
        },
        "effectiveDateTime": "2023-12-05T04:02:53Z",
        "specimen": {
          "reference": "urn:uuid:9c4aed4a-a936-4346-ab40-e418749a0088"
        }
      }
    },
    {
      "fullUrl": "urn:uuid:53cc5937-cbb8-4ac5-bf79-834bb1ce59d0",
      "resource": {
        "resourceType": "Observation",
        "id": "53cc5937-cbb8-4ac5-bf79-834bb1ce59d0",
        "meta": {
          "profile": [
            "http://hl7.eu/fhir/laboratory/StructureDefinition/Observation-resultslab-eu-lab"
          ]
        },
        "performer": [
          {
            "display": "The Central European Lab"
          }
        ],
        "category": [
          {
            "coding": [
              {
                "system": "http://terminology.hl7.org/CodeSystem/observation-category",
                "code": "laboratory"
              }
            ]
          }
        ],
        "code": {
          "coding": [
            {
              "code": "38483-4",
              "system": "http://loinc.org",
              "display": "Creatinine [Mass/volume] in Blood"
            }
          ],
          "text": "Creatinine [Mass/volume] in Blood"
        },
        "valueQuantity": {
          "system": "http://unitsofmeasure.org",
          "value": 1,
          "unit": "mg/dL",
          "code": "mg/dL"
        },
        "referenceRange": [
          {
            "low": {
              "value": 0.7,
              "code": "mg/dL",
              "system": "http://unitsofmeasure.org"
            }
          },
          {
            "high": {
              "value": 1.1,
              "code": "mg/dL",
              "system": "http://unitsofmeasure.org"
            }
          }
        ],
        "text": {
          "status": "generated",
          "div": "<div xmlns=\"http://www.w3.org/1999/xhtml\"><table class=\"hl7__eu__lab__report\"><tr><th>Test</th><th>05-Dec-2023</th><th>Reference&#xA0;Range</th><th>Unit</th></tr><tr><td>Creatinine [Mass/volume] in Blood</td><td>1.0</td><td>0.7 - 1.1</td><td></td><td>mg/dL</td></tr></table></div>"
        },
        "status": "final",
        "subject": {
          "reference": "urn:uuid:ac67170e-1015-48f9-82f3-6d3d6fbf09b3",
          "display": "Louise Köster"
        },
        "effectiveDateTime": "2023-12-05T04:02:53Z",
        "specimen": {
          "reference": "urn:uuid:9c4aed4a-a936-4346-ab40-e418749a0088"
        }
      }
    },
    {
      "fullUrl": "urn:uuid:cb39e56f-3882-469d-9a2f-ccb7100cbe9e",
      "resource": {
        "resourceType": "Observation",
        "id": "cb39e56f-3882-469d-9a2f-ccb7100cbe9e",
        "meta": {
          "profile": [
            "http://hl7.eu/fhir/laboratory/StructureDefinition/Observation-resultslab-eu-lab"
          ]
        },
        "performer": [
          {
            "display": "The Central European Lab"
          }
        ],
        "category": [
          {
            "coding": [
              {
                "system": "http://terminology.hl7.org/CodeSystem/observation-category",
                "code": "laboratory"
              }
            ]
          }
        ],
        "code": {
          "coding": [
            {
              "code": "49765-1",
              "system": "http://loinc.org",
              "display": "Calcium [Mass/volume] in Blood"
            }
          ],
          "text": "Calcium [Mass/volume] in Blood"
        },
        "valueQuantity": {
          "system": "http://unitsofmeasure.org",
          "value": 9.3,
          "unit": "mg/dL",
          "code": "mg/dL"
        },
        "referenceRange": [
          {
            "low": {
              "value": 8.5,
              "code": "mg/dL",
              "system": "http://unitsofmeasure.org"
            }
          },
          {
            "high": {
              "value": 10.4,
              "code": "mg/dL",
              "system": "http://unitsofmeasure.org"
            }
          }
        ],
        "text": {
          "status": "generated",
          "div": "<div xmlns=\"http://www.w3.org/1999/xhtml\"><table class=\"hl7__eu__lab__report\"><tr><th>Test</th><th>05-Dec-2023</th><th>Reference&#xA0;Range</th><th>Unit</th></tr><tr><td>Calcium [Mass/volume] in Blood</td><td>9.3</td><td>8.5 - 10.4</td><td></td><td>mg/dL</td></tr></table></div>"
        },
        "status": "final",
        "subject": {
          "reference": "urn:uuid:ac67170e-1015-48f9-82f3-6d3d6fbf09b3",
          "display": "Louise Köster"
        },
        "effectiveDateTime": "2023-12-05T04:02:53Z",
        "specimen": {
          "reference": "urn:uuid:9c4aed4a-a936-4346-ab40-e418749a0088"
        }
      }
    },
    {
      "fullUrl": "urn:uuid:6383d49e-719f-4e1e-9c00-49a71cd30cc9",
      "resource": {
        "resourceType": "Observation",
        "id": "6383d49e-719f-4e1e-9c00-49a71cd30cc9",
        "meta": {
          "profile": [
            "http://hl7.eu/fhir/laboratory/StructureDefinition/Observation-resultslab-eu-lab"
          ]
        },
        "performer": [
          {
            "display": "The Central European Lab"
          }
        ],
        "category": [
          {
            "coding": [
              {
                "system": "http://terminology.hl7.org/CodeSystem/observation-category",
                "code": "laboratory"
              }
            ]
          }
        ],
        "code": {
          "coding": [
            {
              "code": "2947-0",
              "system": "http://loinc.org",
              "display": "Sodium [Moles/volume] in Blood"
            }
          ],
          "text": "Sodium [Moles/volume] in Blood"
        },
        "valueQuantity": {
          "system": "http://unitsofmeasure.org",
          "value": 137.7,
          "unit": "mmol/L",
          "code": "mmol/L"
        },
        "referenceRange": [
          {
            "low": {
              "value": 135,
              "code": "mmol/L",
              "system": "http://unitsofmeasure.org"
            }
          },
          {
            "high": {
              "value": 145,
              "code": "mmol/L",
              "system": "http://unitsofmeasure.org"
            }
          }
        ],
        "text": {
          "status": "generated",
          "div": "<div xmlns=\"http://www.w3.org/1999/xhtml\"><table class=\"hl7__eu__lab__report\"><tr><th>Test</th><th>05-Dec-2023</th><th>Reference&#xA0;Range</th><th>Unit</th></tr><tr><td>Sodium [Moles/volume] in Blood</td><td>137.7</td><td>135 - 145</td><td></td><td>mmol/L</td></tr></table></div>"
        },
        "status": "final",
        "subject": {
          "reference": "urn:uuid:ac67170e-1015-48f9-82f3-6d3d6fbf09b3",
          "display": "Louise Köster"
        },
        "effectiveDateTime": "2023-12-05T04:02:53Z",
        "specimen": {
          "reference": "urn:uuid:9c4aed4a-a936-4346-ab40-e418749a0088"
        }
      }
    },
    {
      "fullUrl": "urn:uuid:759e45d9-b851-41ba-965e-365b17e566ee",
      "resource": {
        "resourceType": "Observation",
        "id": "759e45d9-b851-41ba-965e-365b17e566ee",
        "meta": {
          "profile": [
            "http://hl7.eu/fhir/laboratory/StructureDefinition/Observation-resultslab-eu-lab"
          ]
        },
        "performer": [
          {
            "display": "The Central European Lab"
          }
        ],
        "category": [
          {
            "coding": [
              {
                "system": "http://terminology.hl7.org/CodeSystem/observation-category",
                "code": "laboratory"
              }
            ]
          }
        ],
        "code": {
          "coding": [
            {
              "code": "6298-4",
              "system": "http://loinc.org",
              "display": "Potassium [Moles/volume] in Blood"
            }
          ],
          "text": "Potassium [Moles/volume] in Blood"
        },
        "valueQuantity": {
          "system": "http://unitsofmeasure.org",
          "value": 4,
          "unit": "mmol/L",
          "code": "mmol/L"
        },
        "referenceRange": [
          {
            "low": {
              "value": 3.5,
              "code": "mmol/L",
              "system": "http://unitsofmeasure.org"
            }
          },
          {
            "high": {
              "value": 5.1,
              "code": "mmol/L",
              "system": "http://unitsofmeasure.org"
            }
          }
        ],
        "text": {
          "status": "generated",
          "div": "<div xmlns=\"http://www.w3.org/1999/xhtml\"><table class=\"hl7__eu__lab__report\"><tr><th>Test</th><th>05-Dec-2023</th><th>Reference&#xA0;Range</th><th>Unit</th></tr><tr><td>Potassium [Moles/volume] in Blood</td><td>4.0</td><td>3.5 - 5.1</td><td></td><td>mmol/L</td></tr></table></div>"
        },
        "status": "final",
        "subject": {
          "reference": "urn:uuid:ac67170e-1015-48f9-82f3-6d3d6fbf09b3",
          "display": "Louise Köster"
        },
        "effectiveDateTime": "2023-12-05T04:02:53Z",
        "specimen": {
          "reference": "urn:uuid:9c4aed4a-a936-4346-ab40-e418749a0088"
        }
      }
    },
    {
      "fullUrl": "urn:uuid:db7cdcf9-da1b-4341-8a4c-9b5965214d98",
      "resource": {
        "resourceType": "Observation",
        "id": "db7cdcf9-da1b-4341-8a4c-9b5965214d98",
        "meta": {
          "profile": [
            "http://hl7.eu/fhir/laboratory/StructureDefinition/Observation-resultslab-eu-lab"
          ]
        },
        "performer": [
          {
            "display": "The Central European Lab"
          }
        ],
        "category": [
          {
            "coding": [
              {
                "system": "http://terminology.hl7.org/CodeSystem/observation-category",
                "code": "laboratory"
              }
            ]
          }
        ],
        "code": {
          "coding": [
            {
              "code": "2069-3",
              "system": "http://loinc.org",
              "display": "Chloride [Moles/volume] in Blood"
            }
          ],
          "text": "Chloride [Moles/volume] in Blood"
        },
        "valueQuantity": {
          "system": "http://unitsofmeasure.org",
          "value": 109.3,
          "unit": "mmol/L",
          "code": "mmol/L"
        },
        "referenceRange": [
          {
            "low": {
              "value": 98,
              "code": "mmol/L",
              "system": "http://unitsofmeasure.org"
            }
          },
          {
            "high": {
              "value": 107,
              "code": "mmol/L",
              "system": "http://unitsofmeasure.org"
            }
          }
        ],
        "interpretation": [
          {
            "coding": [
              {
                "code": "H",
                "system": "http://terminology.hl7.org/CodeSystem/v3-ObservationInterpretation",
                "display": "High"
              }
            ]
          }
        ],
        "text": {
          "status": "generated",
          "div": "<div xmlns=\"http://www.w3.org/1999/xhtml\"><table class=\"hl7__eu__lab__report\"><tr><th>Test</th><th>05-Dec-2023</th><th>Reference&#xA0;Range</th><th>Unit</th></tr><tr><td>Chloride [Moles/volume] in Blood</td><td>109.3</td><td>98 - 107</td><td>H</td><td>mmol/L</td></tr></table></div>"
        },
        "status": "final",
        "subject": {
          "reference": "urn:uuid:ac67170e-1015-48f9-82f3-6d3d6fbf09b3",
          "display": "Louise Köster"
        },
        "effectiveDateTime": "2023-12-05T04:02:53Z",
        "specimen": {
          "reference": "urn:uuid:9c4aed4a-a936-4346-ab40-e418749a0088"
        }
      }
    },
    {
      "fullUrl": "urn:uuid:0ed14c0f-4ea7-4884-afb9-acb669ca0a88",
      "resource": {
        "resourceType": "Observation",
        "id": "0ed14c0f-4ea7-4884-afb9-acb669ca0a88",
        "meta": {
          "profile": [
            "http://hl7.eu/fhir/laboratory/StructureDefinition/Observation-resultslab-eu-lab"
          ]
        },
        "performer": [
          {
            "display": "The Central European Lab"
          }
        ],
        "category": [
          {
            "coding": [
              {
                "system": "http://terminology.hl7.org/CodeSystem/observation-category",
                "code": "laboratory"
              }
            ]
          }
        ],
        "code": {
          "coding": [
            {
              "code": "20565-8",
              "system": "http://loinc.org",
              "display": "Carbon dioxide, total [Moles/volume] in Blood"
            }
          ],
          "text": "Carbon dioxide, total [Moles/volume] in Blood"
        },
        "valueQuantity": {
          "system": "http://unitsofmeasure.org",
          "value": 25.7,
          "unit": "mmol/L",
          "code": "mmol/L"
        },
        "referenceRange": [
          {
            "low": {
              "value": 22,
              "code": "mmol/L",
              "system": "http://unitsofmeasure.org"
            }
          },
          {
            "high": {
              "value": 32,
              "code": "mmol/L",
              "system": "http://unitsofmeasure.org"
            }
          }
        ],
        "text": {
          "status": "generated",
          "div": "<div xmlns=\"http://www.w3.org/1999/xhtml\"><table class=\"hl7__eu__lab__report\"><tr><th>Test</th><th>05-Dec-2023</th><th>Reference&#xA0;Range</th><th>Unit</th></tr><tr><td>Carbon dioxide, total [Moles/volume] in Blood</td><td>25.7</td><td>22 - 32</td><td></td><td>mmol/L</td></tr></table></div>"
        },
        "status": "final",
        "subject": {
          "reference": "urn:uuid:ac67170e-1015-48f9-82f3-6d3d6fbf09b3",
          "display": "Louise Köster"
        },
        "effectiveDateTime": "2023-12-05T04:02:53Z",
        "specimen": {
          "reference": "urn:uuid:9c4aed4a-a936-4346-ab40-e418749a0088"
        }
      }
    },
    {
      "fullUrl": "urn:uuid:944b028c-80da-4def-81f5-80fe67145c7c",
      "resource": {
        "resourceType": "Observation",
        "id": "944b028c-80da-4def-81f5-80fe67145c7c",
        "meta": {
          "profile": [
            "http://hl7.eu/fhir/laboratory/StructureDefinition/Observation-resultslab-eu-lab"
          ]
        },
        "performer": [
          {
            "display": "The Central European Lab"
          }
        ],
        "category": [
          {
            "coding": [
              {
                "system": "http://terminology.hl7.org/CodeSystem/observation-category",
                "code": "laboratory"
              }
            ]
          }
        ],
        "code": {
          "coding": [
            {
              "code": "6690-2",
              "system": "http://loinc.org",
              "display": "Leukocytes [#/volume] in Blood by Automated count"
            }
          ],
          "text": "Leukocytes [#/volume] in Blood by Automated count"
        },
        "valueQuantity": {
          "system": "http://unitsofmeasure.org",
          "value": 5.8,
          "unit": "10*3/uL",
          "code": "10*3/uL"
        },
        "referenceRange": [
          {
            "low": {
              "value": 3.4,
              "code": "10*3/uL",
              "system": "http://unitsofmeasure.org"
            }
          },
          {
            "high": {
              "value": 10.5,
              "code": "10*3/uL",
              "system": "http://unitsofmeasure.org"
            }
          }
        ],
        "text": {
          "status": "generated",
          "div": "<div xmlns=\"http://www.w3.org/1999/xhtml\"><table class=\"hl7__eu__lab__report\"><tr><th>Test</th><th>05-Dec-2023</th><th>Reference&#xA0;Range</th><th>Unit</th></tr><tr><td>Leukocytes [#/volume] in Blood by Automated count</td><td>5.8</td><td>3.4 - 10.5</td><td></td><td>10*3/uL</td></tr></table></div>"
        },
        "status": "final",
        "subject": {
          "reference": "urn:uuid:ac67170e-1015-48f9-82f3-6d3d6fbf09b3",
          "display": "Louise Köster"
        },
        "effectiveDateTime": "2023-12-05T04:02:53Z",
        "specimen": {
          "reference": "urn:uuid:9c4aed4a-a936-4346-ab40-e418749a0088"
        }
      }
    },
    {
      "fullUrl": "urn:uuid:f749d5bb-5b07-44b8-b6e8-8f841ce8846f",
      "resource": {
        "resourceType": "Observation",
        "id": "f749d5bb-5b07-44b8-b6e8-8f841ce8846f",
        "meta": {
          "profile": [
            "http://hl7.eu/fhir/laboratory/StructureDefinition/Observation-resultslab-eu-lab"
          ]
        },
        "performer": [
          {
            "display": "The Central European Lab"
          }
        ],
        "category": [
          {
            "coding": [
              {
                "system": "http://terminology.hl7.org/CodeSystem/observation-category",
                "code": "laboratory"
              }
            ]
          }
        ],
        "code": {
          "coding": [
            {
              "code": "789-8",
              "system": "http://loinc.org",
              "display": "Erythrocytes [#/volume] in Blood by Automated count"
            }
          ],
          "text": "Erythrocytes [#/volume] in Blood by Automated count"
        },
        "valueQuantity": {
          "system": "http://unitsofmeasure.org",
          "value": 4.3,
          "unit": "10*6/uL",
          "code": "10*6/uL"
        },
        "referenceRange": [
          {
            "low": {
              "value": 4.2,
              "code": "10*6/uL",
              "system": "http://unitsofmeasure.org"
            }
          },
          {
            "high": {
              "value": 5.7,
              "code": "10*6/uL",
              "system": "http://unitsofmeasure.org"
            }
          }
        ],
        "text": {
          "status": "generated",
          "div": "<div xmlns=\"http://www.w3.org/1999/xhtml\"><table class=\"hl7__eu__lab__report\"><tr><th>Test</th><th>05-Dec-2023</th><th>Reference&#xA0;Range</th><th>Unit</th></tr><tr><td>Erythrocytes [#/volume] in Blood by Automated count</td><td>4.3</td><td>4.2 - 5.7</td><td></td><td>10*6/uL</td></tr></table></div>"
        },
        "status": "final",
        "subject": {
          "reference": "urn:uuid:ac67170e-1015-48f9-82f3-6d3d6fbf09b3",
          "display": "Louise Köster"
        },
        "effectiveDateTime": "2023-12-05T04:02:53Z",
        "specimen": {
          "reference": "urn:uuid:9c4aed4a-a936-4346-ab40-e418749a0088"
        }
      }
    },
    {
      "fullUrl": "urn:uuid:bc408436-57ff-4bd8-9839-368c80dce2e0",
      "resource": {
        "resourceType": "Observation",
        "id": "bc408436-57ff-4bd8-9839-368c80dce2e0",
        "meta": {
          "profile": [
            "http://hl7.eu/fhir/laboratory/StructureDefinition/Observation-resultslab-eu-lab"
          ]
        },
        "performer": [
          {
            "display": "The Central European Lab"
          }
        ],
        "category": [
          {
            "coding": [
              {
                "system": "http://terminology.hl7.org/CodeSystem/observation-category",
                "code": "laboratory"
              }
            ]
          }
        ],
        "code": {
          "coding": [
            {
              "code": "718-7",
              "system": "http://loinc.org",
              "display": "Hemoglobin [Mass/volume] in Blood"
            }
          ],
          "text": "Hemoglobin [Mass/volume] in Blood"
        },
        "valueQuantity": {
          "system": "http://unitsofmeasure.org",
          "value": 14.1,
          "unit": "g/dL",
          "code": "g/dL"
        },
        "referenceRange": [
          {
            "low": {
              "value": 12,
              "code": "g/dL",
              "system": "http://unitsofmeasure.org"
            }
          },
          {
            "high": {
              "value": 16,
              "code": "g/dL",
              "system": "http://unitsofmeasure.org"
            }
          }
        ],
        "text": {
          "status": "generated",
          "div": "<div xmlns=\"http://www.w3.org/1999/xhtml\"><table class=\"hl7__eu__lab__report\"><tr><th>Test</th><th>05-Dec-2023</th><th>Reference&#xA0;Range</th><th>Unit</th></tr><tr><td>Hemoglobin [Mass/volume] in Blood</td><td>14.1</td><td>12 - 16</td><td></td><td>g/dL</td></tr></table></div>"
        },
        "status": "final",
        "subject": {
          "reference": "urn:uuid:ac67170e-1015-48f9-82f3-6d3d6fbf09b3",
          "display": "Louise Köster"
        },
        "effectiveDateTime": "2023-12-05T04:02:53Z",
        "specimen": {
          "reference": "urn:uuid:9c4aed4a-a936-4346-ab40-e418749a0088"
        }
      }
    },
    {
      "fullUrl": "urn:uuid:7b8d9726-d3d2-4e21-9cf2-2b7e8c8de9e4",
      "resource": {
        "resourceType": "Observation",
        "id": "7b8d9726-d3d2-4e21-9cf2-2b7e8c8de9e4",
        "meta": {
          "profile": [
            "http://hl7.eu/fhir/laboratory/StructureDefinition/Observation-resultslab-eu-lab"
          ]
        },
        "performer": [
          {
            "display": "The Central European Lab"
          }
        ],
        "category": [
          {
            "coding": [
              {
                "system": "http://terminology.hl7.org/CodeSystem/observation-category",
                "code": "laboratory"
              }
            ]
          }
        ],
        "code": {
          "coding": [
            {
              "code": "4544-3",
              "system": "http://loinc.org",
              "display": "Hematocrit [Volume Fraction] of Blood by Automated count"
            }
          ],
          "text": "Hematocrit [Volume Fraction] of Blood by Automated count"
        },
        "valueQuantity": {
          "system": "http://unitsofmeasure.org",
          "value": 37.5,
          "unit": "%",
          "code": "%"
        },
        "referenceRange": [
          {
            "low": {
              "value": 36,
              "code": "%",
              "system": "http://unitsofmeasure.org"
            }
          },
          {
            "high": {
              "value": 48,
              "code": "%",
              "system": "http://unitsofmeasure.org"
            }
          }
        ],
        "text": {
          "status": "generated",
          "div": "<div xmlns=\"http://www.w3.org/1999/xhtml\"><table class=\"hl7__eu__lab__report\"><tr><th>Test</th><th>05-Dec-2023</th><th>Reference&#xA0;Range</th><th>Unit</th></tr><tr><td>Hematocrit [Volume Fraction] of Blood by Automated count</td><td>37.5</td><td>36 - 48</td><td></td><td>%</td></tr></table></div>"
        },
        "status": "final",
        "subject": {
          "reference": "urn:uuid:ac67170e-1015-48f9-82f3-6d3d6fbf09b3",
          "display": "Louise Köster"
        },
        "effectiveDateTime": "2023-12-05T04:02:53Z",
        "specimen": {
          "reference": "urn:uuid:9c4aed4a-a936-4346-ab40-e418749a0088"
        }
      }
    },
    {
      "fullUrl": "urn:uuid:90264a87-cd3d-418d-b924-d3d73d02abcd",
      "resource": {
        "resourceType": "Observation",
        "id": "90264a87-cd3d-418d-b924-d3d73d02abcd",
        "meta": {
          "profile": [
            "http://hl7.eu/fhir/laboratory/StructureDefinition/Observation-resultslab-eu-lab"
          ]
        },
        "performer": [
          {
            "display": "The Central European Lab"
          }
        ],
        "category": [
          {
            "coding": [
              {
                "system": "http://terminology.hl7.org/CodeSystem/observation-category",
                "code": "laboratory"
              }
            ]
          }
        ],
        "code": {
          "coding": [
            {
              "code": "787-2",
              "system": "http://loinc.org",
              "display": "MCV [Entitic volume] by Automated count"
            }
          ],
          "text": "MCV [Entitic volume] by Automated count"
        },
        "valueQuantity": {
          "system": "http://unitsofmeasure.org",
          "value": 83.9,
          "unit": "fL",
          "code": "fL"
        },
        "referenceRange": [
          {
            "low": {
              "value": 82,
              "code": "fL",
              "system": "http://unitsofmeasure.org"
            }
          },
          {
            "high": {
              "value": 98,
              "code": "fL",
              "system": "http://unitsofmeasure.org"
            }
          }
        ],
        "text": {
          "status": "generated",
          "div": "<div xmlns=\"http://www.w3.org/1999/xhtml\"><table class=\"hl7__eu__lab__report\"><tr><th>Test</th><th>05-Dec-2023</th><th>Reference&#xA0;Range</th><th>Unit</th></tr><tr><td>MCV [Entitic volume] by Automated count</td><td>83.9</td><td>82 - 98</td><td></td><td>fL</td></tr></table></div>"
        },
        "status": "final",
        "subject": {
          "reference": "urn:uuid:ac67170e-1015-48f9-82f3-6d3d6fbf09b3",
          "display": "Louise Köster"
        },
        "effectiveDateTime": "2023-12-05T04:02:53Z",
        "specimen": {
          "reference": "urn:uuid:9c4aed4a-a936-4346-ab40-e418749a0088"
        }
      }
    },
    {
      "fullUrl": "urn:uuid:6937c788-eea8-402c-bce1-b30fd2aa72c3",
      "resource": {
        "resourceType": "Observation",
        "id": "6937c788-eea8-402c-bce1-b30fd2aa72c3",
        "meta": {
          "profile": [
            "http://hl7.eu/fhir/laboratory/StructureDefinition/Observation-resultslab-eu-lab"
          ]
        },
        "performer": [
          {
            "display": "The Central European Lab"
          }
        ],
        "category": [
          {
            "coding": [
              {
                "system": "http://terminology.hl7.org/CodeSystem/observation-category",
                "code": "laboratory"
              }
            ]
          }
        ],
        "code": {
          "coding": [
            {
              "code": "785-6",
              "system": "http://loinc.org",
              "display": "MCH [Entitic mass] by Automated count"
            }
          ],
          "text": "MCH [Entitic mass] by Automated count"
        },
        "valueQuantity": {
          "system": "http://unitsofmeasure.org",
          "value": 28.1,
          "unit": "pg",
          "code": "pg"
        },
        "referenceRange": [
          {
            "low": {
              "value": 27,
              "code": "pg",
              "system": "http://unitsofmeasure.org"
            }
          },
          {
            "high": {
              "value": 34,
              "code": "pg",
              "system": "http://unitsofmeasure.org"
            }
          }
        ],
        "text": {
          "status": "generated",
          "div": "<div xmlns=\"http://www.w3.org/1999/xhtml\"><table class=\"hl7__eu__lab__report\"><tr><th>Test</th><th>05-Dec-2023</th><th>Reference&#xA0;Range</th><th>Unit</th></tr><tr><td>MCH [Entitic mass] by Automated count</td><td>28.1</td><td>27 - 34</td><td></td><td>pg</td></tr></table></div>"
        },
        "status": "final",
        "subject": {
          "reference": "urn:uuid:ac67170e-1015-48f9-82f3-6d3d6fbf09b3",
          "display": "Louise Köster"
        },
        "effectiveDateTime": "2023-12-05T04:02:53Z",
        "specimen": {
          "reference": "urn:uuid:9c4aed4a-a936-4346-ab40-e418749a0088"
        }
      }
    },
    {
      "fullUrl": "urn:uuid:63641241-d6dd-4f68-8cdd-49b222d9d48b",
      "resource": {
        "resourceType": "Observation",
        "id": "63641241-d6dd-4f68-8cdd-49b222d9d48b",
        "meta": {
          "profile": [
            "http://hl7.eu/fhir/laboratory/StructureDefinition/Observation-resultslab-eu-lab"
          ]
        },
        "performer": [
          {
            "display": "The Central European Lab"
          }
        ],
        "category": [
          {
            "coding": [
              {
                "system": "http://terminology.hl7.org/CodeSystem/observation-category",
                "code": "laboratory"
              }
            ]
          }
        ],
        "code": {
          "coding": [
            {
              "code": "786-4",
              "system": "http://loinc.org",
              "display": "MCHC [Mass/volume] by Automated count"
            }
          ],
          "text": "MCHC [Mass/volume] by Automated count"
        },
        "valueQuantity": {
          "system": "http://unitsofmeasure.org",
          "value": 36,
          "unit": "g/dL",
          "code": "g/dL"
        },
        "referenceRange": [
          {
            "low": {
              "value": 31,
              "code": "g/dL",
              "system": "http://unitsofmeasure.org"
            }
          },
          {
            "high": {
              "value": 36,
              "code": "g/dL",
              "system": "http://unitsofmeasure.org"
            }
          }
        ],
        "text": {
          "status": "generated",
          "div": "<div xmlns=\"http://www.w3.org/1999/xhtml\"><table class=\"hl7__eu__lab__report\"><tr><th>Test</th><th>05-Dec-2023</th><th>Reference&#xA0;Range</th><th>Unit</th></tr><tr><td>MCHC [Mass/volume] by Automated count</td><td>36.0</td><td>31 - 36</td><td></td><td>g/dL</td></tr></table></div>"
        },
        "status": "final",
        "subject": {
          "reference": "urn:uuid:ac67170e-1015-48f9-82f3-6d3d6fbf09b3",
          "display": "Louise Köster"
        },
        "effectiveDateTime": "2023-12-05T04:02:53Z",
        "specimen": {
          "reference": "urn:uuid:9c4aed4a-a936-4346-ab40-e418749a0088"
        }
      }
    },
    {
      "fullUrl": "urn:uuid:d81a3e62-cafe-4efb-b678-f4e444ed8c5f",
      "resource": {
        "resourceType": "Observation",
        "id": "d81a3e62-cafe-4efb-b678-f4e444ed8c5f",
        "meta": {
          "profile": [
            "http://hl7.eu/fhir/laboratory/StructureDefinition/Observation-resultslab-eu-lab"
          ]
        },
        "performer": [
          {
            "display": "The Central European Lab"
          }
        ],
        "category": [
          {
            "coding": [
              {
                "system": "http://terminology.hl7.org/CodeSystem/observation-category",
                "code": "laboratory"
              }
            ]
          }
        ],
        "code": {
          "coding": [
            {
              "code": "21000-5",
              "system": "http://loinc.org",
              "display": "Erythrocyte distribution width [Entitic volume] by Automated count"
            }
          ],
          "text": "Erythrocyte distribution width [Entitic volume] by Automated count"
        },
        "valueQuantity": {
          "system": "http://unitsofmeasure.org",
          "value": 39.9,
          "unit": "fL",
          "code": "fL"
        },
        "referenceRange": [
          {
            "low": {
              "value": 36,
              "code": "fL",
              "system": "http://unitsofmeasure.org"
            }
          },
          {
            "high": {
              "value": 56,
              "code": "fL",
              "system": "http://unitsofmeasure.org"
            }
          }
        ],
        "text": {
          "status": "generated",
          "div": "<div xmlns=\"http://www.w3.org/1999/xhtml\"><table class=\"hl7__eu__lab__report\"><tr><th>Test</th><th>05-Dec-2023</th><th>Reference&#xA0;Range</th><th>Unit</th></tr><tr><td>Erythrocyte distribution width [Entitic volume] by Automated count</td><td>39.9</td><td>36 - 56</td><td></td><td>fL</td></tr></table></div>"
        },
        "status": "final",
        "subject": {
          "reference": "urn:uuid:ac67170e-1015-48f9-82f3-6d3d6fbf09b3",
          "display": "Louise Köster"
        },
        "effectiveDateTime": "2023-12-05T04:02:53Z",
        "specimen": {
          "reference": "urn:uuid:9c4aed4a-a936-4346-ab40-e418749a0088"
        }
      }
    },
    {
      "fullUrl": "urn:uuid:29b013e8-6606-4f91-90cb-d3b4d93ed20a",
      "resource": {
        "resourceType": "Observation",
        "id": "29b013e8-6606-4f91-90cb-d3b4d93ed20a",
        "meta": {
          "profile": [
            "http://hl7.eu/fhir/laboratory/StructureDefinition/Observation-resultslab-eu-lab"
          ]
        },
        "performer": [
          {
            "display": "The Central European Lab"
          }
        ],
        "category": [
          {
            "coding": [
              {
                "system": "http://terminology.hl7.org/CodeSystem/observation-category",
                "code": "laboratory"
              }
            ]
          }
        ],
        "code": {
          "coding": [
            {
              "code": "777-3",
              "system": "http://loinc.org",
              "display": "Platelets [#/volume] in Blood by Automated count"
            }
          ],
          "text": "Platelets [#/volume] in Blood by Automated count"
        },
        "valueQuantity": {
          "system": "http://unitsofmeasure.org",
          "value": 427.3,
          "unit": "10*3/uL",
          "code": "10*3/uL"
        },
        "referenceRange": [
          {
            "low": {
              "value": 150,
              "code": "10*3/uL",
              "system": "http://unitsofmeasure.org"
            }
          },
          {
            "high": {
              "value": 450,
              "code": "10*3/uL",
              "system": "http://unitsofmeasure.org"
            }
          }
        ],
        "text": {
          "status": "generated",
          "div": "<div xmlns=\"http://www.w3.org/1999/xhtml\"><table class=\"hl7__eu__lab__report\"><tr><th>Test</th><th>05-Dec-2023</th><th>Reference&#xA0;Range</th><th>Unit</th></tr><tr><td>Platelets [#/volume] in Blood by Automated count</td><td>427.3</td><td>150 - 450</td><td></td><td>10*3/uL</td></tr></table></div>"
        },
        "status": "final",
        "subject": {
          "reference": "urn:uuid:ac67170e-1015-48f9-82f3-6d3d6fbf09b3",
          "display": "Louise Köster"
        },
        "effectiveDateTime": "2023-12-05T04:02:53Z",
        "specimen": {
          "reference": "urn:uuid:9c4aed4a-a936-4346-ab40-e418749a0088"
        }
      }
    },
    {
      "fullUrl": "urn:uuid:b363d377-8162-4ba5-bef3-829b8b79e7c5",
      "resource": {
        "resourceType": "Observation",
        "id": "b363d377-8162-4ba5-bef3-829b8b79e7c5",
        "meta": {
          "profile": [
            "http://hl7.eu/fhir/laboratory/StructureDefinition/Observation-resultslab-eu-lab"
          ]
        },
        "performer": [
          {
            "display": "The Central European Lab"
          }
        ],
        "category": [
          {
            "coding": [
              {
                "system": "http://terminology.hl7.org/CodeSystem/observation-category",
                "code": "laboratory"
              }
            ]
          }
        ],
        "code": {
          "coding": [
            {
              "code": "32207-3",
              "system": "http://loinc.org",
              "display": "Platelet distribution width [Entitic volume] in Blood by Automated count"
            }
          ],
          "text": "Platelet distribution width [Entitic volume] in Blood by Automated count"
        },
        "valueQuantity": {
          "system": "http://unitsofmeasure.org",
          "value": 510,
          "unit": "fL",
          "code": "fL"
        },
        "referenceRange": [
          {
            "low": {
              "value": 11.6,
              "code": "fL",
              "system": "http://unitsofmeasure.org"
            }
          },
          {
            "high": {
              "value": 17.4,
              "code": "fL",
              "system": "http://unitsofmeasure.org"
            }
          }
        ],
        "interpretation": [
          {
            "coding": [
              {
                "code": "H",
                "system": "http://terminology.hl7.org/CodeSystem/v3-ObservationInterpretation",
                "display": "High"
              }
            ]
          }
        ],
        "text": {
          "status": "generated",
          "div": "<div xmlns=\"http://www.w3.org/1999/xhtml\"><table class=\"hl7__eu__lab__report\"><tr><th>Test</th><th>05-Dec-2023</th><th>Reference&#xA0;Range</th><th>Unit</th></tr><tr><td>Platelet distribution width [Entitic volume] in Blood by Automated count</td><td>510.0</td><td>11.6 - 17.4</td><td>H</td><td>fL</td></tr></table></div>"
        },
        "status": "final",
        "subject": {
          "reference": "urn:uuid:ac67170e-1015-48f9-82f3-6d3d6fbf09b3",
          "display": "Louise Köster"
        },
        "effectiveDateTime": "2023-12-05T04:02:53Z",
        "specimen": {
          "reference": "urn:uuid:9c4aed4a-a936-4346-ab40-e418749a0088"
        }
      }
    },
    {
      "fullUrl": "urn:uuid:a6a82a8b-27c4-43cf-94e9-71ddcafac717",
      "resource": {
        "resourceType": "Observation",
        "id": "a6a82a8b-27c4-43cf-94e9-71ddcafac717",
        "meta": {
          "profile": [
            "http://hl7.eu/fhir/laboratory/StructureDefinition/Observation-resultslab-eu-lab"
          ]
        },
        "performer": [
          {
            "display": "The Central European Lab"
          }
        ],
        "category": [
          {
            "coding": [
              {
                "system": "http://terminology.hl7.org/CodeSystem/observation-category",
                "code": "laboratory"
              }
            ]
          }
        ],
        "code": {
          "coding": [
            {
              "code": "32623-1",
              "system": "http://loinc.org",
              "display": "Platelet mean volume [Entitic volume] in Blood by Automated count"
            }
          ],
          "text": "Platelet mean volume [Entitic volume] in Blood by Automated count"
        },
        "valueQuantity": {
          "system": "http://unitsofmeasure.org",
          "value": 12.2,
          "unit": "fL",
          "code": "fL"
        },
        "referenceRange": [
          {
            "low": {
              "value": 9.4,
              "code": "fL",
              "system": "http://unitsofmeasure.org"
            }
          },
          {
            "high": {
              "value": 14,
              "code": "fL",
              "system": "http://unitsofmeasure.org"
            }
          }
        ],
        "text": {
          "status": "generated",
          "div": "<div xmlns=\"http://www.w3.org/1999/xhtml\"><table class=\"hl7__eu__lab__report\"><tr><th>Test</th><th>05-Dec-2023</th><th>Reference&#xA0;Range</th><th>Unit</th></tr><tr><td>Platelet mean volume [Entitic volume] in Blood by Automated count</td><td>12.2</td><td>9.4 - 14</td><td></td><td>fL</td></tr></table></div>"
        },
        "status": "final",
        "subject": {
          "reference": "urn:uuid:ac67170e-1015-48f9-82f3-6d3d6fbf09b3",
          "display": "Louise Köster"
        },
        "effectiveDateTime": "2023-12-05T04:02:53Z",
        "specimen": {
          "reference": "urn:uuid:9c4aed4a-a936-4346-ab40-e418749a0088"
        }
      }
    },
    {
      "fullUrl": "urn:uuid:67a1e80b-84bd-4d5a-924f-54dd8a16beac",
      "resource": {
        "resourceType": "Device",
        "id": "67a1e80b-84bd-4d5a-924f-54dd8a16beac",
        "deviceName": [
          {
            "name": "SYNDERAI Synthetic Generator",
            "type": "manufacturer-name"
          }
        ],
        "version": [
          {
            "value": "5.0"
          }
        ],
        "text": {
          "status": "generated",
          "div": "<div xmlns=\"http://www.w3.org/1999/xhtml\">SYNDERAI Synthetic Generator v5.0</div>"
        },
        "status": "active\"",
        "distinctIdentifier": "synderai-generator-50",
        "manufacturer": "SYNDERAI Project"
      }
    },
    {
      "fullUrl": "urn:uuid:d46848db-5eca-47bd-a89f-d0468e4ff454",
      "resource": {
        "resourceType": "Provenance",
        "id": "d46848db-5eca-47bd-a89f-d0468e4ff454",
        "target": [
          {
            "reference": "Patient/ac67170e-1015-48f9-82f3-6d3d6fbf09b3"
          },
          {
            "reference": "Bundle/89db7957-53a3-4769-91f5-329b8b43771c"
          },
          {
            "reference": "Composition/3d82a16d-fe87-4d0e-8df0-a7815e4a9afb"
          },
          {
            "reference": "PractitionerRole/6dfaf3f4-bed2-42d7-9904-4a4e6d37fbf4"
          },
          {
            "reference": "Practitioner/4041d92c-3c44-4b70-8909-00e7d4e7014b"
          },
          {
            "reference": "PractitionerRole/38dc873a-15af-4cf7-993c-4b680ee5af57"
          },
          {
            "reference": "Organization/5aee0a81-4d22-4c89-9e31-fcb39932855a"
          }
        ],
        "activity": {
          "text": "Synthetic Example Data Generation"
        },
        "policy": [
          "https://synderai.net/synderai-synthetic-data-policy"
        ],
        "agent": [
          {
            "type": {
              "text": "author"
            },
            "who": {
              "reference": "Device/67a1e80b-84bd-4d5a-924f-54dd8a16beac"
            }
          }
        ],
        "reason": [
          {
            "text": "Interoperability Testing and Training (non-clinical use)"
          }
        ],
        "text": {
          "status": "generated",
          "div": "<div xmlns=\"http://www.w3.org/1999/xhtml\">Provenance for SYNDERAI Synthetic Example Data Resource</div>"
        },
        "recorded": "2023-12-05T05:02:53Z"
      }
    },
    {
      "fullUrl": "urn:uuid:6dfaf3f4-bed2-42d7-9904-4a4e6d37fbf4",
      "resource": {
        "resourceType": "PractitionerRole",
        "id": "6dfaf3f4-bed2-42d7-9904-4a4e6d37fbf4",
        "meta": {
          "profile": [
            "http://hl7.eu/fhir/base/StructureDefinition/practitionerRole-eu"
          ]
        },
        "text": {
          "status": "generated",
          "div": "<div xmlns=\"http://www.w3.org/1999/xhtml\">Laboratory Role Id: 6dfaf3f4-bed2-42d7-9904-4a4e6d37fbf4</div>"
        },
        "practitioner": {
          "reference": "urn:uuid:4041d92c-3c44-4b70-8909-00e7d4e7014b"
        }
      }
    },
    {
      "fullUrl": "urn:uuid:4041d92c-3c44-4b70-8909-00e7d4e7014b",
      "resource": {
        "resourceType": "Practitioner",
        "id": "4041d92c-3c44-4b70-8909-00e7d4e7014b",
        "meta": {
          "profile": [
            "http://hl7.eu/fhir/base/StructureDefinition/practitioner-eu"
          ]
        },
        "identifier": [
          {
            "assigner": {
              "display": "HL7 Europe"
            },
            "system": "urn:oid:2.16.840.1.113883.2.51.999",
            "value": "b53d6fe8-e1c3-437a-9f29-d6559fe8538e"
          }
        ],
        "name": [
          {
            "prefix": [
              "dr"
            ],
            "given": [
              "Ex"
            ],
            "family": "Ample"
          }
        ],
        "address": [
          {
            "line": [
              "Laboratoire Central Européenne",
              "Boulevard du Jardin Botanique 32"
            ],
            "postalCode": "1000",
            "city": "Brussels",
            "country": "Belgium"
          }
        ],
        "text": {
          "status": "generated",
          "div": "<div xmlns=\"http://www.w3.org/1999/xhtml\">Laboratory: Laboratoire Central Européenne, 1000 Brussels, Belgium</div>"
        }
      }
    }
  ],
  "type": "document",
  "timestamp": "2023-12-05T05:02:53Z"
}
