{
  "resourceType": "Bundle",
  "id": "0d6d4cb7-09ff-4e88-82fd-a36a61dca7c8",
  "meta": {
    "profile": [
      "http://hl7.eu/fhir/laboratory/StructureDefinition/Bundle-eu-lab"
    ]
  },
  "identifier": {
    "assigner": {
      "display": "HL7 Europe"
    },
    "system": "urn:oid:2.16.840.1.113883.2.51.999",
    "value": "2f8dd4f7-d9dd-4074-b004-e6a5e74936fb"
  },
  "entry": [
    {
      "fullUrl": "urn:uuid:0e06957c-0204-4635-b7a2-8713a6775bd8",
      "resource": {
        "resourceType": "Composition",
        "id": "0e06957c-0204-4635-b7a2-8713a6775bd8",
        "meta": {
          "profile": [
            "http://hl7.eu/fhir/laboratory/StructureDefinition/Composition-eu-lab"
          ]
        },
        "identifier": {
          "assigner": {
            "display": "HL7 Europe"
          },
          "system": "urn:oid:2.16.840.1.113883.2.51.999",
          "value": "36b8fa44-2d3a-40d4-8801-51f5c86de8f2"
        },
        "author": [
          {
            "reference": "urn:uuid:ce231951-84b7-4058-8cf5-2ad4d517aafa"
          }
        ],
        "category": [
          {
            "coding": [
              {
                "code": "26436-6",
                "system": "http://loinc.org",
                "display": "Laboratory studies (set)"
              }
            ]
          }
        ],
        "type": {
          "coding": [
            {
              "code": "11502-2",
              "system": "http://loinc.org",
              "display": "Laboratory report"
            }
          ],
          "text": "Laboratory Report"
        },
        "section": [
          {
            "code": {
              "coding": [
                {
                  "code": "26436-6",
                  "system": "http://loinc.org",
                  "display": "Laboratory studies (set)"
                }
              ],
              "text": "Laboratory studies"
            },
            "section": [
              {
                "code": {
                  "coding": [
                    {
                      "code": "$18719-5",
                      "system": "http://loinc.org",
                      "display": "Chemistry studies (set)"
                    }
                  ],
                  "text": "Chemistry"
                },
                "entry": [
                  {
                    "reference": "urn:uuid:106cdc57-67c4-489e-9e27-0c4f031b739b"
                  },
                  {
                    "reference": "urn:uuid:40caf0b2-9301-487a-9c52-ab0b66f395f7"
                  },
                  {
                    "reference": "urn:uuid:53187119-961d-4b03-b94b-1b4fca99427a"
                  },
                  {
                    "reference": "urn:uuid:6e1ebe7f-23b0-4f89-940b-2728aa9228ce"
                  },
                  {
                    "reference": "urn:uuid:1006bbc5-3110-4e1f-a674-d8dc8afa155f"
                  },
                  {
                    "reference": "urn:uuid:61a7c934-d08b-43a7-a1d8-0235a0b9c567"
                  },
                  {
                    "reference": "urn:uuid:504fb37c-fd3f-4c6c-a663-bc09181963b6"
                  },
                  {
                    "reference": "urn:uuid:fa5786d4-ffb4-4099-9db1-62b46af86908"
                  },
                  {
                    "reference": "urn:uuid:24fb15f7-2199-4b3e-87b2-1cb2f054e9c0"
                  },
                  {
                    "reference": "urn:uuid:5dae592b-f142-4de1-a13a-2b7e9e364bb4"
                  },
                  {
                    "reference": "urn:uuid:08b46931-caf2-4f1b-b115-941bb257ff72"
                  },
                  {
                    "reference": "urn:uuid:049b2744-0df4-48e8-bcb8-4ef585263445"
                  },
                  {
                    "reference": "urn:uuid:8926d20d-c3f8-4b52-b277-7fee41cd6903"
                  },
                  {
                    "reference": "urn:uuid:2c3f2bbe-806f-49c2-9d3c-fdc372bc91de"
                  },
                  {
                    "reference": "urn:uuid:4856bb0f-d37a-4007-a75f-8c91b23a082d"
                  },
                  {
                    "reference": "urn:uuid:99a3ad62-019a-4cb8-8fdc-aa44646fe589"
                  },
                  {
                    "reference": "urn:uuid:12d57e2d-c147-4fed-8ca2-d8275244b9b0"
                  },
                  {
                    "reference": "urn:uuid:a7f8edbb-5b76-46d5-ac52-ca2e0c772238"
                  },
                  {
                    "reference": "urn:uuid:c3e7bac6-7ed9-44aa-a478-5aebbebbf1da"
                  }
                ],
                "text": {
                  "status": "generated",
                  "div": "<div xmlns=\"http://www.w3.org/1999/xhtml\"><h3>Chemistry</h3><table class=\"hl7__eu__lab__report\"><thead><tr><th>Test</th><th>11-NOV-2020</th><th>Reference&#xA0;Range</th><th>Unit</th></tr></thead><tbody><tr><td>Glucose [Mass/volume] in Blood</td><td>82.8</td><td>70 - 140</td><td>mg/dL</td></tr><tr><td>Urea nitrogen [Mass/volume] in Blood</td><td>12.1</td><td>7 - 25</td><td>mg/dL</td></tr><tr><td>Creatinine [Mass/volume] in Blood</td><td><strong>3.3 H</strong></td><td>0.6 - 1.1</td><td>mg/dL</td></tr><tr><td>Calcium [Mass/volume] in Blood</td><td>9.4</td><td>8.6 - 10.4</td><td>mg/dL</td></tr><tr><td>Sodium [Moles/volume] in Blood</td><td>142.8</td><td>135 - 145</td><td>mmol/L</td></tr><tr><td>Potassium [Moles/volume] in Blood</td><td>5.2</td><td>3.5 - 5.3</td><td>mmol/L</td></tr><tr><td>Chloride [Moles/volume] in Blood</td><td>103.1</td><td>98 - 108</td><td>mmol/L</td></tr><tr><td>Carbon dioxide, total [Moles/volume] in Blood</td><td>22.1</td><td>22 - 32</td><td>mmol/L</td></tr><tr><td>Protein [Mass/volume] in Serum or Plasma</td><td>7.4</td><td>6.6 - 8.3</td><td>g/dL</td></tr><tr><td>Albumin [Mass/volume] in Serum or Plasma</td><td>5.0</td><td>3.5 - 5.5</td><td>g/dL</td></tr><tr><td>Globulin [Mass/volume] in Serum by calculation</td><td>3.0</td><td>2.2 - 3.7</td><td>g/L</td></tr><tr><td>Bilirubin.total [Mass/volume] in Serum or Plasma</td><td>0.5</td><td>0.3 - 1.2</td><td>mg/dL</td></tr><tr><td>Alkaline phosphatase [Enzymatic activity/volume] in Serum or Plasma</td><td>116.6</td><td>40 - 130</td><td>U/L</td></tr><tr><td>Alanine aminotransferase [Enzymatic activity/volume] in Serum or Plasma</td><td>28.8</td><td>7 - 55</td><td>U/L</td></tr><tr><td>Aspartate aminotransferase [Enzymatic activity/volume] in Serum or Plasma</td><td>21.0</td><td>10 - 40</td><td>U/L</td></tr><tr><td>Cholesterol [Mass/volume] in Serum or Plasma</td><td><strong>203.0 H</strong></td><td>125 - 200</td><td>mg/dL</td></tr><tr><td>Triglyceride [Mass/volume] in Serum or Plasma</td><td>166.2</td><td>10 - 175</td><td>mg/dL</td></tr><tr><td>Cholesterol in LDL [Mass/volume] in Serum or Plasma by Direct assay</td><td><strong>146.5 H</strong></td><td>0 - 130</td><td>mg/dL</td></tr><tr><td>Cholesterol in HDL [Mass/volume] in Serum or Plasma</td><td><strong>44.9 L</strong></td><td>50 - 100</td><td>mg/dL</td></tr></tbody></table></div>"
                },
                "title": "Chemistry"
              }
            ],
            "title": "Laboratory Report"
          },
          {
            "text": {
              "status": "generated",
              "div": "<div xmlns=\"http://www.w3.org/1999/xhtml\"><h3>Annotation</h3><table class=\"hl7__eu__lab__report\"><tr><th>Conclusion and Recommendations based on this report and previous findings known to us</th></tr><tr><td>The patient shows significantly elevated creatinine, indicating impaired renal function, and dyslipidemia with high total and LDL cholesterol and low HDL cholesterol, increasing cardiovascular risk. Other parameters, including glucose, electrolytes, liver enzymes, and proteins, are within normal limits. Renal function and lipid profile require clinical attention and further evaluation.</td></tr></table></div>"
            },
            "code": {
              "coding": [
                {
                  "system": "http://loinc.org",
                  "code": "48767-8",
                  "display": "Annotation comment"
                }
              ]
            },
            "title": "Annotation comment"
          }
        ],
        "status": "final",
        "subject": {
          "reference": "urn:uuid:48a9da10-fff6-480c-a004-6c10af1b76d2",
          "display": "Ludmila Vávrová"
        },
        "date": "2020-11-11T04:51:38Z",
        "title": "Laboratory Report",
        "confidentiality": "N"
      }
    },
    {
      "fullUrl": "urn:uuid:9c1a2a93-1db3-4c11-92ad-8ad669dcf7b6",
      "resource": {
        "resourceType": "DiagnosticReport",
        "id": "9c1a2a93-1db3-4c11-92ad-8ad669dcf7b6",
        "meta": {
          "profile": [
            "http://hl7.eu/fhir/laboratory/StructureDefinition/DiagnosticReport-eu-lab"
          ]
        },
        "identifier": [
          {
            "assigner": {
              "display": "HL7 Europe"
            },
            "system": "urn:oid:2.16.840.1.113883.2.51.999",
            "value": "c9bc6dce-7599-4fb8-9ded-5a80b065c8da"
          }
        ],
        "extension": [
          {
            "url": "http://hl7.org/fhir/5.0/StructureDefinition/extension-DiagnosticReport.composition",
            "valueReference": {
              "reference": "urn:uuid:36b8fa44-2d3a-40d4-8801-51f5c86de8f2"
            }
          }
        ],
        "category": [
          {
            "coding": [
              {
                "code": "26436-6",
                "system": "http://loinc.org",
                "display": "Laboratory studies (set)"
              }
            ]
          }
        ],
        "specimen": [
          {
            "reference": "urn:uuid:03bd4f06-c9de-4d14-8d7f-26f6786690bc"
          },
          {
            "reference": "urn:uuid:a2be09b0-56b5-4668-8ba6-48c50e46580b"
          },
          {
            "reference": "urn:uuid:c7dfc87a-00b2-4fae-8b4a-52bfa66ee276"
          }
        ],
        "result": [
          {
            "reference": "urn:uuid:106cdc57-67c4-489e-9e27-0c4f031b739b"
          },
          {
            "reference": "urn:uuid:40caf0b2-9301-487a-9c52-ab0b66f395f7"
          },
          {
            "reference": "urn:uuid:53187119-961d-4b03-b94b-1b4fca99427a"
          },
          {
            "reference": "urn:uuid:6e1ebe7f-23b0-4f89-940b-2728aa9228ce"
          },
          {
            "reference": "urn:uuid:1006bbc5-3110-4e1f-a674-d8dc8afa155f"
          },
          {
            "reference": "urn:uuid:61a7c934-d08b-43a7-a1d8-0235a0b9c567"
          },
          {
            "reference": "urn:uuid:504fb37c-fd3f-4c6c-a663-bc09181963b6"
          },
          {
            "reference": "urn:uuid:fa5786d4-ffb4-4099-9db1-62b46af86908"
          },
          {
            "reference": "urn:uuid:24fb15f7-2199-4b3e-87b2-1cb2f054e9c0"
          },
          {
            "reference": "urn:uuid:5dae592b-f142-4de1-a13a-2b7e9e364bb4"
          },
          {
            "reference": "urn:uuid:08b46931-caf2-4f1b-b115-941bb257ff72"
          },
          {
            "reference": "urn:uuid:049b2744-0df4-48e8-bcb8-4ef585263445"
          },
          {
            "reference": "urn:uuid:8926d20d-c3f8-4b52-b277-7fee41cd6903"
          },
          {
            "reference": "urn:uuid:2c3f2bbe-806f-49c2-9d3c-fdc372bc91de"
          },
          {
            "reference": "urn:uuid:4856bb0f-d37a-4007-a75f-8c91b23a082d"
          },
          {
            "reference": "urn:uuid:99a3ad62-019a-4cb8-8fdc-aa44646fe589"
          },
          {
            "reference": "urn:uuid:12d57e2d-c147-4fed-8ca2-d8275244b9b0"
          },
          {
            "reference": "urn:uuid:a7f8edbb-5b76-46d5-ac52-ca2e0c772238"
          },
          {
            "reference": "urn:uuid:c3e7bac6-7ed9-44aa-a478-5aebbebbf1da"
          }
        ],
        "status": "registered",
        "code": {
          "coding": [
            {
              "code": "11502-2",
              "system": "http://loinc.org",
              "display": "Laboratory report"
            }
          ]
        },
        "subject": {
          "reference": "urn:uuid:48a9da10-fff6-480c-a004-6c10af1b76d2",
          "display": "Ludmila Vávrová"
        }
      }
    },
    {
      "fullUrl": "urn:uuid:48a9da10-fff6-480c-a004-6c10af1b76d2",
      "resource": {
        "resourceType": "Patient",
        "id": "48a9da10-fff6-480c-a004-6c10af1b76d2",
        "meta": {
          "security": [
            {
              "system": "http://terminology.hl7.org/CodeSystem/v3-ActReason",
              "code": "HTEST"
            },
            {
              "system": "http://terminology.hl7.org/CodeSystem/v3-ActReason",
              "code": "TRAIN"
            }
          ],
          "tag": [
            {
              "system": "https://synderai.net/fhir/CodeSystem/tags",
              "code": "synthetic",
              "display": "SYNDERAI Synthetic data"
            }
          ],
          "profile": [
            "http://hl7.eu/fhir/base/StructureDefinition/patient-eu-core"
          ]
        },
        "identifier": [
          {
            "type": {
              "coding": [
                {
                  "code": "PT",
                  "system": "http://terminology.hl7.org/CodeSystem/v2-0203"
                }
              ]
            },
            "system": "http://ec.europa.eu/identifier/eci",
            "value": "1992-540676-1"
          },
          {
            "type": {
              "coding": [
                {
                  "code": "MR",
                  "system": "http://terminology.hl7.org/CodeSystem/v2-0203"
                }
              ]
            },
            "system": "http://local.setting.eu/identifier",
            "value": "7c533aae-6e7f-89aa-dfdc-8ff900a5990b"
          }
        ],
        "name": [
          {
            "family": "Vávrová"
          },
          {
            "given": [
              "Ludmila"
            ]
          },
          {
            "text": "Ludmila Vávrová"
          }
        ],
        "address": [
          {
            "line": [
              "Šárovo Kolo 116"
            ],
            "use": "home",
            "type": "physical",
            "postalCode": "29471",
            "city": "Bakov nad Jizerou",
            "country": "Czechia"
          }
        ],
        "telecom": [
          {
            "system": "phone",
            "value": "00420 607 610 889"
          }
        ],
        "extension": [
          {
            "url": "http://hl7.org/fhir/StructureDefinition/patient-nationality",
            "valueCodeableConcept": {
              "coding": [
                {
                  "code": "CZ",
                  "system": "http://hl7.org/fhir/ValueSet/country"
                }
              ]
            }
          }
        ],
        "text": {
          "status": "generated",
          "div": "<div xmlns=\"http://www.w3.org/1999/xhtml\"><table class=\"hl7__ips\"><tr><td>Ludmila Vávrová</td><td>female</td><td>08-Aug-1940</td></tr></table></div>"
        },
        "gender": "female",
        "birthDate": "1940-08-08"
      }
    },
    {
      "fullUrl": "urn:uuid:c37c3027-fd1f-4338-9c5d-9bc4e947359f",
      "resource": {
        "resourceType": "ServiceRequest",
        "id": "c37c3027-fd1f-4338-9c5d-9bc4e947359f",
        "meta": {
          "profile": [
            "http://hl7.eu/fhir/laboratory/StructureDefinition/ServiceRequest-eu-lab"
          ]
        },
        "identifier": [
          {
            "system": "http://example.org",
            "value": "2268de59-f9ff-4bf0-970f-6bf6ea912b20"
          }
        ],
        "specimen": [
          {
            "reference": "urn:uuid:03bd4f06-c9de-4d14-8d7f-26f6786690bc"
          },
          {
            "reference": "urn:uuid:a2be09b0-56b5-4668-8ba6-48c50e46580b"
          },
          {
            "reference": "urn:uuid:c7dfc87a-00b2-4fae-8b4a-52bfa66ee276"
          }
        ],
        "reasonCode": [
          {
            "coding": [
              {
                "code": "414545008",
                "system": "http://snomed.info/sct",
                "display": "Ischemic heart disease"
              }
            ]
          },
          {
            "coding": [
              {
                "code": "64859006",
                "system": "http://snomed.info/sct",
                "display": "Osteoporosis"
              }
            ]
          },
          {
            "coding": [
              {
                "code": "6525002",
                "system": "http://snomed.info/sct",
                "display": "Dependent drug abuse"
              }
            ]
          },
          {
            "coding": [
              {
                "code": "55822004",
                "system": "http://snomed.info/sct",
                "display": "Hyperlipidemia"
              }
            ]
          },
          {
            "coding": [
              {
                "code": "124171000119105",
                "system": "http://snomed.info/sct",
                "display": "Chronic intractable migraine without aura"
              }
            ]
          },
          {
            "coding": [
              {
                "code": "196416002",
                "system": "http://snomed.info/sct",
                "display": "Impacted molars"
              }
            ]
          },
          {
            "coding": [
              {
                "code": "239872002",
                "system": "http://snomed.info/sct",
                "display": "Osteoarthritis of hip"
              }
            ]
          },
          {
            "coding": [
              {
                "code": "40055000",
                "system": "http://snomed.info/sct",
                "display": "Chronic sinusitis"
              }
            ]
          }
        ],
        "status": "active",
        "intent": "order",
        "code": {
          "coding": [
            {
              "code": "108252007",
              "system": "http://snomed.info/sct",
              "display": "Laboratory procedure"
            }
          ]
        },
        "subject": {
          "reference": "urn:uuid:48a9da10-fff6-480c-a004-6c10af1b76d2",
          "display": "Ludmila Vávrová"
        },
        "requester": {
          "reference": "urn:uuid:4b224c2d-c545-476c-a591-5fd5a601befe"
        }
      }
    },
    {
      "fullUrl": "urn:uuid:4b224c2d-c545-476c-a591-5fd5a601befe",
      "resource": {
        "resourceType": "PractitionerRole",
        "id": "4b224c2d-c545-476c-a591-5fd5a601befe",
        "meta": {
          "profile": [
            "http://hl7.eu/fhir/base/StructureDefinition/practitionerRole-eu"
          ]
        },
        "text": {
          "status": "generated",
          "div": "<div xmlns=\"http://www.w3.org/1999/xhtml\">Provider Role Id: 4b224c2d-c545-476c-a591-5fd5a601befe</div>"
        },
        "organization": {
          "reference": "urn:uuid:c106ff90-8ebb-45ec-807c-bd877010dfcc"
        }
      }
    },
    {
      "fullUrl": "urn:uuid:c106ff90-8ebb-45ec-807c-bd877010dfcc",
      "resource": {
        "resourceType": "Organization",
        "id": "c106ff90-8ebb-45ec-807c-bd877010dfcc",
        "meta": {
          "profile": [
            "http://hl7.eu/fhir/base/StructureDefinition/organization-eu"
          ]
        },
        "identifier": [
          {
            "assigner": {
              "display": "HL7 Europe"
            },
            "system": "urn:oid:2.16.840.1.113883.2.51.999",
            "value": "a133192d-a673-4f8b-849a-6833e14abac4"
          }
        ],
        "address": [
          {
            "city": "Kosmonosy",
            "postalCode": "293 06",
            "country": "Czechia"
          }
        ],
        "text": {
          "status": "generated",
          "div": "<div xmlns=\"http://www.w3.org/1999/xhtml\">Provider Organization: Psychiatrická nemocnice Kosmonosy</div>"
        },
        "name": "Psychiatrická nemocnice Kosmonosy"
      }
    },
    {
      "fullUrl": "urn:uuid:03bd4f06-c9de-4d14-8d7f-26f6786690bc",
      "resource": {
        "resourceType": "Specimen",
        "id": "03bd4f06-c9de-4d14-8d7f-26f6786690bc",
        "meta": {
          "profile": [
            "http://hl7.eu/fhir/laboratory/StructureDefinition/Specimen-eu-lab"
          ]
        },
        "collection": {
          "collectedDateTime": "2020-11-11"
        },
        "text": {
          "status": "generated",
          "div": "<div xmlns=\"http://www.w3.org/1999/xhtml\"><table class=\"hl7__eu__lab__report\"><tr><th>Specimen</th><th>Collection Date</th></tr><tr><td>Whole blood specimen (specimen)</td><td><span class=\"nb\">11-Nov-2020</span></td></tr></table></div>"
        },
        "type": {
          "coding": [
            {
              "code": "258580003",
              "system": "http://snomed.info/sct",
              "display": "Whole blood specimen (specimen)"
            }
          ]
        }
      }
    },
    {
      "fullUrl": "urn:uuid:a2be09b0-56b5-4668-8ba6-48c50e46580b",
      "resource": {
        "resourceType": "Specimen",
        "id": "a2be09b0-56b5-4668-8ba6-48c50e46580b",
        "meta": {
          "profile": [
            "http://hl7.eu/fhir/laboratory/StructureDefinition/Specimen-eu-lab"
          ]
        },
        "collection": {
          "collectedDateTime": "2020-11-11"
        },
        "text": {
          "status": "generated",
          "div": "<div xmlns=\"http://www.w3.org/1999/xhtml\"><table class=\"hl7__eu__lab__report\"><tr><th>Specimen</th><th>Collection Date</th></tr><tr><td>Acellular blood (serum or plasma) specimen</td><td><span class=\"nb\">11-Nov-2020</span></td></tr></table></div>"
        },
        "type": {
          "coding": [
            {
              "code": "122592007",
              "system": "http://snomed.info/sct",
              "display": "Acellular blood (serum or plasma) specimen"
            }
          ]
        }
      }
    },
    {
      "fullUrl": "urn:uuid:c7dfc87a-00b2-4fae-8b4a-52bfa66ee276",
      "resource": {
        "resourceType": "Specimen",
        "id": "c7dfc87a-00b2-4fae-8b4a-52bfa66ee276",
        "meta": {
          "profile": [
            "http://hl7.eu/fhir/laboratory/StructureDefinition/Specimen-eu-lab"
          ]
        },
        "collection": {
          "collectedDateTime": "2020-11-11"
        },
        "text": {
          "status": "generated",
          "div": "<div xmlns=\"http://www.w3.org/1999/xhtml\"><table class=\"hl7__eu__lab__report\"><tr><th>Specimen</th><th>Collection Date</th></tr><tr><td>Serum specimen</td><td><span class=\"nb\">11-Nov-2020</span></td></tr></table></div>"
        },
        "type": {
          "coding": [
            {
              "code": "119364003",
              "system": "http://snomed.info/sct",
              "display": "Serum specimen"
            }
          ]
        }
      }
    },
    {
      "fullUrl": "urn:uuid:106cdc57-67c4-489e-9e27-0c4f031b739b",
      "resource": {
        "resourceType": "Observation",
        "id": "106cdc57-67c4-489e-9e27-0c4f031b739b",
        "meta": {
          "profile": [
            "http://hl7.eu/fhir/laboratory/StructureDefinition/Observation-resultslab-eu-lab"
          ]
        },
        "performer": [
          {
            "display": "The Central European Lab"
          }
        ],
        "category": [
          {
            "coding": [
              {
                "system": "http://terminology.hl7.org/CodeSystem/observation-category",
                "code": "laboratory"
              }
            ]
          }
        ],
        "code": {
          "coding": [
            {
              "code": "2339-0",
              "system": "http://loinc.org",
              "display": "Glucose [Mass/volume] in Blood"
            }
          ],
          "text": "Glucose [Mass/volume] in Blood"
        },
        "valueQuantity": {
          "system": "http://unitsofmeasure.org",
          "value": 82.8,
          "unit": "mg/dL",
          "code": "mg/dL"
        },
        "referenceRange": [
          {
            "low": {
              "value": 70,
              "code": "mg/dL",
              "system": "http://unitsofmeasure.org"
            }
          },
          {
            "high": {
              "value": 140,
              "code": "mg/dL",
              "system": "http://unitsofmeasure.org"
            }
          }
        ],
        "text": {
          "status": "generated",
          "div": "<div xmlns=\"http://www.w3.org/1999/xhtml\"><table class=\"hl7__eu__lab__report\"><tr><th>Test</th><th>11-Nov-2020</th><th>Reference&#xA0;Range</th><th>Unit</th></tr><tr><td>Glucose [Mass/volume] in Blood</td><td>82.8</td><td>70 - 140</td><td></td><td>mg/dL</td></tr></table></div>"
        },
        "status": "final",
        "subject": {
          "reference": "urn:uuid:48a9da10-fff6-480c-a004-6c10af1b76d2",
          "display": "Ludmila Vávrová"
        },
        "effectiveDateTime": "2020-11-11T03:51:38Z",
        "specimen": {
          "reference": "urn:uuid:03bd4f06-c9de-4d14-8d7f-26f6786690bc"
        }
      }
    },
    {
      "fullUrl": "urn:uuid:40caf0b2-9301-487a-9c52-ab0b66f395f7",
      "resource": {
        "resourceType": "Observation",
        "id": "40caf0b2-9301-487a-9c52-ab0b66f395f7",
        "meta": {
          "profile": [
            "http://hl7.eu/fhir/laboratory/StructureDefinition/Observation-resultslab-eu-lab"
          ]
        },
        "performer": [
          {
            "display": "The Central European Lab"
          }
        ],
        "category": [
          {
            "coding": [
              {
                "system": "http://terminology.hl7.org/CodeSystem/observation-category",
                "code": "laboratory"
              }
            ]
          }
        ],
        "code": {
          "coding": [
            {
              "code": "6299-2",
              "system": "http://loinc.org",
              "display": "Urea nitrogen [Mass/volume] in Blood"
            }
          ],
          "text": "Urea nitrogen [Mass/volume] in Blood"
        },
        "valueQuantity": {
          "system": "http://unitsofmeasure.org",
          "value": 12.1,
          "unit": "mg/dL",
          "code": "mg/dL"
        },
        "referenceRange": [
          {
            "low": {
              "value": 7,
              "code": "mg/dL",
              "system": "http://unitsofmeasure.org"
            }
          },
          {
            "high": {
              "value": 25,
              "code": "mg/dL",
              "system": "http://unitsofmeasure.org"
            }
          }
        ],
        "text": {
          "status": "generated",
          "div": "<div xmlns=\"http://www.w3.org/1999/xhtml\"><table class=\"hl7__eu__lab__report\"><tr><th>Test</th><th>11-Nov-2020</th><th>Reference&#xA0;Range</th><th>Unit</th></tr><tr><td>Urea nitrogen [Mass/volume] in Blood</td><td>12.1</td><td>7 - 25</td><td></td><td>mg/dL</td></tr></table></div>"
        },
        "status": "final",
        "subject": {
          "reference": "urn:uuid:48a9da10-fff6-480c-a004-6c10af1b76d2",
          "display": "Ludmila Vávrová"
        },
        "effectiveDateTime": "2020-11-11T03:51:38Z",
        "specimen": {
          "reference": "urn:uuid:03bd4f06-c9de-4d14-8d7f-26f6786690bc"
        }
      }
    },
    {
      "fullUrl": "urn:uuid:53187119-961d-4b03-b94b-1b4fca99427a",
      "resource": {
        "resourceType": "Observation",
        "id": "53187119-961d-4b03-b94b-1b4fca99427a",
        "meta": {
          "profile": [
            "http://hl7.eu/fhir/laboratory/StructureDefinition/Observation-resultslab-eu-lab"
          ]
        },
        "performer": [
          {
            "display": "The Central European Lab"
          }
        ],
        "category": [
          {
            "coding": [
              {
                "system": "http://terminology.hl7.org/CodeSystem/observation-category",
                "code": "laboratory"
              }
            ]
          }
        ],
        "code": {
          "coding": [
            {
              "code": "38483-4",
              "system": "http://loinc.org",
              "display": "Creatinine [Mass/volume] in Blood"
            }
          ],
          "text": "Creatinine [Mass/volume] in Blood"
        },
        "valueQuantity": {
          "system": "http://unitsofmeasure.org",
          "value": 3.3,
          "unit": "mg/dL",
          "code": "mg/dL"
        },
        "referenceRange": [
          {
            "low": {
              "value": 0.6,
              "code": "mg/dL",
              "system": "http://unitsofmeasure.org"
            }
          },
          {
            "high": {
              "value": 1.1,
              "code": "mg/dL",
              "system": "http://unitsofmeasure.org"
            }
          }
        ],
        "interpretation": [
          {
            "coding": [
              {
                "code": "H",
                "system": "http://terminology.hl7.org/CodeSystem/v3-ObservationInterpretation",
                "display": "High"
              }
            ]
          }
        ],
        "text": {
          "status": "generated",
          "div": "<div xmlns=\"http://www.w3.org/1999/xhtml\"><table class=\"hl7__eu__lab__report\"><tr><th>Test</th><th>11-Nov-2020</th><th>Reference&#xA0;Range</th><th>Unit</th></tr><tr><td>Creatinine [Mass/volume] in Blood</td><td>3.3</td><td>0.6 - 1.1</td><td>H</td><td>mg/dL</td></tr></table></div>"
        },
        "status": "final",
        "subject": {
          "reference": "urn:uuid:48a9da10-fff6-480c-a004-6c10af1b76d2",
          "display": "Ludmila Vávrová"
        },
        "effectiveDateTime": "2020-11-11T03:51:38Z",
        "specimen": {
          "reference": "urn:uuid:03bd4f06-c9de-4d14-8d7f-26f6786690bc"
        }
      }
    },
    {
      "fullUrl": "urn:uuid:6e1ebe7f-23b0-4f89-940b-2728aa9228ce",
      "resource": {
        "resourceType": "Observation",
        "id": "6e1ebe7f-23b0-4f89-940b-2728aa9228ce",
        "meta": {
          "profile": [
            "http://hl7.eu/fhir/laboratory/StructureDefinition/Observation-resultslab-eu-lab"
          ]
        },
        "performer": [
          {
            "display": "The Central European Lab"
          }
        ],
        "category": [
          {
            "coding": [
              {
                "system": "http://terminology.hl7.org/CodeSystem/observation-category",
                "code": "laboratory"
              }
            ]
          }
        ],
        "code": {
          "coding": [
            {
              "code": "49765-1",
              "system": "http://loinc.org",
              "display": "Calcium [Mass/volume] in Blood"
            }
          ],
          "text": "Calcium [Mass/volume] in Blood"
        },
        "valueQuantity": {
          "system": "http://unitsofmeasure.org",
          "value": 9.4,
          "unit": "mg/dL",
          "code": "mg/dL"
        },
        "referenceRange": [
          {
            "low": {
              "value": 8.6,
              "code": "mg/dL",
              "system": "http://unitsofmeasure.org"
            }
          },
          {
            "high": {
              "value": 10.4,
              "code": "mg/dL",
              "system": "http://unitsofmeasure.org"
            }
          }
        ],
        "text": {
          "status": "generated",
          "div": "<div xmlns=\"http://www.w3.org/1999/xhtml\"><table class=\"hl7__eu__lab__report\"><tr><th>Test</th><th>11-Nov-2020</th><th>Reference&#xA0;Range</th><th>Unit</th></tr><tr><td>Calcium [Mass/volume] in Blood</td><td>9.4</td><td>8.6 - 10.4</td><td></td><td>mg/dL</td></tr></table></div>"
        },
        "status": "final",
        "subject": {
          "reference": "urn:uuid:48a9da10-fff6-480c-a004-6c10af1b76d2",
          "display": "Ludmila Vávrová"
        },
        "effectiveDateTime": "2020-11-11T03:51:38Z",
        "specimen": {
          "reference": "urn:uuid:03bd4f06-c9de-4d14-8d7f-26f6786690bc"
        }
      }
    },
    {
      "fullUrl": "urn:uuid:1006bbc5-3110-4e1f-a674-d8dc8afa155f",
      "resource": {
        "resourceType": "Observation",
        "id": "1006bbc5-3110-4e1f-a674-d8dc8afa155f",
        "meta": {
          "profile": [
            "http://hl7.eu/fhir/laboratory/StructureDefinition/Observation-resultslab-eu-lab"
          ]
        },
        "performer": [
          {
            "display": "The Central European Lab"
          }
        ],
        "category": [
          {
            "coding": [
              {
                "system": "http://terminology.hl7.org/CodeSystem/observation-category",
                "code": "laboratory"
              }
            ]
          }
        ],
        "code": {
          "coding": [
            {
              "code": "2947-0",
              "system": "http://loinc.org",
              "display": "Sodium [Moles/volume] in Blood"
            }
          ],
          "text": "Sodium [Moles/volume] in Blood"
        },
        "valueQuantity": {
          "system": "http://unitsofmeasure.org",
          "value": 142.8,
          "unit": "mmol/L",
          "code": "mmol/L"
        },
        "referenceRange": [
          {
            "low": {
              "value": 135,
              "code": "mmol/L",
              "system": "http://unitsofmeasure.org"
            }
          },
          {
            "high": {
              "value": 145,
              "code": "mmol/L",
              "system": "http://unitsofmeasure.org"
            }
          }
        ],
        "text": {
          "status": "generated",
          "div": "<div xmlns=\"http://www.w3.org/1999/xhtml\"><table class=\"hl7__eu__lab__report\"><tr><th>Test</th><th>11-Nov-2020</th><th>Reference&#xA0;Range</th><th>Unit</th></tr><tr><td>Sodium [Moles/volume] in Blood</td><td>142.8</td><td>135 - 145</td><td></td><td>mmol/L</td></tr></table></div>"
        },
        "status": "final",
        "subject": {
          "reference": "urn:uuid:48a9da10-fff6-480c-a004-6c10af1b76d2",
          "display": "Ludmila Vávrová"
        },
        "effectiveDateTime": "2020-11-11T03:51:38Z",
        "specimen": {
          "reference": "urn:uuid:03bd4f06-c9de-4d14-8d7f-26f6786690bc"
        }
      }
    },
    {
      "fullUrl": "urn:uuid:61a7c934-d08b-43a7-a1d8-0235a0b9c567",
      "resource": {
        "resourceType": "Observation",
        "id": "61a7c934-d08b-43a7-a1d8-0235a0b9c567",
        "meta": {
          "profile": [
            "http://hl7.eu/fhir/laboratory/StructureDefinition/Observation-resultslab-eu-lab"
          ]
        },
        "performer": [
          {
            "display": "The Central European Lab"
          }
        ],
        "category": [
          {
            "coding": [
              {
                "system": "http://terminology.hl7.org/CodeSystem/observation-category",
                "code": "laboratory"
              }
            ]
          }
        ],
        "code": {
          "coding": [
            {
              "code": "6298-4",
              "system": "http://loinc.org",
              "display": "Potassium [Moles/volume] in Blood"
            }
          ],
          "text": "Potassium [Moles/volume] in Blood"
        },
        "valueQuantity": {
          "system": "http://unitsofmeasure.org",
          "value": 5.2,
          "unit": "mmol/L",
          "code": "mmol/L"
        },
        "referenceRange": [
          {
            "low": {
              "value": 3.5,
              "code": "mmol/L",
              "system": "http://unitsofmeasure.org"
            }
          },
          {
            "high": {
              "value": 5.3,
              "code": "mmol/L",
              "system": "http://unitsofmeasure.org"
            }
          }
        ],
        "text": {
          "status": "generated",
          "div": "<div xmlns=\"http://www.w3.org/1999/xhtml\"><table class=\"hl7__eu__lab__report\"><tr><th>Test</th><th>11-Nov-2020</th><th>Reference&#xA0;Range</th><th>Unit</th></tr><tr><td>Potassium [Moles/volume] in Blood</td><td>5.2</td><td>3.5 - 5.3</td><td></td><td>mmol/L</td></tr></table></div>"
        },
        "status": "final",
        "subject": {
          "reference": "urn:uuid:48a9da10-fff6-480c-a004-6c10af1b76d2",
          "display": "Ludmila Vávrová"
        },
        "effectiveDateTime": "2020-11-11T03:51:38Z",
        "specimen": {
          "reference": "urn:uuid:03bd4f06-c9de-4d14-8d7f-26f6786690bc"
        }
      }
    },
    {
      "fullUrl": "urn:uuid:504fb37c-fd3f-4c6c-a663-bc09181963b6",
      "resource": {
        "resourceType": "Observation",
        "id": "504fb37c-fd3f-4c6c-a663-bc09181963b6",
        "meta": {
          "profile": [
            "http://hl7.eu/fhir/laboratory/StructureDefinition/Observation-resultslab-eu-lab"
          ]
        },
        "performer": [
          {
            "display": "The Central European Lab"
          }
        ],
        "category": [
          {
            "coding": [
              {
                "system": "http://terminology.hl7.org/CodeSystem/observation-category",
                "code": "laboratory"
              }
            ]
          }
        ],
        "code": {
          "coding": [
            {
              "code": "2069-3",
              "system": "http://loinc.org",
              "display": "Chloride [Moles/volume] in Blood"
            }
          ],
          "text": "Chloride [Moles/volume] in Blood"
        },
        "valueQuantity": {
          "system": "http://unitsofmeasure.org",
          "value": 103.1,
          "unit": "mmol/L",
          "code": "mmol/L"
        },
        "referenceRange": [
          {
            "low": {
              "value": 98,
              "code": "mmol/L",
              "system": "http://unitsofmeasure.org"
            }
          },
          {
            "high": {
              "value": 108,
              "code": "mmol/L",
              "system": "http://unitsofmeasure.org"
            }
          }
        ],
        "text": {
          "status": "generated",
          "div": "<div xmlns=\"http://www.w3.org/1999/xhtml\"><table class=\"hl7__eu__lab__report\"><tr><th>Test</th><th>11-Nov-2020</th><th>Reference&#xA0;Range</th><th>Unit</th></tr><tr><td>Chloride [Moles/volume] in Blood</td><td>103.1</td><td>98 - 108</td><td></td><td>mmol/L</td></tr></table></div>"
        },
        "status": "final",
        "subject": {
          "reference": "urn:uuid:48a9da10-fff6-480c-a004-6c10af1b76d2",
          "display": "Ludmila Vávrová"
        },
        "effectiveDateTime": "2020-11-11T03:51:38Z",
        "specimen": {
          "reference": "urn:uuid:03bd4f06-c9de-4d14-8d7f-26f6786690bc"
        }
      }
    },
    {
      "fullUrl": "urn:uuid:fa5786d4-ffb4-4099-9db1-62b46af86908",
      "resource": {
        "resourceType": "Observation",
        "id": "fa5786d4-ffb4-4099-9db1-62b46af86908",
        "meta": {
          "profile": [
            "http://hl7.eu/fhir/laboratory/StructureDefinition/Observation-resultslab-eu-lab"
          ]
        },
        "performer": [
          {
            "display": "The Central European Lab"
          }
        ],
        "category": [
          {
            "coding": [
              {
                "system": "http://terminology.hl7.org/CodeSystem/observation-category",
                "code": "laboratory"
              }
            ]
          }
        ],
        "code": {
          "coding": [
            {
              "code": "20565-8",
              "system": "http://loinc.org",
              "display": "Carbon dioxide, total [Moles/volume] in Blood"
            }
          ],
          "text": "Carbon dioxide, total [Moles/volume] in Blood"
        },
        "valueQuantity": {
          "system": "http://unitsofmeasure.org",
          "value": 22.1,
          "unit": "mmol/L",
          "code": "mmol/L"
        },
        "referenceRange": [
          {
            "low": {
              "value": 22,
              "code": "mmol/L",
              "system": "http://unitsofmeasure.org"
            }
          },
          {
            "high": {
              "value": 32,
              "code": "mmol/L",
              "system": "http://unitsofmeasure.org"
            }
          }
        ],
        "text": {
          "status": "generated",
          "div": "<div xmlns=\"http://www.w3.org/1999/xhtml\"><table class=\"hl7__eu__lab__report\"><tr><th>Test</th><th>11-Nov-2020</th><th>Reference&#xA0;Range</th><th>Unit</th></tr><tr><td>Carbon dioxide, total [Moles/volume] in Blood</td><td>22.1</td><td>22 - 32</td><td></td><td>mmol/L</td></tr></table></div>"
        },
        "status": "final",
        "subject": {
          "reference": "urn:uuid:48a9da10-fff6-480c-a004-6c10af1b76d2",
          "display": "Ludmila Vávrová"
        },
        "effectiveDateTime": "2020-11-11T03:51:38Z",
        "specimen": {
          "reference": "urn:uuid:03bd4f06-c9de-4d14-8d7f-26f6786690bc"
        }
      }
    },
    {
      "fullUrl": "urn:uuid:24fb15f7-2199-4b3e-87b2-1cb2f054e9c0",
      "resource": {
        "resourceType": "Observation",
        "id": "24fb15f7-2199-4b3e-87b2-1cb2f054e9c0",
        "meta": {
          "profile": [
            "http://hl7.eu/fhir/laboratory/StructureDefinition/Observation-resultslab-eu-lab"
          ]
        },
        "performer": [
          {
            "display": "The Central European Lab"
          }
        ],
        "category": [
          {
            "coding": [
              {
                "system": "http://terminology.hl7.org/CodeSystem/observation-category",
                "code": "laboratory"
              }
            ]
          }
        ],
        "code": {
          "coding": [
            {
              "code": "2885-2",
              "system": "http://loinc.org",
              "display": "Protein [Mass/volume] in Serum or Plasma"
            }
          ],
          "text": "Protein [Mass/volume] in Serum or Plasma"
        },
        "valueQuantity": {
          "system": "http://unitsofmeasure.org",
          "value": 7.4,
          "unit": "g/dL",
          "code": "g/dL"
        },
        "referenceRange": [
          {
            "low": {
              "value": 6.6,
              "code": "g/dL",
              "system": "http://unitsofmeasure.org"
            }
          },
          {
            "high": {
              "value": 8.3,
              "code": "g/dL",
              "system": "http://unitsofmeasure.org"
            }
          }
        ],
        "text": {
          "status": "generated",
          "div": "<div xmlns=\"http://www.w3.org/1999/xhtml\"><table class=\"hl7__eu__lab__report\"><tr><th>Test</th><th>11-Nov-2020</th><th>Reference&#xA0;Range</th><th>Unit</th></tr><tr><td>Protein [Mass/volume] in Serum or Plasma</td><td>7.4</td><td>6.6 - 8.3</td><td></td><td>g/dL</td></tr></table></div>"
        },
        "status": "final",
        "subject": {
          "reference": "urn:uuid:48a9da10-fff6-480c-a004-6c10af1b76d2",
          "display": "Ludmila Vávrová"
        },
        "effectiveDateTime": "2020-11-11T03:51:38Z",
        "specimen": {
          "reference": "urn:uuid:a2be09b0-56b5-4668-8ba6-48c50e46580b"
        }
      }
    },
    {
      "fullUrl": "urn:uuid:5dae592b-f142-4de1-a13a-2b7e9e364bb4",
      "resource": {
        "resourceType": "Observation",
        "id": "5dae592b-f142-4de1-a13a-2b7e9e364bb4",
        "meta": {
          "profile": [
            "http://hl7.eu/fhir/laboratory/StructureDefinition/Observation-resultslab-eu-lab"
          ]
        },
        "performer": [
          {
            "display": "The Central European Lab"
          }
        ],
        "category": [
          {
            "coding": [
              {
                "system": "http://terminology.hl7.org/CodeSystem/observation-category",
                "code": "laboratory"
              }
            ]
          }
        ],
        "code": {
          "coding": [
            {
              "code": "1751-7",
              "system": "http://loinc.org",
              "display": "Albumin [Mass/volume] in Serum or Plasma"
            }
          ],
          "text": "Albumin [Mass/volume] in Serum or Plasma"
        },
        "valueQuantity": {
          "system": "http://unitsofmeasure.org",
          "value": 5,
          "unit": "g/dL",
          "code": "g/dL"
        },
        "referenceRange": [
          {
            "low": {
              "value": 3.5,
              "code": "g/dL",
              "system": "http://unitsofmeasure.org"
            }
          },
          {
            "high": {
              "value": 5.5,
              "code": "g/dL",
              "system": "http://unitsofmeasure.org"
            }
          }
        ],
        "text": {
          "status": "generated",
          "div": "<div xmlns=\"http://www.w3.org/1999/xhtml\"><table class=\"hl7__eu__lab__report\"><tr><th>Test</th><th>11-Nov-2020</th><th>Reference&#xA0;Range</th><th>Unit</th></tr><tr><td>Albumin [Mass/volume] in Serum or Plasma</td><td>5.0</td><td>3.5 - 5.5</td><td></td><td>g/dL</td></tr></table></div>"
        },
        "status": "final",
        "subject": {
          "reference": "urn:uuid:48a9da10-fff6-480c-a004-6c10af1b76d2",
          "display": "Ludmila Vávrová"
        },
        "effectiveDateTime": "2020-11-11T03:51:38Z",
        "specimen": {
          "reference": "urn:uuid:a2be09b0-56b5-4668-8ba6-48c50e46580b"
        }
      }
    },
    {
      "fullUrl": "urn:uuid:08b46931-caf2-4f1b-b115-941bb257ff72",
      "resource": {
        "resourceType": "Observation",
        "id": "08b46931-caf2-4f1b-b115-941bb257ff72",
        "meta": {
          "profile": [
            "http://hl7.eu/fhir/laboratory/StructureDefinition/Observation-resultslab-eu-lab"
          ]
        },
        "performer": [
          {
            "display": "The Central European Lab"
          }
        ],
        "category": [
          {
            "coding": [
              {
                "system": "http://terminology.hl7.org/CodeSystem/observation-category",
                "code": "laboratory"
              }
            ]
          }
        ],
        "code": {
          "coding": [
            {
              "code": "10834-0",
              "system": "http://loinc.org",
              "display": "Globulin [Mass/volume] in Serum by calculation"
            }
          ],
          "text": "Globulin [Mass/volume] in Serum by calculation"
        },
        "valueQuantity": {
          "system": "http://unitsofmeasure.org",
          "value": 3,
          "unit": "g/L",
          "code": "g/L"
        },
        "referenceRange": [
          {
            "low": {
              "value": 2.2,
              "code": "g/L",
              "system": "http://unitsofmeasure.org"
            }
          },
          {
            "high": {
              "value": 3.7,
              "code": "g/L",
              "system": "http://unitsofmeasure.org"
            }
          }
        ],
        "text": {
          "status": "generated",
          "div": "<div xmlns=\"http://www.w3.org/1999/xhtml\"><table class=\"hl7__eu__lab__report\"><tr><th>Test</th><th>11-Nov-2020</th><th>Reference&#xA0;Range</th><th>Unit</th></tr><tr><td>Globulin [Mass/volume] in Serum by calculation</td><td>3.0</td><td>2.2 - 3.7</td><td></td><td>g/L</td></tr></table></div>"
        },
        "status": "final",
        "subject": {
          "reference": "urn:uuid:48a9da10-fff6-480c-a004-6c10af1b76d2",
          "display": "Ludmila Vávrová"
        },
        "effectiveDateTime": "2020-11-11T03:51:38Z",
        "specimen": {
          "reference": "urn:uuid:c7dfc87a-00b2-4fae-8b4a-52bfa66ee276"
        }
      }
    },
    {
      "fullUrl": "urn:uuid:049b2744-0df4-48e8-bcb8-4ef585263445",
      "resource": {
        "resourceType": "Observation",
        "id": "049b2744-0df4-48e8-bcb8-4ef585263445",
        "meta": {
          "profile": [
            "http://hl7.eu/fhir/laboratory/StructureDefinition/Observation-resultslab-eu-lab"
          ]
        },
        "performer": [
          {
            "display": "The Central European Lab"
          }
        ],
        "category": [
          {
            "coding": [
              {
                "system": "http://terminology.hl7.org/CodeSystem/observation-category",
                "code": "laboratory"
              }
            ]
          }
        ],
        "code": {
          "coding": [
            {
              "code": "1975-2",
              "system": "http://loinc.org",
              "display": "Bilirubin.total [Mass/volume] in Serum or Plasma"
            }
          ],
          "text": "Bilirubin.total [Mass/volume] in Serum or Plasma"
        },
        "valueQuantity": {
          "system": "http://unitsofmeasure.org",
          "value": 0.5,
          "unit": "mg/dL",
          "code": "mg/dL"
        },
        "referenceRange": [
          {
            "low": {
              "value": 0.3,
              "code": "mg/dL",
              "system": "http://unitsofmeasure.org"
            }
          },
          {
            "high": {
              "value": 1.2,
              "code": "mg/dL",
              "system": "http://unitsofmeasure.org"
            }
          }
        ],
        "text": {
          "status": "generated",
          "div": "<div xmlns=\"http://www.w3.org/1999/xhtml\"><table class=\"hl7__eu__lab__report\"><tr><th>Test</th><th>11-Nov-2020</th><th>Reference&#xA0;Range</th><th>Unit</th></tr><tr><td>Bilirubin.total [Mass/volume] in Serum or Plasma</td><td>0.5</td><td>0.3 - 1.2</td><td></td><td>mg/dL</td></tr></table></div>"
        },
        "status": "final",
        "subject": {
          "reference": "urn:uuid:48a9da10-fff6-480c-a004-6c10af1b76d2",
          "display": "Ludmila Vávrová"
        },
        "effectiveDateTime": "2020-11-11T03:51:38Z",
        "specimen": {
          "reference": "urn:uuid:a2be09b0-56b5-4668-8ba6-48c50e46580b"
        }
      }
    },
    {
      "fullUrl": "urn:uuid:8926d20d-c3f8-4b52-b277-7fee41cd6903",
      "resource": {
        "resourceType": "Observation",
        "id": "8926d20d-c3f8-4b52-b277-7fee41cd6903",
        "meta": {
          "profile": [
            "http://hl7.eu/fhir/laboratory/StructureDefinition/Observation-resultslab-eu-lab"
          ]
        },
        "performer": [
          {
            "display": "The Central European Lab"
          }
        ],
        "category": [
          {
            "coding": [
              {
                "system": "http://terminology.hl7.org/CodeSystem/observation-category",
                "code": "laboratory"
              }
            ]
          }
        ],
        "code": {
          "coding": [
            {
              "code": "6768-6",
              "system": "http://loinc.org",
              "display": "Alkaline phosphatase [Enzymatic activity/volume] in Serum or Plasma"
            }
          ],
          "text": "Alkaline phosphatase [Enzymatic activity/volume] in Serum or Plasma"
        },
        "valueQuantity": {
          "system": "http://unitsofmeasure.org",
          "value": 116.6,
          "unit": "U/L",
          "code": "U/L"
        },
        "referenceRange": [
          {
            "low": {
              "value": 40,
              "code": "U/L",
              "system": "http://unitsofmeasure.org"
            }
          },
          {
            "high": {
              "value": 130,
              "code": "U/L",
              "system": "http://unitsofmeasure.org"
            }
          }
        ],
        "text": {
          "status": "generated",
          "div": "<div xmlns=\"http://www.w3.org/1999/xhtml\"><table class=\"hl7__eu__lab__report\"><tr><th>Test</th><th>11-Nov-2020</th><th>Reference&#xA0;Range</th><th>Unit</th></tr><tr><td>Alkaline phosphatase [Enzymatic activity/volume] in Serum or Plasma</td><td>116.6</td><td>40 - 130</td><td></td><td>U/L</td></tr></table></div>"
        },
        "status": "final",
        "subject": {
          "reference": "urn:uuid:48a9da10-fff6-480c-a004-6c10af1b76d2",
          "display": "Ludmila Vávrová"
        },
        "effectiveDateTime": "2020-11-11T03:51:38Z",
        "specimen": {
          "reference": "urn:uuid:a2be09b0-56b5-4668-8ba6-48c50e46580b"
        }
      }
    },
    {
      "fullUrl": "urn:uuid:2c3f2bbe-806f-49c2-9d3c-fdc372bc91de",
      "resource": {
        "resourceType": "Observation",
        "id": "2c3f2bbe-806f-49c2-9d3c-fdc372bc91de",
        "meta": {
          "profile": [
            "http://hl7.eu/fhir/laboratory/StructureDefinition/Observation-resultslab-eu-lab"
          ]
        },
        "performer": [
          {
            "display": "The Central European Lab"
          }
        ],
        "category": [
          {
            "coding": [
              {
                "system": "http://terminology.hl7.org/CodeSystem/observation-category",
                "code": "laboratory"
              }
            ]
          }
        ],
        "code": {
          "coding": [
            {
              "code": "1742-6",
              "system": "http://loinc.org",
              "display": "Alanine aminotransferase [Enzymatic activity/volume] in Serum or Plasma"
            }
          ],
          "text": "Alanine aminotransferase [Enzymatic activity/volume] in Serum or Plasma"
        },
        "valueQuantity": {
          "system": "http://unitsofmeasure.org",
          "value": 28.8,
          "unit": "U/L",
          "code": "U/L"
        },
        "referenceRange": [
          {
            "low": {
              "value": 7,
              "code": "U/L",
              "system": "http://unitsofmeasure.org"
            }
          },
          {
            "high": {
              "value": 55,
              "code": "U/L",
              "system": "http://unitsofmeasure.org"
            }
          }
        ],
        "text": {
          "status": "generated",
          "div": "<div xmlns=\"http://www.w3.org/1999/xhtml\"><table class=\"hl7__eu__lab__report\"><tr><th>Test</th><th>11-Nov-2020</th><th>Reference&#xA0;Range</th><th>Unit</th></tr><tr><td>Alanine aminotransferase [Enzymatic activity/volume] in Serum or Plasma</td><td>28.8</td><td>7 - 55</td><td></td><td>U/L</td></tr></table></div>"
        },
        "status": "final",
        "subject": {
          "reference": "urn:uuid:48a9da10-fff6-480c-a004-6c10af1b76d2",
          "display": "Ludmila Vávrová"
        },
        "effectiveDateTime": "2020-11-11T03:51:38Z",
        "specimen": {
          "reference": "urn:uuid:a2be09b0-56b5-4668-8ba6-48c50e46580b"
        }
      }
    },
    {
      "fullUrl": "urn:uuid:4856bb0f-d37a-4007-a75f-8c91b23a082d",
      "resource": {
        "resourceType": "Observation",
        "id": "4856bb0f-d37a-4007-a75f-8c91b23a082d",
        "meta": {
          "profile": [
            "http://hl7.eu/fhir/laboratory/StructureDefinition/Observation-resultslab-eu-lab"
          ]
        },
        "performer": [
          {
            "display": "The Central European Lab"
          }
        ],
        "category": [
          {
            "coding": [
              {
                "system": "http://terminology.hl7.org/CodeSystem/observation-category",
                "code": "laboratory"
              }
            ]
          }
        ],
        "code": {
          "coding": [
            {
              "code": "1920-8",
              "system": "http://loinc.org",
              "display": "Aspartate aminotransferase [Enzymatic activity/volume] in Serum or Plasma"
            }
          ],
          "text": "Aspartate aminotransferase [Enzymatic activity/volume] in Serum or Plasma"
        },
        "valueQuantity": {
          "system": "http://unitsofmeasure.org",
          "value": 21,
          "unit": "U/L",
          "code": "U/L"
        },
        "referenceRange": [
          {
            "low": {
              "value": 10,
              "code": "U/L",
              "system": "http://unitsofmeasure.org"
            }
          },
          {
            "high": {
              "value": 40,
              "code": "U/L",
              "system": "http://unitsofmeasure.org"
            }
          }
        ],
        "text": {
          "status": "generated",
          "div": "<div xmlns=\"http://www.w3.org/1999/xhtml\"><table class=\"hl7__eu__lab__report\"><tr><th>Test</th><th>11-Nov-2020</th><th>Reference&#xA0;Range</th><th>Unit</th></tr><tr><td>Aspartate aminotransferase [Enzymatic activity/volume] in Serum or Plasma</td><td>21.0</td><td>10 - 40</td><td></td><td>U/L</td></tr></table></div>"
        },
        "status": "final",
        "subject": {
          "reference": "urn:uuid:48a9da10-fff6-480c-a004-6c10af1b76d2",
          "display": "Ludmila Vávrová"
        },
        "effectiveDateTime": "2020-11-11T03:51:38Z",
        "specimen": {
          "reference": "urn:uuid:a2be09b0-56b5-4668-8ba6-48c50e46580b"
        }
      }
    },
    {
      "fullUrl": "urn:uuid:99a3ad62-019a-4cb8-8fdc-aa44646fe589",
      "resource": {
        "resourceType": "Observation",
        "id": "99a3ad62-019a-4cb8-8fdc-aa44646fe589",
        "meta": {
          "profile": [
            "http://hl7.eu/fhir/laboratory/StructureDefinition/Observation-resultslab-eu-lab"
          ]
        },
        "performer": [
          {
            "display": "The Central European Lab"
          }
        ],
        "category": [
          {
            "coding": [
              {
                "system": "http://terminology.hl7.org/CodeSystem/observation-category",
                "code": "laboratory"
              }
            ]
          }
        ],
        "code": {
          "coding": [
            {
              "code": "2093-3",
              "system": "http://loinc.org",
              "display": "Cholesterol [Mass/volume] in Serum or Plasma"
            }
          ],
          "text": "Cholesterol [Mass/volume] in Serum or Plasma"
        },
        "valueQuantity": {
          "system": "http://unitsofmeasure.org",
          "value": 203,
          "unit": "mg/dL",
          "code": "mg/dL"
        },
        "referenceRange": [
          {
            "low": {
              "value": 125,
              "code": "mg/dL",
              "system": "http://unitsofmeasure.org"
            }
          },
          {
            "high": {
              "value": 200,
              "code": "mg/dL",
              "system": "http://unitsofmeasure.org"
            }
          }
        ],
        "interpretation": [
          {
            "coding": [
              {
                "code": "H",
                "system": "http://terminology.hl7.org/CodeSystem/v3-ObservationInterpretation",
                "display": "High"
              }
            ]
          }
        ],
        "text": {
          "status": "generated",
          "div": "<div xmlns=\"http://www.w3.org/1999/xhtml\"><table class=\"hl7__eu__lab__report\"><tr><th>Test</th><th>11-Nov-2020</th><th>Reference&#xA0;Range</th><th>Unit</th></tr><tr><td>Cholesterol [Mass/volume] in Serum or Plasma</td><td>203.0</td><td>125 - 200</td><td>H</td><td>mg/dL</td></tr></table></div>"
        },
        "status": "final",
        "subject": {
          "reference": "urn:uuid:48a9da10-fff6-480c-a004-6c10af1b76d2",
          "display": "Ludmila Vávrová"
        },
        "effectiveDateTime": "2020-11-11T03:51:38Z",
        "specimen": {
          "reference": "urn:uuid:a2be09b0-56b5-4668-8ba6-48c50e46580b"
        }
      }
    },
    {
      "fullUrl": "urn:uuid:12d57e2d-c147-4fed-8ca2-d8275244b9b0",
      "resource": {
        "resourceType": "Observation",
        "id": "12d57e2d-c147-4fed-8ca2-d8275244b9b0",
        "meta": {
          "profile": [
            "http://hl7.eu/fhir/laboratory/StructureDefinition/Observation-resultslab-eu-lab"
          ]
        },
        "performer": [
          {
            "display": "The Central European Lab"
          }
        ],
        "category": [
          {
            "coding": [
              {
                "system": "http://terminology.hl7.org/CodeSystem/observation-category",
                "code": "laboratory"
              }
            ]
          }
        ],
        "code": {
          "coding": [
            {
              "code": "2571-8",
              "system": "http://loinc.org",
              "display": "Triglyceride [Mass/volume] in Serum or Plasma"
            }
          ],
          "text": "Triglyceride [Mass/volume] in Serum or Plasma"
        },
        "valueQuantity": {
          "system": "http://unitsofmeasure.org",
          "value": 166.2,
          "unit": "mg/dL",
          "code": "mg/dL"
        },
        "referenceRange": [
          {
            "low": {
              "value": 10,
              "code": "mg/dL",
              "system": "http://unitsofmeasure.org"
            }
          },
          {
            "high": {
              "value": 175,
              "code": "mg/dL",
              "system": "http://unitsofmeasure.org"
            }
          }
        ],
        "text": {
          "status": "generated",
          "div": "<div xmlns=\"http://www.w3.org/1999/xhtml\"><table class=\"hl7__eu__lab__report\"><tr><th>Test</th><th>11-Nov-2020</th><th>Reference&#xA0;Range</th><th>Unit</th></tr><tr><td>Triglyceride [Mass/volume] in Serum or Plasma</td><td>166.2</td><td>10 - 175</td><td></td><td>mg/dL</td></tr></table></div>"
        },
        "status": "final",
        "subject": {
          "reference": "urn:uuid:48a9da10-fff6-480c-a004-6c10af1b76d2",
          "display": "Ludmila Vávrová"
        },
        "effectiveDateTime": "2020-11-11T03:51:38Z",
        "specimen": {
          "reference": "urn:uuid:a2be09b0-56b5-4668-8ba6-48c50e46580b"
        }
      }
    },
    {
      "fullUrl": "urn:uuid:a7f8edbb-5b76-46d5-ac52-ca2e0c772238",
      "resource": {
        "resourceType": "Observation",
        "id": "a7f8edbb-5b76-46d5-ac52-ca2e0c772238",
        "meta": {
          "profile": [
            "http://hl7.eu/fhir/laboratory/StructureDefinition/Observation-resultslab-eu-lab"
          ]
        },
        "performer": [
          {
            "display": "The Central European Lab"
          }
        ],
        "category": [
          {
            "coding": [
              {
                "system": "http://terminology.hl7.org/CodeSystem/observation-category",
                "code": "laboratory"
              }
            ]
          }
        ],
        "code": {
          "coding": [
            {
              "code": "18262-6",
              "system": "http://loinc.org",
              "display": "Cholesterol in LDL [Mass/volume] in Serum or Plasma by Direct assay"
            }
          ],
          "text": "Cholesterol in LDL [Mass/volume] in Serum or Plasma by Direct assay"
        },
        "valueQuantity": {
          "system": "http://unitsofmeasure.org",
          "value": 146.5,
          "unit": "mg/dL",
          "code": "mg/dL"
        },
        "referenceRange": [
          {
            "low": {
              "value": 0,
              "code": "mg/dL",
              "system": "http://unitsofmeasure.org"
            }
          },
          {
            "high": {
              "value": 130,
              "code": "mg/dL",
              "system": "http://unitsofmeasure.org"
            }
          }
        ],
        "interpretation": [
          {
            "coding": [
              {
                "code": "H",
                "system": "http://terminology.hl7.org/CodeSystem/v3-ObservationInterpretation",
                "display": "High"
              }
            ]
          }
        ],
        "text": {
          "status": "generated",
          "div": "<div xmlns=\"http://www.w3.org/1999/xhtml\"><table class=\"hl7__eu__lab__report\"><tr><th>Test</th><th>11-Nov-2020</th><th>Reference&#xA0;Range</th><th>Unit</th></tr><tr><td>Cholesterol in LDL [Mass/volume] in Serum or Plasma by Direct assay</td><td>146.5</td><td>0 - 130</td><td>H</td><td>mg/dL</td></tr></table></div>"
        },
        "status": "final",
        "subject": {
          "reference": "urn:uuid:48a9da10-fff6-480c-a004-6c10af1b76d2",
          "display": "Ludmila Vávrová"
        },
        "effectiveDateTime": "2020-11-11T03:51:38Z",
        "specimen": {
          "reference": "urn:uuid:a2be09b0-56b5-4668-8ba6-48c50e46580b"
        }
      }
    },
    {
      "fullUrl": "urn:uuid:c3e7bac6-7ed9-44aa-a478-5aebbebbf1da",
      "resource": {
        "resourceType": "Observation",
        "id": "c3e7bac6-7ed9-44aa-a478-5aebbebbf1da",
        "meta": {
          "profile": [
            "http://hl7.eu/fhir/laboratory/StructureDefinition/Observation-resultslab-eu-lab"
          ]
        },
        "performer": [
          {
            "display": "The Central European Lab"
          }
        ],
        "category": [
          {
            "coding": [
              {
                "system": "http://terminology.hl7.org/CodeSystem/observation-category",
                "code": "laboratory"
              }
            ]
          }
        ],
        "code": {
          "coding": [
            {
              "code": "2085-9",
              "system": "http://loinc.org",
              "display": "Cholesterol in HDL [Mass/volume] in Serum or Plasma"
            }
          ],
          "text": "Cholesterol in HDL [Mass/volume] in Serum or Plasma"
        },
        "valueQuantity": {
          "system": "http://unitsofmeasure.org",
          "value": 44.9,
          "unit": "mg/dL",
          "code": "mg/dL"
        },
        "referenceRange": [
          {
            "low": {
              "value": 50,
              "code": "mg/dL",
              "system": "http://unitsofmeasure.org"
            }
          },
          {
            "high": {
              "value": 100,
              "code": "mg/dL",
              "system": "http://unitsofmeasure.org"
            }
          }
        ],
        "interpretation": [
          {
            "coding": [
              {
                "code": "L",
                "system": "http://terminology.hl7.org/CodeSystem/v3-ObservationInterpretation",
                "display": "Low"
              }
            ]
          }
        ],
        "text": {
          "status": "generated",
          "div": "<div xmlns=\"http://www.w3.org/1999/xhtml\"><table class=\"hl7__eu__lab__report\"><tr><th>Test</th><th>11-Nov-2020</th><th>Reference&#xA0;Range</th><th>Unit</th></tr><tr><td>Cholesterol in HDL [Mass/volume] in Serum or Plasma</td><td>44.9</td><td>50 - 100</td><td>L</td><td>mg/dL</td></tr></table></div>"
        },
        "status": "final",
        "subject": {
          "reference": "urn:uuid:48a9da10-fff6-480c-a004-6c10af1b76d2",
          "display": "Ludmila Vávrová"
        },
        "effectiveDateTime": "2020-11-11T03:51:38Z",
        "specimen": {
          "reference": "urn:uuid:a2be09b0-56b5-4668-8ba6-48c50e46580b"
        }
      }
    },
    {
      "fullUrl": "urn:uuid:0e52c02f-adc1-42d6-8b2c-ae7f884f79a4",
      "resource": {
        "resourceType": "Device",
        "id": "0e52c02f-adc1-42d6-8b2c-ae7f884f79a4",
        "deviceName": [
          {
            "name": "SYNDERAI Synthetic Generator",
            "type": "manufacturer-name"
          }
        ],
        "version": [
          {
            "value": "5.0"
          }
        ],
        "text": {
          "status": "generated",
          "div": "<div xmlns=\"http://www.w3.org/1999/xhtml\">SYNDERAI Synthetic Generator v5.0</div>"
        },
        "status": "active\"",
        "distinctIdentifier": "synderai-generator-50",
        "manufacturer": "SYNDERAI Project"
      }
    },
    {
      "fullUrl": "urn:uuid:91cc2922-c551-4304-8cae-35d52449556e",
      "resource": {
        "resourceType": "Provenance",
        "id": "91cc2922-c551-4304-8cae-35d52449556e",
        "target": [
          {
            "reference": "Patient/48a9da10-fff6-480c-a004-6c10af1b76d2"
          },
          {
            "reference": "Bundle/0d6d4cb7-09ff-4e88-82fd-a36a61dca7c8"
          },
          {
            "reference": "Composition/0e06957c-0204-4635-b7a2-8713a6775bd8"
          },
          {
            "reference": "PractitionerRole/ce231951-84b7-4058-8cf5-2ad4d517aafa"
          },
          {
            "reference": "Practitioner/cc35b68f-9769-464f-86fe-b8f6725469e7"
          },
          {
            "reference": "PractitionerRole/4b224c2d-c545-476c-a591-5fd5a601befe"
          },
          {
            "reference": "Organization/c106ff90-8ebb-45ec-807c-bd877010dfcc"
          }
        ],
        "activity": {
          "text": "Synthetic Example Data Generation"
        },
        "policy": [
          "https://synderai.net/synderai-synthetic-data-policy"
        ],
        "agent": [
          {
            "type": {
              "text": "author"
            },
            "who": {
              "reference": "Device/0e52c02f-adc1-42d6-8b2c-ae7f884f79a4"
            }
          }
        ],
        "reason": [
          {
            "text": "Interoperability Testing and Training (non-clinical use)"
          }
        ],
        "text": {
          "status": "generated",
          "div": "<div xmlns=\"http://www.w3.org/1999/xhtml\">Provenance for SYNDERAI Synthetic Example Data Resource</div>"
        },
        "recorded": "2020-11-11T04:51:38Z"
      }
    },
    {
      "fullUrl": "urn:uuid:ce231951-84b7-4058-8cf5-2ad4d517aafa",
      "resource": {
        "resourceType": "PractitionerRole",
        "id": "ce231951-84b7-4058-8cf5-2ad4d517aafa",
        "meta": {
          "profile": [
            "http://hl7.eu/fhir/base/StructureDefinition/practitionerRole-eu"
          ]
        },
        "text": {
          "status": "generated",
          "div": "<div xmlns=\"http://www.w3.org/1999/xhtml\">Laboratory Role Id: ce231951-84b7-4058-8cf5-2ad4d517aafa</div>"
        },
        "practitioner": {
          "reference": "urn:uuid:cc35b68f-9769-464f-86fe-b8f6725469e7"
        }
      }
    },
    {
      "fullUrl": "urn:uuid:cc35b68f-9769-464f-86fe-b8f6725469e7",
      "resource": {
        "resourceType": "Practitioner",
        "id": "cc35b68f-9769-464f-86fe-b8f6725469e7",
        "meta": {
          "profile": [
            "http://hl7.eu/fhir/base/StructureDefinition/practitioner-eu"
          ]
        },
        "identifier": [
          {
            "assigner": {
              "display": "HL7 Europe"
            },
            "system": "urn:oid:2.16.840.1.113883.2.51.999",
            "value": "9a9d2131-1ef7-450a-84ce-6b8a47af3317"
          }
        ],
        "name": [
          {
            "prefix": [
              "dr"
            ],
            "given": [
              "Ex"
            ],
            "family": "Ample"
          }
        ],
        "address": [
          {
            "line": [
              "Laboratoire Central Européenne",
              "Boulevard du Jardin Botanique 32"
            ],
            "postalCode": "1000",
            "city": "Brussels",
            "country": "Belgium"
          }
        ],
        "text": {
          "status": "generated",
          "div": "<div xmlns=\"http://www.w3.org/1999/xhtml\">Laboratory: Laboratoire Central Européenne, 1000 Brussels, Belgium</div>"
        }
      }
    }
  ],
  "type": "document",
  "timestamp": "2020-11-11T04:51:38Z"
}
