{
  "resourceType": "Bundle",
  "id": "093dc24c-87e3-4995-ab3e-15bf575fbfc0",
  "meta": {
    "profile": [
      "http://hl7.eu/fhir/laboratory/StructureDefinition/Bundle-eu-lab"
    ]
  },
  "identifier": {
    "assigner": {
      "display": "HL7 Europe"
    },
    "system": "urn:oid:2.16.840.1.113883.2.51.999",
    "value": "0e9ad465-2885-4408-8653-2a9404829299"
  },
  "entry": [
    {
      "fullUrl": "urn:uuid:4003378a-c6b7-47ba-9a45-a81e85e75be2",
      "resource": {
        "resourceType": "Composition",
        "id": "4003378a-c6b7-47ba-9a45-a81e85e75be2",
        "meta": {
          "profile": [
            "http://hl7.eu/fhir/laboratory/StructureDefinition/Composition-eu-lab"
          ]
        },
        "identifier": {
          "assigner": {
            "display": "HL7 Europe"
          },
          "system": "urn:oid:2.16.840.1.113883.2.51.999",
          "value": "e143708a-4fb6-42d9-8135-54ed2916d079"
        },
        "author": [
          {
            "reference": "urn:uuid:3fc495ba-c897-4f2e-ad2c-769d1a6f9a14"
          }
        ],
        "category": [
          {
            "coding": [
              {
                "code": "26436-6",
                "system": "http://loinc.org",
                "display": "Laboratory studies (set)"
              }
            ]
          }
        ],
        "type": {
          "coding": [
            {
              "code": "11502-2",
              "system": "http://loinc.org",
              "display": "Laboratory report"
            }
          ],
          "text": "Laboratory Report"
        },
        "section": [
          {
            "code": {
              "coding": [
                {
                  "code": "26436-6",
                  "system": "http://loinc.org",
                  "display": "Laboratory studies (set)"
                }
              ],
              "text": "Laboratory studies"
            },
            "section": [
              {
                "code": {
                  "coding": [
                    {
                      "code": "$18723-7",
                      "system": "http://loinc.org",
                      "display": "Hematology studies (set)"
                    }
                  ],
                  "text": "Hematology"
                },
                "entry": [
                  {
                    "reference": "urn:uuid:74b4663e-e250-4bcf-94ef-ca86660c2a07"
                  },
                  {
                    "reference": "urn:uuid:1b7b7916-936c-444f-b146-924ac18c94f0"
                  },
                  {
                    "reference": "urn:uuid:919d173a-13d4-46b0-ba07-bea6fc4b6379"
                  },
                  {
                    "reference": "urn:uuid:5a89d121-a787-494e-b201-f0b0f75c606a"
                  },
                  {
                    "reference": "urn:uuid:54b05d39-0f78-4603-b665-d4b4511e8b5d"
                  },
                  {
                    "reference": "urn:uuid:c65a3dcd-5ff6-4db4-ba22-eb8e68b4136e"
                  },
                  {
                    "reference": "urn:uuid:5cd42ee1-e3ab-476e-aef2-b5f8ec4e2f04"
                  },
                  {
                    "reference": "urn:uuid:c68df1d7-a075-4248-a3c5-649a3dca0c2a"
                  },
                  {
                    "reference": "urn:uuid:4eeaaf4c-fd9a-4728-8f07-3226d5760c32"
                  }
                ],
                "text": {
                  "status": "generated",
                  "div": "<div xmlns=\"http://www.w3.org/1999/xhtml\"><h3>Hematology</h3><table class=\"hl7__eu__lab__report\"><thead><tr><th>Test</th><th>22-MAY-2017</th><th>Reference&#xA0;Range</th><th>Unit</th></tr></thead><tbody><tr><td>Leukocytes [#/volume] in Blood by Automated count</td><td>6.7</td><td>4 - 11</td><td>10*3/uL</td></tr><tr><td>Erythrocytes [#/volume] in Blood by Automated count</td><td>5.3</td><td>3.8 - 5.7</td><td>10*6/uL</td></tr><tr><td>Hemoglobin [Mass/volume] in Blood</td><td>14.7</td><td>12 - 16</td><td>g/dL</td></tr><tr><td>Hematocrit [Volume Fraction] of Blood by Automated count</td><td><strong>36.0 L</strong></td><td>38 - 56</td><td>%</td></tr><tr><td>MCV [Entitic volume] by Automated count</td><td>83.8</td><td>78 - 98</td><td>fL</td></tr><tr><td>MCH [Entitic mass] by Automated count</td><td>31.1</td><td>27 - 34</td><td>pg</td></tr><tr><td>MCHC [Mass/volume] by Automated count</td><td><strong>35.2 H</strong></td><td>32 - 35</td><td>g/dL</td></tr><tr><td>Erythrocyte distribution width [Ratio] by Automated count</td><td>14.8</td><td>11.6 - 16.5</td><td>%</td></tr><tr><td>Platelets [#/volume] in Blood by Automated count</td><td>406.2</td><td>157 - 415</td><td>10*3/uL</td></tr></tbody></table></div>"
                },
                "title": "Hematology"
              },
              {
                "code": {
                  "coding": [
                    {
                      "code": "$18719-5",
                      "system": "http://loinc.org",
                      "display": "Chemistry studies (set)"
                    }
                  ],
                  "text": "Chemistry"
                },
                "entry": [
                  {
                    "reference": "urn:uuid:81daeaca-9b07-4d65-aeeb-906b3ab71133"
                  },
                  {
                    "reference": "urn:uuid:b327d383-5fc8-4656-8ccc-414c677b3b3f"
                  },
                  {
                    "reference": "urn:uuid:85738265-658d-4bee-b0d5-c73d46a8213b"
                  },
                  {
                    "reference": "urn:uuid:e123c29c-3ec0-46a8-8294-52593973c5cf"
                  },
                  {
                    "reference": "urn:uuid:b0a51eff-b3bd-4e4b-990f-d05569509ee6"
                  },
                  {
                    "reference": "urn:uuid:ea03b851-3725-4bf0-a39c-b4606833eb4e"
                  },
                  {
                    "reference": "urn:uuid:aca740ed-95f8-4d8d-a1d2-e4e8b041053b"
                  },
                  {
                    "reference": "urn:uuid:421b33d9-9150-424f-bed4-e3e35a609f31"
                  },
                  {
                    "reference": "urn:uuid:92f48ce1-2235-4eaf-ba4c-b1d28887810c"
                  },
                  {
                    "reference": "urn:uuid:97e68325-e862-4478-8abf-062ec99a5178"
                  },
                  {
                    "reference": "urn:uuid:fd2ce412-3995-4f40-8c09-93ab4066455d"
                  },
                  {
                    "reference": "urn:uuid:7244e133-b856-4019-936b-9268b06e5f57"
                  },
                  {
                    "reference": "urn:uuid:86c765b7-5d59-421c-8078-0c030d039354"
                  },
                  {
                    "reference": "urn:uuid:e557099a-95b0-4435-a0d0-463dc2cbef02"
                  },
                  {
                    "reference": "urn:uuid:4cddb30f-567d-41f7-8386-3362c3bd6571"
                  },
                  {
                    "reference": "urn:uuid:0384ba81-b71b-4936-af30-82a04e2e2a0f"
                  },
                  {
                    "reference": "urn:uuid:bf68cb83-1514-4929-8fba-98c4f1d8ff93"
                  },
                  {
                    "reference": "urn:uuid:3f9b5c4d-9b03-46dd-adc3-c633ffbe7476"
                  },
                  {
                    "reference": "urn:uuid:cc75d792-8eb0-4a93-8469-ae7ef5fd491d"
                  },
                  {
                    "reference": "urn:uuid:6e4abe2d-9056-4c4e-ae56-2831917ccb00"
                  },
                  {
                    "reference": "urn:uuid:ea905089-7aa9-4d70-aa2e-447d2e9c88ca"
                  },
                  {
                    "reference": "urn:uuid:36744478-ec6b-4cb7-b2ae-1ed4e8b61db3"
                  },
                  {
                    "reference": "urn:uuid:768f9f00-561b-4db5-84bd-45b470a0cc10"
                  },
                  {
                    "reference": "urn:uuid:96dddae6-b733-4024-ad47-cc5309928071"
                  },
                  {
                    "reference": "urn:uuid:b2e23d2e-3a34-40ff-a360-7b0fed81397a"
                  }
                ],
                "text": {
                  "status": "generated",
                  "div": "<div xmlns=\"http://www.w3.org/1999/xhtml\"><h3>Chemistry</h3><table class=\"hl7__eu__lab__report\"><thead><tr><th>Test</th><th>22-MAY-2017</th><th>Reference&#xA0;Range</th><th>Unit</th></tr></thead><tbody><tr><td>Glucose [Mass/volume] in Serum or Plasma</td><td>71.5</td><td>70 - 99</td><td>mg/dL</td></tr><tr><td>Urea nitrogen [Mass/volume] in Serum or Plasma</td><td>7.8</td><td>7 - 20</td><td>mg/dL</td></tr><tr><td>Creatinine [Mass/volume] in Serum or Plasma</td><td><strong>2.6 H</strong></td><td>0.6 - 1.3</td><td>mg/dL</td></tr><tr><td>Calcium [Mass/volume] in Serum or Plasma</td><td>9.7</td><td>8.5 - 10.4</td><td>mg/dL</td></tr><tr><td>Sodium [Moles/volume] in Serum or Plasma</td><td>136.6</td><td>135 - 145</td><td>mmol/L</td></tr><tr><td>Potassium [Moles/volume] in Serum or Plasma</td><td>4.3</td><td>3.5 - 5.1</td><td>mmol/L</td></tr><tr><td>Chloride [Moles/volume] in Serum or Plasma</td><td>105.0</td><td>98 - 108</td><td>mmol/L</td></tr><tr><td>Carbon dioxide, total [Moles/volume] in Serum or Plasma</td><td>23.3</td><td>22 - 32</td><td>mmol/L</td></tr><tr><td>Protein [Mass/volume] in Serum or Plasma</td><td>7.5</td><td>6 - 8.3</td><td>g/dL</td></tr><tr><td>Albumin [Mass/volume] in Serum or Plasma</td><td>4.3</td><td>3.5 - 5</td><td>g/dL</td></tr><tr><td>Bilirubin.total [Mass/volume] in Serum or Plasma</td><td><strong>10.7 H</strong></td><td>0.3 - 1.2</td><td>mg/dL</td></tr><tr><td>Alkaline phosphatase [Enzymatic activity/volume] in Serum or Plasma</td><td>49.2</td><td>32 - 150</td><td>U/L</td></tr><tr><td>Alanine aminotransferase [Enzymatic activity/volume] in Serum or Plasma</td><td><strong>8.1 L</strong></td><td>13 - 32</td><td>U/L</td></tr><tr><td>Aspartate aminotransferase [Enzymatic activity/volume] in Serum or Plasma</td><td>18.2</td><td>10 - 40</td><td>U/L</td></tr><tr><td>Magnesium [Mass/volume] in Serum or Plasma</td><td>2.1</td><td>1.7 - 2.6</td><td>mg/dL</td></tr><tr><td>Phosphate [Mass/volume] in Serum or Plasma</td><td>3.3</td><td>2.5 - 4.5</td><td>mg/dL</td></tr><tr><td>pH of Arterial blood</td><td><strong>6.9 L</strong></td><td>7.35 - 7.45</td><td>[pH]</td></tr><tr><td>Carbon dioxide [Partial pressure] in Arterial blood</td><td>44.9</td><td>38 - 48</td><td>mm[Hg]</td></tr><tr><td>Oxygen [Partial pressure] in Arterial blood</td><td>89.9</td><td>75 - 100</td><td>mm[Hg]</td></tr><tr><td>Bicarbonate [Moles/volume] in Arterial blood</td><td>26.6</td><td>22 - 31</td><td>mmol/L</td></tr><tr><td>Oxygen saturation in Arterial blood</td><td><strong>94.0 L</strong></td><td>95 - 100</td><td>%</td></tr><tr><td>Cholesterol [Mass/volume] in Serum or Plasma</td><td><strong>299.5 H</strong></td><td>130 - 200</td><td>mg/dL</td></tr><tr><td>Triglyceride [Mass/volume] in Serum or Plasma</td><td>140.8</td><td>0 - 199</td><td>mg/dL</td></tr><tr><td>Cholesterol in LDL [Mass/volume] in Serum or Plasma by Direct assay</td><td><strong>210.5 H</strong></td><td>0 - 130</td><td>mg/dL</td></tr><tr><td>Cholesterol in HDL [Mass/volume] in Serum or Plasma</td><td>60.9</td><td>50 - 100</td><td>mg/dL</td></tr></tbody></table></div>"
                },
                "title": "Chemistry"
              },
              {
                "code": {
                  "coding": [
                    {
                      "code": "$18720-3",
                      "system": "http://loinc.org",
                      "display": "Coagulation studies (set)"
                    }
                  ],
                  "text": "Coagulation"
                },
                "entry": [
                  {
                    "reference": "urn:uuid:bc090967-718f-419b-b3cd-aac8e5999276"
                  },
                  {
                    "reference": "urn:uuid:2758e2a7-d2f7-4fc4-b2f8-9076584809eb"
                  },
                  {
                    "reference": "urn:uuid:c704ffe1-e368-4609-aa59-93bd17fef9c2"
                  }
                ],
                "text": {
                  "status": "generated",
                  "div": "<div xmlns=\"http://www.w3.org/1999/xhtml\"><h3>Coagulation</h3><table class=\"hl7__eu__lab__report\"><thead><tr><th>Test</th><th>22-MAY-2017</th><th>Reference&#xA0;Range</th><th>Unit</th></tr></thead><tbody><tr><td>Prothrombin time (PT)</td><td>11.5</td><td>11 - 15</td><td>s</td></tr><tr><td>INR in Platelet poor plasma by Coagulation assay</td><td>0.9</td><td>0.9 - 1.1</td><td>{INR}</td></tr><tr><td>aPTT in Blood by Coagulation assay</td><td>33.2</td><td>25 - 35</td><td>s</td></tr></tbody></table></div>"
                },
                "title": "Coagulation"
              }
            ],
            "title": "Laboratory Report"
          },
          {
            "text": {
              "status": "generated",
              "div": "<div xmlns=\"http://www.w3.org/1999/xhtml\"><h3>Annotation</h3><table class=\"hl7__eu__lab__report\"><tr><th>Conclusion and Recommendations based on this report and previous findings known to us</th></tr><tr><td>The patient shows severe metabolic acidosis (pH 6.9), markedly elevated creatinine indicating significant renal dysfunction, and very high total and LDL cholesterol. There is also marked hyperbilirubinemia, mild anemia (low hematocrit), and mild hyperconcentration of hemoglobin. Oxygen saturation is slightly reduced. These findings suggest acute or chronic renal failure with metabolic acidosis, possible liver dysfunction, and high cardiovascular risk. Immediate clinical evaluation is recommended.</td></tr></table></div>"
            },
            "code": {
              "coding": [
                {
                  "system": "http://loinc.org",
                  "code": "48767-8",
                  "display": "Annotation comment"
                }
              ]
            },
            "title": "Annotation comment"
          }
        ],
        "status": "final",
        "subject": {
          "reference": "urn:uuid:e84c9a59-6ed6-4d36-8bf1-fa81f84d58f5",
          "display": "Aniela Prażmo"
        },
        "date": "2017-05-22T07:14:47Z",
        "title": "Laboratory Report",
        "confidentiality": "N"
      }
    },
    {
      "fullUrl": "urn:uuid:e954af7b-86cc-4d34-9472-d1c8c2543ca1",
      "resource": {
        "resourceType": "DiagnosticReport",
        "id": "e954af7b-86cc-4d34-9472-d1c8c2543ca1",
        "meta": {
          "profile": [
            "http://hl7.eu/fhir/laboratory/StructureDefinition/DiagnosticReport-eu-lab"
          ]
        },
        "identifier": [
          {
            "assigner": {
              "display": "HL7 Europe"
            },
            "system": "urn:oid:2.16.840.1.113883.2.51.999",
            "value": "f099e0ce-3087-4798-91f8-9d99637f6bd8"
          }
        ],
        "extension": [
          {
            "url": "http://hl7.org/fhir/5.0/StructureDefinition/extension-DiagnosticReport.composition",
            "valueReference": {
              "reference": "urn:uuid:e143708a-4fb6-42d9-8135-54ed2916d079"
            }
          }
        ],
        "category": [
          {
            "coding": [
              {
                "code": "26436-6",
                "system": "http://loinc.org",
                "display": "Laboratory studies (set)"
              }
            ]
          }
        ],
        "specimen": [
          {
            "reference": "urn:uuid:fa9212fb-2027-4488-a3c5-4d234f0a77b3"
          },
          {
            "reference": "urn:uuid:fa9212fb-2027-4488-a3c5-4d234f0a77b3"
          },
          {
            "reference": "urn:uuid:45ede4a7-a4a8-4916-a8de-cd8b939fd4b7"
          },
          {
            "reference": "urn:uuid:2ec93265-80bc-4950-8c93-79aa6bf8ac5d"
          },
          {
            "reference": "urn:uuid:700538d7-6ab4-473f-ab54-0dd05cbc1331"
          }
        ],
        "result": [
          {
            "reference": "urn:uuid:74b4663e-e250-4bcf-94ef-ca86660c2a07"
          },
          {
            "reference": "urn:uuid:1b7b7916-936c-444f-b146-924ac18c94f0"
          },
          {
            "reference": "urn:uuid:919d173a-13d4-46b0-ba07-bea6fc4b6379"
          },
          {
            "reference": "urn:uuid:5a89d121-a787-494e-b201-f0b0f75c606a"
          },
          {
            "reference": "urn:uuid:54b05d39-0f78-4603-b665-d4b4511e8b5d"
          },
          {
            "reference": "urn:uuid:c65a3dcd-5ff6-4db4-ba22-eb8e68b4136e"
          },
          {
            "reference": "urn:uuid:5cd42ee1-e3ab-476e-aef2-b5f8ec4e2f04"
          },
          {
            "reference": "urn:uuid:c68df1d7-a075-4248-a3c5-649a3dca0c2a"
          },
          {
            "reference": "urn:uuid:4eeaaf4c-fd9a-4728-8f07-3226d5760c32"
          },
          {
            "reference": "urn:uuid:81daeaca-9b07-4d65-aeeb-906b3ab71133"
          },
          {
            "reference": "urn:uuid:b327d383-5fc8-4656-8ccc-414c677b3b3f"
          },
          {
            "reference": "urn:uuid:85738265-658d-4bee-b0d5-c73d46a8213b"
          },
          {
            "reference": "urn:uuid:e123c29c-3ec0-46a8-8294-52593973c5cf"
          },
          {
            "reference": "urn:uuid:b0a51eff-b3bd-4e4b-990f-d05569509ee6"
          },
          {
            "reference": "urn:uuid:ea03b851-3725-4bf0-a39c-b4606833eb4e"
          },
          {
            "reference": "urn:uuid:aca740ed-95f8-4d8d-a1d2-e4e8b041053b"
          },
          {
            "reference": "urn:uuid:421b33d9-9150-424f-bed4-e3e35a609f31"
          },
          {
            "reference": "urn:uuid:92f48ce1-2235-4eaf-ba4c-b1d28887810c"
          },
          {
            "reference": "urn:uuid:97e68325-e862-4478-8abf-062ec99a5178"
          },
          {
            "reference": "urn:uuid:fd2ce412-3995-4f40-8c09-93ab4066455d"
          },
          {
            "reference": "urn:uuid:7244e133-b856-4019-936b-9268b06e5f57"
          },
          {
            "reference": "urn:uuid:86c765b7-5d59-421c-8078-0c030d039354"
          },
          {
            "reference": "urn:uuid:e557099a-95b0-4435-a0d0-463dc2cbef02"
          },
          {
            "reference": "urn:uuid:4cddb30f-567d-41f7-8386-3362c3bd6571"
          },
          {
            "reference": "urn:uuid:0384ba81-b71b-4936-af30-82a04e2e2a0f"
          },
          {
            "reference": "urn:uuid:bc090967-718f-419b-b3cd-aac8e5999276"
          },
          {
            "reference": "urn:uuid:2758e2a7-d2f7-4fc4-b2f8-9076584809eb"
          },
          {
            "reference": "urn:uuid:c704ffe1-e368-4609-aa59-93bd17fef9c2"
          },
          {
            "reference": "urn:uuid:bf68cb83-1514-4929-8fba-98c4f1d8ff93"
          },
          {
            "reference": "urn:uuid:3f9b5c4d-9b03-46dd-adc3-c633ffbe7476"
          },
          {
            "reference": "urn:uuid:cc75d792-8eb0-4a93-8469-ae7ef5fd491d"
          },
          {
            "reference": "urn:uuid:6e4abe2d-9056-4c4e-ae56-2831917ccb00"
          },
          {
            "reference": "urn:uuid:ea905089-7aa9-4d70-aa2e-447d2e9c88ca"
          },
          {
            "reference": "urn:uuid:36744478-ec6b-4cb7-b2ae-1ed4e8b61db3"
          },
          {
            "reference": "urn:uuid:768f9f00-561b-4db5-84bd-45b470a0cc10"
          },
          {
            "reference": "urn:uuid:96dddae6-b733-4024-ad47-cc5309928071"
          },
          {
            "reference": "urn:uuid:b2e23d2e-3a34-40ff-a360-7b0fed81397a"
          }
        ],
        "status": "registered",
        "code": {
          "coding": [
            {
              "code": "11502-2",
              "system": "http://loinc.org",
              "display": "Laboratory report"
            }
          ]
        },
        "subject": {
          "reference": "urn:uuid:e84c9a59-6ed6-4d36-8bf1-fa81f84d58f5",
          "display": "Aniela Prażmo"
        }
      }
    },
    {
      "fullUrl": "urn:uuid:e84c9a59-6ed6-4d36-8bf1-fa81f84d58f5",
      "resource": {
        "resourceType": "Patient",
        "id": "e84c9a59-6ed6-4d36-8bf1-fa81f84d58f5",
        "meta": {
          "security": [
            {
              "system": "http://terminology.hl7.org/CodeSystem/v3-ActReason",
              "code": "HTEST"
            },
            {
              "system": "http://terminology.hl7.org/CodeSystem/v3-ActReason",
              "code": "TRAIN"
            }
          ],
          "tag": [
            {
              "system": "https://synderai.net/fhir/CodeSystem/tags",
              "code": "synthetic",
              "display": "SYNDERAI Synthetic data"
            }
          ],
          "profile": [
            "http://hl7.eu/fhir/base/StructureDefinition/patient-eu-core"
          ]
        },
        "identifier": [
          {
            "type": {
              "coding": [
                {
                  "code": "PT",
                  "system": "http://terminology.hl7.org/CodeSystem/v2-0203"
                }
              ]
            },
            "system": "http://ec.europa.eu/identifier/eci",
            "value": "9657-869171-7"
          },
          {
            "type": {
              "coding": [
                {
                  "code": "MR",
                  "system": "http://terminology.hl7.org/CodeSystem/v2-0203"
                }
              ]
            },
            "system": "http://local.setting.eu/identifier",
            "value": "ab00158c-e2d0-01e4-6cf5-730949937551"
          }
        ],
        "name": [
          {
            "family": "Prażmo"
          },
          {
            "given": [
              "Aniela"
            ]
          },
          {
            "text": "Aniela Prażmo"
          }
        ],
        "address": [
          {
            "line": [
              "pl. Kołłątaja 62/43"
            ],
            "use": "home",
            "type": "physical",
            "postalCode": "97-200",
            "city": "Tomaszów Mazowiecki",
            "country": "Poland"
          }
        ],
        "telecom": [
          {
            "system": "phone",
            "value": "+48 782 809 233"
          }
        ],
        "extension": [
          {
            "url": "http://hl7.org/fhir/StructureDefinition/patient-nationality",
            "valueCodeableConcept": {
              "coding": [
                {
                  "code": "PL",
                  "system": "http://hl7.org/fhir/ValueSet/country"
                }
              ]
            }
          }
        ],
        "text": {
          "status": "generated",
          "div": "<div xmlns=\"http://www.w3.org/1999/xhtml\"><table class=\"hl7__ips\"><tr><td>Aniela Prażmo</td><td>female</td><td>08-Feb-1941</td></tr></table></div>"
        },
        "gender": "female",
        "birthDate": "1941-02-08"
      }
    },
    {
      "fullUrl": "urn:uuid:2c6effdf-63ab-4b5b-825c-05ab74af3c99",
      "resource": {
        "resourceType": "ServiceRequest",
        "id": "2c6effdf-63ab-4b5b-825c-05ab74af3c99",
        "meta": {
          "profile": [
            "http://hl7.eu/fhir/laboratory/StructureDefinition/ServiceRequest-eu-lab"
          ]
        },
        "identifier": [
          {
            "system": "http://example.org",
            "value": "7ff01d46-e5d0-49cd-b0e8-a128f7e5ce7e"
          }
        ],
        "specimen": [
          {
            "reference": "urn:uuid:fa9212fb-2027-4488-a3c5-4d234f0a77b3"
          },
          {
            "reference": "urn:uuid:45ede4a7-a4a8-4916-a8de-cd8b939fd4b7"
          },
          {
            "reference": "urn:uuid:2ec93265-80bc-4950-8c93-79aa6bf8ac5d"
          },
          {
            "reference": "urn:uuid:700538d7-6ab4-473f-ab54-0dd05cbc1331"
          }
        ],
        "reasonCode": [
          {
            "coding": [
              {
                "code": "64859006",
                "system": "http://snomed.info/sct",
                "display": "Osteoporosis"
              }
            ]
          },
          {
            "coding": [
              {
                "code": "55822004",
                "system": "http://snomed.info/sct",
                "display": "Hyperlipidemia"
              }
            ]
          },
          {
            "coding": [
              {
                "code": "414545008",
                "system": "http://snomed.info/sct",
                "display": "Ischemic heart disease"
              }
            ]
          },
          {
            "coding": [
              {
                "code": "59621000",
                "system": "http://snomed.info/sct",
                "display": "Essential hypertension"
              }
            ]
          },
          {
            "coding": [
              {
                "code": "40055000",
                "system": "http://snomed.info/sct",
                "display": "Chronic sinusitis"
              }
            ]
          }
        ],
        "status": "active",
        "intent": "order",
        "code": {
          "coding": [
            {
              "code": "108252007",
              "system": "http://snomed.info/sct",
              "display": "Laboratory procedure"
            }
          ]
        },
        "subject": {
          "reference": "urn:uuid:e84c9a59-6ed6-4d36-8bf1-fa81f84d58f5",
          "display": "Aniela Prażmo"
        },
        "requester": {
          "reference": "urn:uuid:b6f150ca-e642-49f3-a625-14b0672cbde5"
        }
      }
    },
    {
      "fullUrl": "urn:uuid:b6f150ca-e642-49f3-a625-14b0672cbde5",
      "resource": {
        "resourceType": "PractitionerRole",
        "id": "b6f150ca-e642-49f3-a625-14b0672cbde5",
        "meta": {
          "profile": [
            "http://hl7.eu/fhir/base/StructureDefinition/practitionerRole-eu"
          ]
        },
        "text": {
          "status": "generated",
          "div": "<div xmlns=\"http://www.w3.org/1999/xhtml\">Provider Role Id: b6f150ca-e642-49f3-a625-14b0672cbde5</div>"
        },
        "organization": {
          "reference": "urn:uuid:7d579755-433b-4fbc-af7f-e7a93d9ac44a"
        }
      }
    },
    {
      "fullUrl": "urn:uuid:7d579755-433b-4fbc-af7f-e7a93d9ac44a",
      "resource": {
        "resourceType": "Organization",
        "id": "7d579755-433b-4fbc-af7f-e7a93d9ac44a",
        "meta": {
          "profile": [
            "http://hl7.eu/fhir/base/StructureDefinition/organization-eu"
          ]
        },
        "identifier": [
          {
            "assigner": {
              "display": "HL7 Europe"
            },
            "system": "urn:oid:2.16.840.1.113883.2.51.999",
            "value": "6c538a9c-7ea8-4333-9778-048f9fecd947"
          }
        ],
        "address": [
          {
            "city": "Tomaszów Mazowiecki",
            "postalCode": "97-200",
            "country": "Poland"
          }
        ],
        "text": {
          "status": "generated",
          "div": "<div xmlns=\"http://www.w3.org/1999/xhtml\">Provider Organization: Poradnia rehabilitacyjna</div>"
        },
        "name": "Poradnia rehabilitacyjna"
      }
    },
    {
      "fullUrl": "urn:uuid:fa9212fb-2027-4488-a3c5-4d234f0a77b3",
      "resource": {
        "resourceType": "Specimen",
        "id": "fa9212fb-2027-4488-a3c5-4d234f0a77b3",
        "meta": {
          "profile": [
            "http://hl7.eu/fhir/laboratory/StructureDefinition/Specimen-eu-lab"
          ]
        },
        "collection": {
          "collectedDateTime": "2017-05-22"
        },
        "text": {
          "status": "generated",
          "div": "<div xmlns=\"http://www.w3.org/1999/xhtml\"><table class=\"hl7__eu__lab__report\"><tr><th>Specimen</th><th>Collection Date</th></tr><tr><td>Whole blood specimen (specimen)</td><td><span class=\"nb\">22-May-2017</span></td></tr></table></div>"
        },
        "type": {
          "coding": [
            {
              "code": "258580003",
              "system": "http://snomed.info/sct",
              "display": "Whole blood specimen (specimen)"
            }
          ]
        }
      }
    },
    {
      "fullUrl": "urn:uuid:fa9212fb-2027-4488-a3c5-4d234f0a77b3",
      "resource": {
        "resourceType": "Specimen",
        "id": "fa9212fb-2027-4488-a3c5-4d234f0a77b3",
        "meta": {
          "profile": [
            "http://hl7.eu/fhir/laboratory/StructureDefinition/Specimen-eu-lab"
          ]
        },
        "collection": {
          "collectedDateTime": "2017-05-22"
        },
        "text": {
          "status": "generated",
          "div": "<div xmlns=\"http://www.w3.org/1999/xhtml\"><table class=\"hl7__eu__lab__report\"><tr><th>Specimen</th><th>Collection Date</th></tr><tr><td>Whole blood specimen (specimen)</td><td><span class=\"nb\">22-May-2017</span></td></tr></table></div>"
        },
        "type": {
          "coding": [
            {
              "code": "258580003",
              "system": "http://snomed.info/sct",
              "display": "Whole blood specimen (specimen)"
            }
          ]
        }
      }
    },
    {
      "fullUrl": "urn:uuid:45ede4a7-a4a8-4916-a8de-cd8b939fd4b7",
      "resource": {
        "resourceType": "Specimen",
        "id": "45ede4a7-a4a8-4916-a8de-cd8b939fd4b7",
        "meta": {
          "profile": [
            "http://hl7.eu/fhir/laboratory/StructureDefinition/Specimen-eu-lab"
          ]
        },
        "collection": {
          "collectedDateTime": "2017-05-22"
        },
        "text": {
          "status": "generated",
          "div": "<div xmlns=\"http://www.w3.org/1999/xhtml\"><table class=\"hl7__eu__lab__report\"><tr><th>Specimen</th><th>Collection Date</th></tr><tr><td>Acellular blood (serum or plasma) specimen</td><td><span class=\"nb\">22-May-2017</span></td></tr></table></div>"
        },
        "type": {
          "coding": [
            {
              "code": "122592007",
              "system": "http://snomed.info/sct",
              "display": "Acellular blood (serum or plasma) specimen"
            }
          ]
        }
      }
    },
    {
      "fullUrl": "urn:uuid:2ec93265-80bc-4950-8c93-79aa6bf8ac5d",
      "resource": {
        "resourceType": "Specimen",
        "id": "2ec93265-80bc-4950-8c93-79aa6bf8ac5d",
        "meta": {
          "profile": [
            "http://hl7.eu/fhir/laboratory/StructureDefinition/Specimen-eu-lab"
          ]
        },
        "collection": {
          "collectedDateTime": "2017-05-22"
        },
        "text": {
          "status": "generated",
          "div": "<div xmlns=\"http://www.w3.org/1999/xhtml\"><table class=\"hl7__eu__lab__report\"><tr><th>Specimen</th><th>Collection Date</th></tr><tr><td>Platelet poor plasma specimen</td><td><span class=\"nb\">22-May-2017</span></td></tr></table></div>"
        },
        "type": {
          "coding": [
            {
              "code": "119362004",
              "system": "http://snomed.info/sct",
              "display": "Platelet poor plasma specimen"
            }
          ]
        }
      }
    },
    {
      "fullUrl": "urn:uuid:700538d7-6ab4-473f-ab54-0dd05cbc1331",
      "resource": {
        "resourceType": "Specimen",
        "id": "700538d7-6ab4-473f-ab54-0dd05cbc1331",
        "meta": {
          "profile": [
            "http://hl7.eu/fhir/laboratory/StructureDefinition/Specimen-eu-lab"
          ]
        },
        "collection": {
          "collectedDateTime": "2017-05-22"
        },
        "text": {
          "status": "generated",
          "div": "<div xmlns=\"http://www.w3.org/1999/xhtml\"><table class=\"hl7__eu__lab__report\"><tr><th>Specimen</th><th>Collection Date</th></tr><tr><td>Arterial blood specimen</td><td><span class=\"nb\">22-May-2017</span></td></tr></table></div>"
        },
        "type": {
          "coding": [
            {
              "code": "122552005",
              "system": "http://snomed.info/sct",
              "display": "Arterial blood specimen"
            }
          ]
        }
      }
    },
    {
      "fullUrl": "urn:uuid:74b4663e-e250-4bcf-94ef-ca86660c2a07",
      "resource": {
        "resourceType": "Observation",
        "id": "74b4663e-e250-4bcf-94ef-ca86660c2a07",
        "meta": {
          "profile": [
            "http://hl7.eu/fhir/laboratory/StructureDefinition/Observation-resultslab-eu-lab"
          ]
        },
        "performer": [
          {
            "display": "The Central European Lab"
          }
        ],
        "category": [
          {
            "coding": [
              {
                "system": "http://terminology.hl7.org/CodeSystem/observation-category",
                "code": "laboratory"
              }
            ]
          }
        ],
        "code": {
          "coding": [
            {
              "code": "6690-2",
              "system": "http://loinc.org",
              "display": "Leukocytes [#/volume] in Blood by Automated count"
            }
          ],
          "text": "Leukocytes [#/volume] in Blood by Automated count"
        },
        "valueQuantity": {
          "system": "http://unitsofmeasure.org",
          "value": 6.7,
          "unit": "10*3/uL",
          "code": "10*3/uL"
        },
        "referenceRange": [
          {
            "low": {
              "value": 4,
              "code": "10*3/uL",
              "system": "http://unitsofmeasure.org"
            }
          },
          {
            "high": {
              "value": 11,
              "code": "10*3/uL",
              "system": "http://unitsofmeasure.org"
            }
          }
        ],
        "text": {
          "status": "generated",
          "div": "<div xmlns=\"http://www.w3.org/1999/xhtml\"><table class=\"hl7__eu__lab__report\"><tr><th>Test</th><th>22-May-2017</th><th>Reference&#xA0;Range</th><th>Unit</th></tr><tr><td>Leukocytes [#/volume] in Blood by Automated count</td><td>6.7</td><td>4 - 11</td><td></td><td>10*3/uL</td></tr></table></div>"
        },
        "status": "final",
        "subject": {
          "reference": "urn:uuid:e84c9a59-6ed6-4d36-8bf1-fa81f84d58f5",
          "display": "Aniela Prażmo"
        },
        "effectiveDateTime": "2017-05-22T05:14:47Z",
        "specimen": {
          "reference": "urn:uuid:fa9212fb-2027-4488-a3c5-4d234f0a77b3"
        }
      }
    },
    {
      "fullUrl": "urn:uuid:1b7b7916-936c-444f-b146-924ac18c94f0",
      "resource": {
        "resourceType": "Observation",
        "id": "1b7b7916-936c-444f-b146-924ac18c94f0",
        "meta": {
          "profile": [
            "http://hl7.eu/fhir/laboratory/StructureDefinition/Observation-resultslab-eu-lab"
          ]
        },
        "performer": [
          {
            "display": "The Central European Lab"
          }
        ],
        "category": [
          {
            "coding": [
              {
                "system": "http://terminology.hl7.org/CodeSystem/observation-category",
                "code": "laboratory"
              }
            ]
          }
        ],
        "code": {
          "coding": [
            {
              "code": "789-8",
              "system": "http://loinc.org",
              "display": "Erythrocytes [#/volume] in Blood by Automated count"
            }
          ],
          "text": "Erythrocytes [#/volume] in Blood by Automated count"
        },
        "valueQuantity": {
          "system": "http://unitsofmeasure.org",
          "value": 5.3,
          "unit": "10*6/uL",
          "code": "10*6/uL"
        },
        "referenceRange": [
          {
            "low": {
              "value": 3.8,
              "code": "10*6/uL",
              "system": "http://unitsofmeasure.org"
            }
          },
          {
            "high": {
              "value": 5.7,
              "code": "10*6/uL",
              "system": "http://unitsofmeasure.org"
            }
          }
        ],
        "text": {
          "status": "generated",
          "div": "<div xmlns=\"http://www.w3.org/1999/xhtml\"><table class=\"hl7__eu__lab__report\"><tr><th>Test</th><th>22-May-2017</th><th>Reference&#xA0;Range</th><th>Unit</th></tr><tr><td>Erythrocytes [#/volume] in Blood by Automated count</td><td>5.3</td><td>3.8 - 5.7</td><td></td><td>10*6/uL</td></tr></table></div>"
        },
        "status": "final",
        "subject": {
          "reference": "urn:uuid:e84c9a59-6ed6-4d36-8bf1-fa81f84d58f5",
          "display": "Aniela Prażmo"
        },
        "effectiveDateTime": "2017-05-22T05:14:47Z",
        "specimen": {
          "reference": "urn:uuid:fa9212fb-2027-4488-a3c5-4d234f0a77b3"
        }
      }
    },
    {
      "fullUrl": "urn:uuid:919d173a-13d4-46b0-ba07-bea6fc4b6379",
      "resource": {
        "resourceType": "Observation",
        "id": "919d173a-13d4-46b0-ba07-bea6fc4b6379",
        "meta": {
          "profile": [
            "http://hl7.eu/fhir/laboratory/StructureDefinition/Observation-resultslab-eu-lab"
          ]
        },
        "performer": [
          {
            "display": "The Central European Lab"
          }
        ],
        "category": [
          {
            "coding": [
              {
                "system": "http://terminology.hl7.org/CodeSystem/observation-category",
                "code": "laboratory"
              }
            ]
          }
        ],
        "code": {
          "coding": [
            {
              "code": "718-7",
              "system": "http://loinc.org",
              "display": "Hemoglobin [Mass/volume] in Blood"
            }
          ],
          "text": "Hemoglobin [Mass/volume] in Blood"
        },
        "valueQuantity": {
          "system": "http://unitsofmeasure.org",
          "value": 14.7,
          "unit": "g/dL",
          "code": "g/dL"
        },
        "referenceRange": [
          {
            "low": {
              "value": 12,
              "code": "g/dL",
              "system": "http://unitsofmeasure.org"
            }
          },
          {
            "high": {
              "value": 16,
              "code": "g/dL",
              "system": "http://unitsofmeasure.org"
            }
          }
        ],
        "text": {
          "status": "generated",
          "div": "<div xmlns=\"http://www.w3.org/1999/xhtml\"><table class=\"hl7__eu__lab__report\"><tr><th>Test</th><th>22-May-2017</th><th>Reference&#xA0;Range</th><th>Unit</th></tr><tr><td>Hemoglobin [Mass/volume] in Blood</td><td>14.7</td><td>12 - 16</td><td></td><td>g/dL</td></tr></table></div>"
        },
        "status": "final",
        "subject": {
          "reference": "urn:uuid:e84c9a59-6ed6-4d36-8bf1-fa81f84d58f5",
          "display": "Aniela Prażmo"
        },
        "effectiveDateTime": "2017-05-22T05:14:47Z",
        "specimen": {
          "reference": "urn:uuid:fa9212fb-2027-4488-a3c5-4d234f0a77b3"
        }
      }
    },
    {
      "fullUrl": "urn:uuid:5a89d121-a787-494e-b201-f0b0f75c606a",
      "resource": {
        "resourceType": "Observation",
        "id": "5a89d121-a787-494e-b201-f0b0f75c606a",
        "meta": {
          "profile": [
            "http://hl7.eu/fhir/laboratory/StructureDefinition/Observation-resultslab-eu-lab"
          ]
        },
        "performer": [
          {
            "display": "The Central European Lab"
          }
        ],
        "category": [
          {
            "coding": [
              {
                "system": "http://terminology.hl7.org/CodeSystem/observation-category",
                "code": "laboratory"
              }
            ]
          }
        ],
        "code": {
          "coding": [
            {
              "code": "4544-3",
              "system": "http://loinc.org",
              "display": "Hematocrit [Volume Fraction] of Blood by Automated count"
            }
          ],
          "text": "Hematocrit [Volume Fraction] of Blood by Automated count"
        },
        "valueQuantity": {
          "system": "http://unitsofmeasure.org",
          "value": 36,
          "unit": "%",
          "code": "%"
        },
        "referenceRange": [
          {
            "low": {
              "value": 38,
              "code": "%",
              "system": "http://unitsofmeasure.org"
            }
          },
          {
            "high": {
              "value": 56,
              "code": "%",
              "system": "http://unitsofmeasure.org"
            }
          }
        ],
        "interpretation": [
          {
            "coding": [
              {
                "code": "L",
                "system": "http://terminology.hl7.org/CodeSystem/v3-ObservationInterpretation",
                "display": "Low"
              }
            ]
          }
        ],
        "text": {
          "status": "generated",
          "div": "<div xmlns=\"http://www.w3.org/1999/xhtml\"><table class=\"hl7__eu__lab__report\"><tr><th>Test</th><th>22-May-2017</th><th>Reference&#xA0;Range</th><th>Unit</th></tr><tr><td>Hematocrit [Volume Fraction] of Blood by Automated count</td><td>36.0</td><td>38 - 56</td><td>L</td><td>%</td></tr></table></div>"
        },
        "status": "final",
        "subject": {
          "reference": "urn:uuid:e84c9a59-6ed6-4d36-8bf1-fa81f84d58f5",
          "display": "Aniela Prażmo"
        },
        "effectiveDateTime": "2017-05-22T05:14:47Z",
        "specimen": {
          "reference": "urn:uuid:fa9212fb-2027-4488-a3c5-4d234f0a77b3"
        }
      }
    },
    {
      "fullUrl": "urn:uuid:54b05d39-0f78-4603-b665-d4b4511e8b5d",
      "resource": {
        "resourceType": "Observation",
        "id": "54b05d39-0f78-4603-b665-d4b4511e8b5d",
        "meta": {
          "profile": [
            "http://hl7.eu/fhir/laboratory/StructureDefinition/Observation-resultslab-eu-lab"
          ]
        },
        "performer": [
          {
            "display": "The Central European Lab"
          }
        ],
        "category": [
          {
            "coding": [
              {
                "system": "http://terminology.hl7.org/CodeSystem/observation-category",
                "code": "laboratory"
              }
            ]
          }
        ],
        "code": {
          "coding": [
            {
              "code": "787-2",
              "system": "http://loinc.org",
              "display": "MCV [Entitic volume] by Automated count"
            }
          ],
          "text": "MCV [Entitic volume] by Automated count"
        },
        "valueQuantity": {
          "system": "http://unitsofmeasure.org",
          "value": 83.8,
          "unit": "fL",
          "code": "fL"
        },
        "referenceRange": [
          {
            "low": {
              "value": 78,
              "code": "fL",
              "system": "http://unitsofmeasure.org"
            }
          },
          {
            "high": {
              "value": 98,
              "code": "fL",
              "system": "http://unitsofmeasure.org"
            }
          }
        ],
        "text": {
          "status": "generated",
          "div": "<div xmlns=\"http://www.w3.org/1999/xhtml\"><table class=\"hl7__eu__lab__report\"><tr><th>Test</th><th>22-May-2017</th><th>Reference&#xA0;Range</th><th>Unit</th></tr><tr><td>MCV [Entitic volume] by Automated count</td><td>83.8</td><td>78 - 98</td><td></td><td>fL</td></tr></table></div>"
        },
        "status": "final",
        "subject": {
          "reference": "urn:uuid:e84c9a59-6ed6-4d36-8bf1-fa81f84d58f5",
          "display": "Aniela Prażmo"
        },
        "effectiveDateTime": "2017-05-22T05:14:47Z",
        "specimen": {
          "reference": "urn:uuid:fa9212fb-2027-4488-a3c5-4d234f0a77b3"
        }
      }
    },
    {
      "fullUrl": "urn:uuid:c65a3dcd-5ff6-4db4-ba22-eb8e68b4136e",
      "resource": {
        "resourceType": "Observation",
        "id": "c65a3dcd-5ff6-4db4-ba22-eb8e68b4136e",
        "meta": {
          "profile": [
            "http://hl7.eu/fhir/laboratory/StructureDefinition/Observation-resultslab-eu-lab"
          ]
        },
        "performer": [
          {
            "display": "The Central European Lab"
          }
        ],
        "category": [
          {
            "coding": [
              {
                "system": "http://terminology.hl7.org/CodeSystem/observation-category",
                "code": "laboratory"
              }
            ]
          }
        ],
        "code": {
          "coding": [
            {
              "code": "785-6",
              "system": "http://loinc.org",
              "display": "MCH [Entitic mass] by Automated count"
            }
          ],
          "text": "MCH [Entitic mass] by Automated count"
        },
        "valueQuantity": {
          "system": "http://unitsofmeasure.org",
          "value": 31.1,
          "unit": "pg",
          "code": "pg"
        },
        "referenceRange": [
          {
            "low": {
              "value": 27,
              "code": "pg",
              "system": "http://unitsofmeasure.org"
            }
          },
          {
            "high": {
              "value": 34,
              "code": "pg",
              "system": "http://unitsofmeasure.org"
            }
          }
        ],
        "text": {
          "status": "generated",
          "div": "<div xmlns=\"http://www.w3.org/1999/xhtml\"><table class=\"hl7__eu__lab__report\"><tr><th>Test</th><th>22-May-2017</th><th>Reference&#xA0;Range</th><th>Unit</th></tr><tr><td>MCH [Entitic mass] by Automated count</td><td>31.1</td><td>27 - 34</td><td></td><td>pg</td></tr></table></div>"
        },
        "status": "final",
        "subject": {
          "reference": "urn:uuid:e84c9a59-6ed6-4d36-8bf1-fa81f84d58f5",
          "display": "Aniela Prażmo"
        },
        "effectiveDateTime": "2017-05-22T05:14:47Z",
        "specimen": {
          "reference": "urn:uuid:fa9212fb-2027-4488-a3c5-4d234f0a77b3"
        }
      }
    },
    {
      "fullUrl": "urn:uuid:5cd42ee1-e3ab-476e-aef2-b5f8ec4e2f04",
      "resource": {
        "resourceType": "Observation",
        "id": "5cd42ee1-e3ab-476e-aef2-b5f8ec4e2f04",
        "meta": {
          "profile": [
            "http://hl7.eu/fhir/laboratory/StructureDefinition/Observation-resultslab-eu-lab"
          ]
        },
        "performer": [
          {
            "display": "The Central European Lab"
          }
        ],
        "category": [
          {
            "coding": [
              {
                "system": "http://terminology.hl7.org/CodeSystem/observation-category",
                "code": "laboratory"
              }
            ]
          }
        ],
        "code": {
          "coding": [
            {
              "code": "786-4",
              "system": "http://loinc.org",
              "display": "MCHC [Mass/volume] by Automated count"
            }
          ],
          "text": "MCHC [Mass/volume] by Automated count"
        },
        "valueQuantity": {
          "system": "http://unitsofmeasure.org",
          "value": 35.2,
          "unit": "g/dL",
          "code": "g/dL"
        },
        "referenceRange": [
          {
            "low": {
              "value": 32,
              "code": "g/dL",
              "system": "http://unitsofmeasure.org"
            }
          },
          {
            "high": {
              "value": 35,
              "code": "g/dL",
              "system": "http://unitsofmeasure.org"
            }
          }
        ],
        "interpretation": [
          {
            "coding": [
              {
                "code": "H",
                "system": "http://terminology.hl7.org/CodeSystem/v3-ObservationInterpretation",
                "display": "High"
              }
            ]
          }
        ],
        "text": {
          "status": "generated",
          "div": "<div xmlns=\"http://www.w3.org/1999/xhtml\"><table class=\"hl7__eu__lab__report\"><tr><th>Test</th><th>22-May-2017</th><th>Reference&#xA0;Range</th><th>Unit</th></tr><tr><td>MCHC [Mass/volume] by Automated count</td><td>35.2</td><td>32 - 35</td><td>H</td><td>g/dL</td></tr></table></div>"
        },
        "status": "final",
        "subject": {
          "reference": "urn:uuid:e84c9a59-6ed6-4d36-8bf1-fa81f84d58f5",
          "display": "Aniela Prażmo"
        },
        "effectiveDateTime": "2017-05-22T05:14:47Z",
        "specimen": {
          "reference": "urn:uuid:fa9212fb-2027-4488-a3c5-4d234f0a77b3"
        }
      }
    },
    {
      "fullUrl": "urn:uuid:c68df1d7-a075-4248-a3c5-649a3dca0c2a",
      "resource": {
        "resourceType": "Observation",
        "id": "c68df1d7-a075-4248-a3c5-649a3dca0c2a",
        "meta": {
          "profile": [
            "http://hl7.eu/fhir/laboratory/StructureDefinition/Observation-resultslab-eu-lab"
          ]
        },
        "performer": [
          {
            "display": "The Central European Lab"
          }
        ],
        "category": [
          {
            "coding": [
              {
                "system": "http://terminology.hl7.org/CodeSystem/observation-category",
                "code": "laboratory"
              }
            ]
          }
        ],
        "code": {
          "coding": [
            {
              "code": "788-0",
              "system": "http://loinc.org",
              "display": "Erythrocyte distribution width [Ratio] by Automated count"
            }
          ],
          "text": "Erythrocyte distribution width [Ratio] by Automated count"
        },
        "valueQuantity": {
          "system": "http://unitsofmeasure.org",
          "value": 14.8,
          "unit": "%",
          "code": "%"
        },
        "referenceRange": [
          {
            "low": {
              "value": 11.6,
              "code": "%",
              "system": "http://unitsofmeasure.org"
            }
          },
          {
            "high": {
              "value": 16.5,
              "code": "%",
              "system": "http://unitsofmeasure.org"
            }
          }
        ],
        "text": {
          "status": "generated",
          "div": "<div xmlns=\"http://www.w3.org/1999/xhtml\"><table class=\"hl7__eu__lab__report\"><tr><th>Test</th><th>22-May-2017</th><th>Reference&#xA0;Range</th><th>Unit</th></tr><tr><td>Erythrocyte distribution width [Ratio] by Automated count</td><td>14.8</td><td>11.6 - 16.5</td><td></td><td>%</td></tr></table></div>"
        },
        "status": "final",
        "subject": {
          "reference": "urn:uuid:e84c9a59-6ed6-4d36-8bf1-fa81f84d58f5",
          "display": "Aniela Prażmo"
        },
        "effectiveDateTime": "2017-05-22T05:14:47Z",
        "specimen": {
          "reference": "urn:uuid:fa9212fb-2027-4488-a3c5-4d234f0a77b3"
        }
      }
    },
    {
      "fullUrl": "urn:uuid:4eeaaf4c-fd9a-4728-8f07-3226d5760c32",
      "resource": {
        "resourceType": "Observation",
        "id": "4eeaaf4c-fd9a-4728-8f07-3226d5760c32",
        "meta": {
          "profile": [
            "http://hl7.eu/fhir/laboratory/StructureDefinition/Observation-resultslab-eu-lab"
          ]
        },
        "performer": [
          {
            "display": "The Central European Lab"
          }
        ],
        "category": [
          {
            "coding": [
              {
                "system": "http://terminology.hl7.org/CodeSystem/observation-category",
                "code": "laboratory"
              }
            ]
          }
        ],
        "code": {
          "coding": [
            {
              "code": "777-3",
              "system": "http://loinc.org",
              "display": "Platelets [#/volume] in Blood by Automated count"
            }
          ],
          "text": "Platelets [#/volume] in Blood by Automated count"
        },
        "valueQuantity": {
          "system": "http://unitsofmeasure.org",
          "value": 406.2,
          "unit": "10*3/uL",
          "code": "10*3/uL"
        },
        "referenceRange": [
          {
            "low": {
              "value": 157,
              "code": "10*3/uL",
              "system": "http://unitsofmeasure.org"
            }
          },
          {
            "high": {
              "value": 415,
              "code": "10*3/uL",
              "system": "http://unitsofmeasure.org"
            }
          }
        ],
        "text": {
          "status": "generated",
          "div": "<div xmlns=\"http://www.w3.org/1999/xhtml\"><table class=\"hl7__eu__lab__report\"><tr><th>Test</th><th>22-May-2017</th><th>Reference&#xA0;Range</th><th>Unit</th></tr><tr><td>Platelets [#/volume] in Blood by Automated count</td><td>406.2</td><td>157 - 415</td><td></td><td>10*3/uL</td></tr></table></div>"
        },
        "status": "final",
        "subject": {
          "reference": "urn:uuid:e84c9a59-6ed6-4d36-8bf1-fa81f84d58f5",
          "display": "Aniela Prażmo"
        },
        "effectiveDateTime": "2017-05-22T05:14:47Z",
        "specimen": {
          "reference": "urn:uuid:fa9212fb-2027-4488-a3c5-4d234f0a77b3"
        }
      }
    },
    {
      "fullUrl": "urn:uuid:81daeaca-9b07-4d65-aeeb-906b3ab71133",
      "resource": {
        "resourceType": "Observation",
        "id": "81daeaca-9b07-4d65-aeeb-906b3ab71133",
        "meta": {
          "profile": [
            "http://hl7.eu/fhir/laboratory/StructureDefinition/Observation-resultslab-eu-lab"
          ]
        },
        "performer": [
          {
            "display": "The Central European Lab"
          }
        ],
        "category": [
          {
            "coding": [
              {
                "system": "http://terminology.hl7.org/CodeSystem/observation-category",
                "code": "laboratory"
              }
            ]
          }
        ],
        "code": {
          "coding": [
            {
              "code": "2345-7",
              "system": "http://loinc.org",
              "display": "Glucose [Mass/volume] in Serum or Plasma"
            }
          ],
          "text": "Glucose [Mass/volume] in Serum or Plasma"
        },
        "valueQuantity": {
          "system": "http://unitsofmeasure.org",
          "value": 71.5,
          "unit": "mg/dL",
          "code": "mg/dL"
        },
        "referenceRange": [
          {
            "low": {
              "value": 70,
              "code": "mg/dL",
              "system": "http://unitsofmeasure.org"
            }
          },
          {
            "high": {
              "value": 99,
              "code": "mg/dL",
              "system": "http://unitsofmeasure.org"
            }
          }
        ],
        "text": {
          "status": "generated",
          "div": "<div xmlns=\"http://www.w3.org/1999/xhtml\"><table class=\"hl7__eu__lab__report\"><tr><th>Test</th><th>22-May-2017</th><th>Reference&#xA0;Range</th><th>Unit</th></tr><tr><td>Glucose [Mass/volume] in Serum or Plasma</td><td>71.5</td><td>70 - 99</td><td></td><td>mg/dL</td></tr></table></div>"
        },
        "status": "final",
        "subject": {
          "reference": "urn:uuid:e84c9a59-6ed6-4d36-8bf1-fa81f84d58f5",
          "display": "Aniela Prażmo"
        },
        "effectiveDateTime": "2017-05-22T05:14:47Z",
        "specimen": {
          "reference": "urn:uuid:45ede4a7-a4a8-4916-a8de-cd8b939fd4b7"
        }
      }
    },
    {
      "fullUrl": "urn:uuid:b327d383-5fc8-4656-8ccc-414c677b3b3f",
      "resource": {
        "resourceType": "Observation",
        "id": "b327d383-5fc8-4656-8ccc-414c677b3b3f",
        "meta": {
          "profile": [
            "http://hl7.eu/fhir/laboratory/StructureDefinition/Observation-resultslab-eu-lab"
          ]
        },
        "performer": [
          {
            "display": "The Central European Lab"
          }
        ],
        "category": [
          {
            "coding": [
              {
                "system": "http://terminology.hl7.org/CodeSystem/observation-category",
                "code": "laboratory"
              }
            ]
          }
        ],
        "code": {
          "coding": [
            {
              "code": "3094-0",
              "system": "http://loinc.org",
              "display": "Urea nitrogen [Mass/volume] in Serum or Plasma"
            }
          ],
          "text": "Urea nitrogen [Mass/volume] in Serum or Plasma"
        },
        "valueQuantity": {
          "system": "http://unitsofmeasure.org",
          "value": 7.8,
          "unit": "mg/dL",
          "code": "mg/dL"
        },
        "referenceRange": [
          {
            "low": {
              "value": 7,
              "code": "mg/dL",
              "system": "http://unitsofmeasure.org"
            }
          },
          {
            "high": {
              "value": 20,
              "code": "mg/dL",
              "system": "http://unitsofmeasure.org"
            }
          }
        ],
        "text": {
          "status": "generated",
          "div": "<div xmlns=\"http://www.w3.org/1999/xhtml\"><table class=\"hl7__eu__lab__report\"><tr><th>Test</th><th>22-May-2017</th><th>Reference&#xA0;Range</th><th>Unit</th></tr><tr><td>Urea nitrogen [Mass/volume] in Serum or Plasma</td><td>7.8</td><td>7 - 20</td><td></td><td>mg/dL</td></tr></table></div>"
        },
        "status": "final",
        "subject": {
          "reference": "urn:uuid:e84c9a59-6ed6-4d36-8bf1-fa81f84d58f5",
          "display": "Aniela Prażmo"
        },
        "effectiveDateTime": "2017-05-22T05:14:47Z",
        "specimen": {
          "reference": "urn:uuid:45ede4a7-a4a8-4916-a8de-cd8b939fd4b7"
        }
      }
    },
    {
      "fullUrl": "urn:uuid:85738265-658d-4bee-b0d5-c73d46a8213b",
      "resource": {
        "resourceType": "Observation",
        "id": "85738265-658d-4bee-b0d5-c73d46a8213b",
        "meta": {
          "profile": [
            "http://hl7.eu/fhir/laboratory/StructureDefinition/Observation-resultslab-eu-lab"
          ]
        },
        "performer": [
          {
            "display": "The Central European Lab"
          }
        ],
        "category": [
          {
            "coding": [
              {
                "system": "http://terminology.hl7.org/CodeSystem/observation-category",
                "code": "laboratory"
              }
            ]
          }
        ],
        "code": {
          "coding": [
            {
              "code": "2160-0",
              "system": "http://loinc.org",
              "display": "Creatinine [Mass/volume] in Serum or Plasma"
            }
          ],
          "text": "Creatinine [Mass/volume] in Serum or Plasma"
        },
        "valueQuantity": {
          "system": "http://unitsofmeasure.org",
          "value": 2.6,
          "unit": "mg/dL",
          "code": "mg/dL"
        },
        "referenceRange": [
          {
            "low": {
              "value": 0.6,
              "code": "mg/dL",
              "system": "http://unitsofmeasure.org"
            }
          },
          {
            "high": {
              "value": 1.3,
              "code": "mg/dL",
              "system": "http://unitsofmeasure.org"
            }
          }
        ],
        "interpretation": [
          {
            "coding": [
              {
                "code": "H",
                "system": "http://terminology.hl7.org/CodeSystem/v3-ObservationInterpretation",
                "display": "High"
              }
            ]
          }
        ],
        "text": {
          "status": "generated",
          "div": "<div xmlns=\"http://www.w3.org/1999/xhtml\"><table class=\"hl7__eu__lab__report\"><tr><th>Test</th><th>22-May-2017</th><th>Reference&#xA0;Range</th><th>Unit</th></tr><tr><td>Creatinine [Mass/volume] in Serum or Plasma</td><td>2.6</td><td>0.6 - 1.3</td><td>H</td><td>mg/dL</td></tr></table></div>"
        },
        "status": "final",
        "subject": {
          "reference": "urn:uuid:e84c9a59-6ed6-4d36-8bf1-fa81f84d58f5",
          "display": "Aniela Prażmo"
        },
        "effectiveDateTime": "2017-05-22T05:14:47Z",
        "specimen": {
          "reference": "urn:uuid:45ede4a7-a4a8-4916-a8de-cd8b939fd4b7"
        }
      }
    },
    {
      "fullUrl": "urn:uuid:e123c29c-3ec0-46a8-8294-52593973c5cf",
      "resource": {
        "resourceType": "Observation",
        "id": "e123c29c-3ec0-46a8-8294-52593973c5cf",
        "meta": {
          "profile": [
            "http://hl7.eu/fhir/laboratory/StructureDefinition/Observation-resultslab-eu-lab"
          ]
        },
        "performer": [
          {
            "display": "The Central European Lab"
          }
        ],
        "category": [
          {
            "coding": [
              {
                "system": "http://terminology.hl7.org/CodeSystem/observation-category",
                "code": "laboratory"
              }
            ]
          }
        ],
        "code": {
          "coding": [
            {
              "code": "17861-6",
              "system": "http://loinc.org",
              "display": "Calcium [Mass/volume] in Serum or Plasma"
            }
          ],
          "text": "Calcium [Mass/volume] in Serum or Plasma"
        },
        "valueQuantity": {
          "system": "http://unitsofmeasure.org",
          "value": 9.7,
          "unit": "mg/dL",
          "code": "mg/dL"
        },
        "referenceRange": [
          {
            "low": {
              "value": 8.5,
              "code": "mg/dL",
              "system": "http://unitsofmeasure.org"
            }
          },
          {
            "high": {
              "value": 10.4,
              "code": "mg/dL",
              "system": "http://unitsofmeasure.org"
            }
          }
        ],
        "text": {
          "status": "generated",
          "div": "<div xmlns=\"http://www.w3.org/1999/xhtml\"><table class=\"hl7__eu__lab__report\"><tr><th>Test</th><th>22-May-2017</th><th>Reference&#xA0;Range</th><th>Unit</th></tr><tr><td>Calcium [Mass/volume] in Serum or Plasma</td><td>9.7</td><td>8.5 - 10.4</td><td></td><td>mg/dL</td></tr></table></div>"
        },
        "status": "final",
        "subject": {
          "reference": "urn:uuid:e84c9a59-6ed6-4d36-8bf1-fa81f84d58f5",
          "display": "Aniela Prażmo"
        },
        "effectiveDateTime": "2017-05-22T05:14:47Z",
        "specimen": {
          "reference": "urn:uuid:45ede4a7-a4a8-4916-a8de-cd8b939fd4b7"
        }
      }
    },
    {
      "fullUrl": "urn:uuid:b0a51eff-b3bd-4e4b-990f-d05569509ee6",
      "resource": {
        "resourceType": "Observation",
        "id": "b0a51eff-b3bd-4e4b-990f-d05569509ee6",
        "meta": {
          "profile": [
            "http://hl7.eu/fhir/laboratory/StructureDefinition/Observation-resultslab-eu-lab"
          ]
        },
        "performer": [
          {
            "display": "The Central European Lab"
          }
        ],
        "category": [
          {
            "coding": [
              {
                "system": "http://terminology.hl7.org/CodeSystem/observation-category",
                "code": "laboratory"
              }
            ]
          }
        ],
        "code": {
          "coding": [
            {
              "code": "2951-2",
              "system": "http://loinc.org",
              "display": "Sodium [Moles/volume] in Serum or Plasma"
            }
          ],
          "text": "Sodium [Moles/volume] in Serum or Plasma"
        },
        "valueQuantity": {
          "system": "http://unitsofmeasure.org",
          "value": 136.6,
          "unit": "mmol/L",
          "code": "mmol/L"
        },
        "referenceRange": [
          {
            "low": {
              "value": 135,
              "code": "mmol/L",
              "system": "http://unitsofmeasure.org"
            }
          },
          {
            "high": {
              "value": 145,
              "code": "mmol/L",
              "system": "http://unitsofmeasure.org"
            }
          }
        ],
        "text": {
          "status": "generated",
          "div": "<div xmlns=\"http://www.w3.org/1999/xhtml\"><table class=\"hl7__eu__lab__report\"><tr><th>Test</th><th>22-May-2017</th><th>Reference&#xA0;Range</th><th>Unit</th></tr><tr><td>Sodium [Moles/volume] in Serum or Plasma</td><td>136.6</td><td>135 - 145</td><td></td><td>mmol/L</td></tr></table></div>"
        },
        "status": "final",
        "subject": {
          "reference": "urn:uuid:e84c9a59-6ed6-4d36-8bf1-fa81f84d58f5",
          "display": "Aniela Prażmo"
        },
        "effectiveDateTime": "2017-05-22T05:14:47Z",
        "specimen": {
          "reference": "urn:uuid:45ede4a7-a4a8-4916-a8de-cd8b939fd4b7"
        }
      }
    },
    {
      "fullUrl": "urn:uuid:ea03b851-3725-4bf0-a39c-b4606833eb4e",
      "resource": {
        "resourceType": "Observation",
        "id": "ea03b851-3725-4bf0-a39c-b4606833eb4e",
        "meta": {
          "profile": [
            "http://hl7.eu/fhir/laboratory/StructureDefinition/Observation-resultslab-eu-lab"
          ]
        },
        "performer": [
          {
            "display": "The Central European Lab"
          }
        ],
        "category": [
          {
            "coding": [
              {
                "system": "http://terminology.hl7.org/CodeSystem/observation-category",
                "code": "laboratory"
              }
            ]
          }
        ],
        "code": {
          "coding": [
            {
              "code": "2823-3",
              "system": "http://loinc.org",
              "display": "Potassium [Moles/volume] in Serum or Plasma"
            }
          ],
          "text": "Potassium [Moles/volume] in Serum or Plasma"
        },
        "valueQuantity": {
          "system": "http://unitsofmeasure.org",
          "value": 4.3,
          "unit": "mmol/L",
          "code": "mmol/L"
        },
        "referenceRange": [
          {
            "low": {
              "value": 3.5,
              "code": "mmol/L",
              "system": "http://unitsofmeasure.org"
            }
          },
          {
            "high": {
              "value": 5.1,
              "code": "mmol/L",
              "system": "http://unitsofmeasure.org"
            }
          }
        ],
        "text": {
          "status": "generated",
          "div": "<div xmlns=\"http://www.w3.org/1999/xhtml\"><table class=\"hl7__eu__lab__report\"><tr><th>Test</th><th>22-May-2017</th><th>Reference&#xA0;Range</th><th>Unit</th></tr><tr><td>Potassium [Moles/volume] in Serum or Plasma</td><td>4.3</td><td>3.5 - 5.1</td><td></td><td>mmol/L</td></tr></table></div>"
        },
        "status": "final",
        "subject": {
          "reference": "urn:uuid:e84c9a59-6ed6-4d36-8bf1-fa81f84d58f5",
          "display": "Aniela Prażmo"
        },
        "effectiveDateTime": "2017-05-22T05:14:47Z",
        "specimen": {
          "reference": "urn:uuid:45ede4a7-a4a8-4916-a8de-cd8b939fd4b7"
        }
      }
    },
    {
      "fullUrl": "urn:uuid:aca740ed-95f8-4d8d-a1d2-e4e8b041053b",
      "resource": {
        "resourceType": "Observation",
        "id": "aca740ed-95f8-4d8d-a1d2-e4e8b041053b",
        "meta": {
          "profile": [
            "http://hl7.eu/fhir/laboratory/StructureDefinition/Observation-resultslab-eu-lab"
          ]
        },
        "performer": [
          {
            "display": "The Central European Lab"
          }
        ],
        "category": [
          {
            "coding": [
              {
                "system": "http://terminology.hl7.org/CodeSystem/observation-category",
                "code": "laboratory"
              }
            ]
          }
        ],
        "code": {
          "coding": [
            {
              "code": "2075-0",
              "system": "http://loinc.org",
              "display": "Chloride [Moles/volume] in Serum or Plasma"
            }
          ],
          "text": "Chloride [Moles/volume] in Serum or Plasma"
        },
        "valueQuantity": {
          "system": "http://unitsofmeasure.org",
          "value": 105,
          "unit": "mmol/L",
          "code": "mmol/L"
        },
        "referenceRange": [
          {
            "low": {
              "value": 98,
              "code": "mmol/L",
              "system": "http://unitsofmeasure.org"
            }
          },
          {
            "high": {
              "value": 108,
              "code": "mmol/L",
              "system": "http://unitsofmeasure.org"
            }
          }
        ],
        "text": {
          "status": "generated",
          "div": "<div xmlns=\"http://www.w3.org/1999/xhtml\"><table class=\"hl7__eu__lab__report\"><tr><th>Test</th><th>22-May-2017</th><th>Reference&#xA0;Range</th><th>Unit</th></tr><tr><td>Chloride [Moles/volume] in Serum or Plasma</td><td>105.0</td><td>98 - 108</td><td></td><td>mmol/L</td></tr></table></div>"
        },
        "status": "final",
        "subject": {
          "reference": "urn:uuid:e84c9a59-6ed6-4d36-8bf1-fa81f84d58f5",
          "display": "Aniela Prażmo"
        },
        "effectiveDateTime": "2017-05-22T05:14:47Z",
        "specimen": {
          "reference": "urn:uuid:45ede4a7-a4a8-4916-a8de-cd8b939fd4b7"
        }
      }
    },
    {
      "fullUrl": "urn:uuid:421b33d9-9150-424f-bed4-e3e35a609f31",
      "resource": {
        "resourceType": "Observation",
        "id": "421b33d9-9150-424f-bed4-e3e35a609f31",
        "meta": {
          "profile": [
            "http://hl7.eu/fhir/laboratory/StructureDefinition/Observation-resultslab-eu-lab"
          ]
        },
        "performer": [
          {
            "display": "The Central European Lab"
          }
        ],
        "category": [
          {
            "coding": [
              {
                "system": "http://terminology.hl7.org/CodeSystem/observation-category",
                "code": "laboratory"
              }
            ]
          }
        ],
        "code": {
          "coding": [
            {
              "code": "2028-9",
              "system": "http://loinc.org",
              "display": "Carbon dioxide, total [Moles/volume] in Serum or Plasma"
            }
          ],
          "text": "Carbon dioxide, total [Moles/volume] in Serum or Plasma"
        },
        "valueQuantity": {
          "system": "http://unitsofmeasure.org",
          "value": 23.3,
          "unit": "mmol/L",
          "code": "mmol/L"
        },
        "referenceRange": [
          {
            "low": {
              "value": 22,
              "code": "mmol/L",
              "system": "http://unitsofmeasure.org"
            }
          },
          {
            "high": {
              "value": 32,
              "code": "mmol/L",
              "system": "http://unitsofmeasure.org"
            }
          }
        ],
        "text": {
          "status": "generated",
          "div": "<div xmlns=\"http://www.w3.org/1999/xhtml\"><table class=\"hl7__eu__lab__report\"><tr><th>Test</th><th>22-May-2017</th><th>Reference&#xA0;Range</th><th>Unit</th></tr><tr><td>Carbon dioxide, total [Moles/volume] in Serum or Plasma</td><td>23.3</td><td>22 - 32</td><td></td><td>mmol/L</td></tr></table></div>"
        },
        "status": "final",
        "subject": {
          "reference": "urn:uuid:e84c9a59-6ed6-4d36-8bf1-fa81f84d58f5",
          "display": "Aniela Prażmo"
        },
        "effectiveDateTime": "2017-05-22T05:14:47Z",
        "specimen": {
          "reference": "urn:uuid:45ede4a7-a4a8-4916-a8de-cd8b939fd4b7"
        }
      }
    },
    {
      "fullUrl": "urn:uuid:92f48ce1-2235-4eaf-ba4c-b1d28887810c",
      "resource": {
        "resourceType": "Observation",
        "id": "92f48ce1-2235-4eaf-ba4c-b1d28887810c",
        "meta": {
          "profile": [
            "http://hl7.eu/fhir/laboratory/StructureDefinition/Observation-resultslab-eu-lab"
          ]
        },
        "performer": [
          {
            "display": "The Central European Lab"
          }
        ],
        "category": [
          {
            "coding": [
              {
                "system": "http://terminology.hl7.org/CodeSystem/observation-category",
                "code": "laboratory"
              }
            ]
          }
        ],
        "code": {
          "coding": [
            {
              "code": "2885-2",
              "system": "http://loinc.org",
              "display": "Protein [Mass/volume] in Serum or Plasma"
            }
          ],
          "text": "Protein [Mass/volume] in Serum or Plasma"
        },
        "valueQuantity": {
          "system": "http://unitsofmeasure.org",
          "value": 7.5,
          "unit": "g/dL",
          "code": "g/dL"
        },
        "referenceRange": [
          {
            "low": {
              "value": 6,
              "code": "g/dL",
              "system": "http://unitsofmeasure.org"
            }
          },
          {
            "high": {
              "value": 8.3,
              "code": "g/dL",
              "system": "http://unitsofmeasure.org"
            }
          }
        ],
        "text": {
          "status": "generated",
          "div": "<div xmlns=\"http://www.w3.org/1999/xhtml\"><table class=\"hl7__eu__lab__report\"><tr><th>Test</th><th>22-May-2017</th><th>Reference&#xA0;Range</th><th>Unit</th></tr><tr><td>Protein [Mass/volume] in Serum or Plasma</td><td>7.5</td><td>6 - 8.3</td><td></td><td>g/dL</td></tr></table></div>"
        },
        "status": "final",
        "subject": {
          "reference": "urn:uuid:e84c9a59-6ed6-4d36-8bf1-fa81f84d58f5",
          "display": "Aniela Prażmo"
        },
        "effectiveDateTime": "2017-05-22T05:14:47Z",
        "specimen": {
          "reference": "urn:uuid:45ede4a7-a4a8-4916-a8de-cd8b939fd4b7"
        }
      }
    },
    {
      "fullUrl": "urn:uuid:97e68325-e862-4478-8abf-062ec99a5178",
      "resource": {
        "resourceType": "Observation",
        "id": "97e68325-e862-4478-8abf-062ec99a5178",
        "meta": {
          "profile": [
            "http://hl7.eu/fhir/laboratory/StructureDefinition/Observation-resultslab-eu-lab"
          ]
        },
        "performer": [
          {
            "display": "The Central European Lab"
          }
        ],
        "category": [
          {
            "coding": [
              {
                "system": "http://terminology.hl7.org/CodeSystem/observation-category",
                "code": "laboratory"
              }
            ]
          }
        ],
        "code": {
          "coding": [
            {
              "code": "1751-7",
              "system": "http://loinc.org",
              "display": "Albumin [Mass/volume] in Serum or Plasma"
            }
          ],
          "text": "Albumin [Mass/volume] in Serum or Plasma"
        },
        "valueQuantity": {
          "system": "http://unitsofmeasure.org",
          "value": 4.3,
          "unit": "g/dL",
          "code": "g/dL"
        },
        "referenceRange": [
          {
            "low": {
              "value": 3.5,
              "code": "g/dL",
              "system": "http://unitsofmeasure.org"
            }
          },
          {
            "high": {
              "value": 5,
              "code": "g/dL",
              "system": "http://unitsofmeasure.org"
            }
          }
        ],
        "text": {
          "status": "generated",
          "div": "<div xmlns=\"http://www.w3.org/1999/xhtml\"><table class=\"hl7__eu__lab__report\"><tr><th>Test</th><th>22-May-2017</th><th>Reference&#xA0;Range</th><th>Unit</th></tr><tr><td>Albumin [Mass/volume] in Serum or Plasma</td><td>4.3</td><td>3.5 - 5</td><td></td><td>g/dL</td></tr></table></div>"
        },
        "status": "final",
        "subject": {
          "reference": "urn:uuid:e84c9a59-6ed6-4d36-8bf1-fa81f84d58f5",
          "display": "Aniela Prażmo"
        },
        "effectiveDateTime": "2017-05-22T05:14:47Z",
        "specimen": {
          "reference": "urn:uuid:45ede4a7-a4a8-4916-a8de-cd8b939fd4b7"
        }
      }
    },
    {
      "fullUrl": "urn:uuid:fd2ce412-3995-4f40-8c09-93ab4066455d",
      "resource": {
        "resourceType": "Observation",
        "id": "fd2ce412-3995-4f40-8c09-93ab4066455d",
        "meta": {
          "profile": [
            "http://hl7.eu/fhir/laboratory/StructureDefinition/Observation-resultslab-eu-lab"
          ]
        },
        "performer": [
          {
            "display": "The Central European Lab"
          }
        ],
        "category": [
          {
            "coding": [
              {
                "system": "http://terminology.hl7.org/CodeSystem/observation-category",
                "code": "laboratory"
              }
            ]
          }
        ],
        "code": {
          "coding": [
            {
              "code": "1975-2",
              "system": "http://loinc.org",
              "display": "Bilirubin.total [Mass/volume] in Serum or Plasma"
            }
          ],
          "text": "Bilirubin.total [Mass/volume] in Serum or Plasma"
        },
        "valueQuantity": {
          "system": "http://unitsofmeasure.org",
          "value": 10.7,
          "unit": "mg/dL",
          "code": "mg/dL"
        },
        "referenceRange": [
          {
            "low": {
              "value": 0.3,
              "code": "mg/dL",
              "system": "http://unitsofmeasure.org"
            }
          },
          {
            "high": {
              "value": 1.2,
              "code": "mg/dL",
              "system": "http://unitsofmeasure.org"
            }
          }
        ],
        "interpretation": [
          {
            "coding": [
              {
                "code": "H",
                "system": "http://terminology.hl7.org/CodeSystem/v3-ObservationInterpretation",
                "display": "High"
              }
            ]
          }
        ],
        "text": {
          "status": "generated",
          "div": "<div xmlns=\"http://www.w3.org/1999/xhtml\"><table class=\"hl7__eu__lab__report\"><tr><th>Test</th><th>22-May-2017</th><th>Reference&#xA0;Range</th><th>Unit</th></tr><tr><td>Bilirubin.total [Mass/volume] in Serum or Plasma</td><td>10.7</td><td>0.3 - 1.2</td><td>H</td><td>mg/dL</td></tr></table></div>"
        },
        "status": "final",
        "subject": {
          "reference": "urn:uuid:e84c9a59-6ed6-4d36-8bf1-fa81f84d58f5",
          "display": "Aniela Prażmo"
        },
        "effectiveDateTime": "2017-05-22T05:14:47Z",
        "specimen": {
          "reference": "urn:uuid:45ede4a7-a4a8-4916-a8de-cd8b939fd4b7"
        }
      }
    },
    {
      "fullUrl": "urn:uuid:7244e133-b856-4019-936b-9268b06e5f57",
      "resource": {
        "resourceType": "Observation",
        "id": "7244e133-b856-4019-936b-9268b06e5f57",
        "meta": {
          "profile": [
            "http://hl7.eu/fhir/laboratory/StructureDefinition/Observation-resultslab-eu-lab"
          ]
        },
        "performer": [
          {
            "display": "The Central European Lab"
          }
        ],
        "category": [
          {
            "coding": [
              {
                "system": "http://terminology.hl7.org/CodeSystem/observation-category",
                "code": "laboratory"
              }
            ]
          }
        ],
        "code": {
          "coding": [
            {
              "code": "6768-6",
              "system": "http://loinc.org",
              "display": "Alkaline phosphatase [Enzymatic activity/volume] in Serum or Plasma"
            }
          ],
          "text": "Alkaline phosphatase [Enzymatic activity/volume] in Serum or Plasma"
        },
        "valueQuantity": {
          "system": "http://unitsofmeasure.org",
          "value": 49.2,
          "unit": "U/L",
          "code": "U/L"
        },
        "referenceRange": [
          {
            "low": {
              "value": 32,
              "code": "U/L",
              "system": "http://unitsofmeasure.org"
            }
          },
          {
            "high": {
              "value": 150,
              "code": "U/L",
              "system": "http://unitsofmeasure.org"
            }
          }
        ],
        "text": {
          "status": "generated",
          "div": "<div xmlns=\"http://www.w3.org/1999/xhtml\"><table class=\"hl7__eu__lab__report\"><tr><th>Test</th><th>22-May-2017</th><th>Reference&#xA0;Range</th><th>Unit</th></tr><tr><td>Alkaline phosphatase [Enzymatic activity/volume] in Serum or Plasma</td><td>49.2</td><td>32 - 150</td><td></td><td>U/L</td></tr></table></div>"
        },
        "status": "final",
        "subject": {
          "reference": "urn:uuid:e84c9a59-6ed6-4d36-8bf1-fa81f84d58f5",
          "display": "Aniela Prażmo"
        },
        "effectiveDateTime": "2017-05-22T05:14:47Z",
        "specimen": {
          "reference": "urn:uuid:45ede4a7-a4a8-4916-a8de-cd8b939fd4b7"
        }
      }
    },
    {
      "fullUrl": "urn:uuid:86c765b7-5d59-421c-8078-0c030d039354",
      "resource": {
        "resourceType": "Observation",
        "id": "86c765b7-5d59-421c-8078-0c030d039354",
        "meta": {
          "profile": [
            "http://hl7.eu/fhir/laboratory/StructureDefinition/Observation-resultslab-eu-lab"
          ]
        },
        "performer": [
          {
            "display": "The Central European Lab"
          }
        ],
        "category": [
          {
            "coding": [
              {
                "system": "http://terminology.hl7.org/CodeSystem/observation-category",
                "code": "laboratory"
              }
            ]
          }
        ],
        "code": {
          "coding": [
            {
              "code": "1742-6",
              "system": "http://loinc.org",
              "display": "Alanine aminotransferase [Enzymatic activity/volume] in Serum or Plasma"
            }
          ],
          "text": "Alanine aminotransferase [Enzymatic activity/volume] in Serum or Plasma"
        },
        "valueQuantity": {
          "system": "http://unitsofmeasure.org",
          "value": 8.1,
          "unit": "U/L",
          "code": "U/L"
        },
        "referenceRange": [
          {
            "low": {
              "value": 13,
              "code": "U/L",
              "system": "http://unitsofmeasure.org"
            }
          },
          {
            "high": {
              "value": 32,
              "code": "U/L",
              "system": "http://unitsofmeasure.org"
            }
          }
        ],
        "interpretation": [
          {
            "coding": [
              {
                "code": "L",
                "system": "http://terminology.hl7.org/CodeSystem/v3-ObservationInterpretation",
                "display": "Low"
              }
            ]
          }
        ],
        "text": {
          "status": "generated",
          "div": "<div xmlns=\"http://www.w3.org/1999/xhtml\"><table class=\"hl7__eu__lab__report\"><tr><th>Test</th><th>22-May-2017</th><th>Reference&#xA0;Range</th><th>Unit</th></tr><tr><td>Alanine aminotransferase [Enzymatic activity/volume] in Serum or Plasma</td><td>8.1</td><td>13 - 32</td><td>L</td><td>U/L</td></tr></table></div>"
        },
        "status": "final",
        "subject": {
          "reference": "urn:uuid:e84c9a59-6ed6-4d36-8bf1-fa81f84d58f5",
          "display": "Aniela Prażmo"
        },
        "effectiveDateTime": "2017-05-22T05:14:47Z",
        "specimen": {
          "reference": "urn:uuid:45ede4a7-a4a8-4916-a8de-cd8b939fd4b7"
        }
      }
    },
    {
      "fullUrl": "urn:uuid:e557099a-95b0-4435-a0d0-463dc2cbef02",
      "resource": {
        "resourceType": "Observation",
        "id": "e557099a-95b0-4435-a0d0-463dc2cbef02",
        "meta": {
          "profile": [
            "http://hl7.eu/fhir/laboratory/StructureDefinition/Observation-resultslab-eu-lab"
          ]
        },
        "performer": [
          {
            "display": "The Central European Lab"
          }
        ],
        "category": [
          {
            "coding": [
              {
                "system": "http://terminology.hl7.org/CodeSystem/observation-category",
                "code": "laboratory"
              }
            ]
          }
        ],
        "code": {
          "coding": [
            {
              "code": "1920-8",
              "system": "http://loinc.org",
              "display": "Aspartate aminotransferase [Enzymatic activity/volume] in Serum or Plasma"
            }
          ],
          "text": "Aspartate aminotransferase [Enzymatic activity/volume] in Serum or Plasma"
        },
        "valueQuantity": {
          "system": "http://unitsofmeasure.org",
          "value": 18.2,
          "unit": "U/L",
          "code": "U/L"
        },
        "referenceRange": [
          {
            "low": {
              "value": 10,
              "code": "U/L",
              "system": "http://unitsofmeasure.org"
            }
          },
          {
            "high": {
              "value": 40,
              "code": "U/L",
              "system": "http://unitsofmeasure.org"
            }
          }
        ],
        "text": {
          "status": "generated",
          "div": "<div xmlns=\"http://www.w3.org/1999/xhtml\"><table class=\"hl7__eu__lab__report\"><tr><th>Test</th><th>22-May-2017</th><th>Reference&#xA0;Range</th><th>Unit</th></tr><tr><td>Aspartate aminotransferase [Enzymatic activity/volume] in Serum or Plasma</td><td>18.2</td><td>10 - 40</td><td></td><td>U/L</td></tr></table></div>"
        },
        "status": "final",
        "subject": {
          "reference": "urn:uuid:e84c9a59-6ed6-4d36-8bf1-fa81f84d58f5",
          "display": "Aniela Prażmo"
        },
        "effectiveDateTime": "2017-05-22T05:14:47Z",
        "specimen": {
          "reference": "urn:uuid:45ede4a7-a4a8-4916-a8de-cd8b939fd4b7"
        }
      }
    },
    {
      "fullUrl": "urn:uuid:4cddb30f-567d-41f7-8386-3362c3bd6571",
      "resource": {
        "resourceType": "Observation",
        "id": "4cddb30f-567d-41f7-8386-3362c3bd6571",
        "meta": {
          "profile": [
            "http://hl7.eu/fhir/laboratory/StructureDefinition/Observation-resultslab-eu-lab"
          ]
        },
        "performer": [
          {
            "display": "The Central European Lab"
          }
        ],
        "category": [
          {
            "coding": [
              {
                "system": "http://terminology.hl7.org/CodeSystem/observation-category",
                "code": "laboratory"
              }
            ]
          }
        ],
        "code": {
          "coding": [
            {
              "code": "19123-9",
              "system": "http://loinc.org",
              "display": "Magnesium [Mass/volume] in Serum or Plasma"
            }
          ],
          "text": "Magnesium [Mass/volume] in Serum or Plasma"
        },
        "valueQuantity": {
          "system": "http://unitsofmeasure.org",
          "value": 2.1,
          "unit": "mg/dL",
          "code": "mg/dL"
        },
        "referenceRange": [
          {
            "low": {
              "value": 1.7,
              "code": "mg/dL",
              "system": "http://unitsofmeasure.org"
            }
          },
          {
            "high": {
              "value": 2.6,
              "code": "mg/dL",
              "system": "http://unitsofmeasure.org"
            }
          }
        ],
        "text": {
          "status": "generated",
          "div": "<div xmlns=\"http://www.w3.org/1999/xhtml\"><table class=\"hl7__eu__lab__report\"><tr><th>Test</th><th>22-May-2017</th><th>Reference&#xA0;Range</th><th>Unit</th></tr><tr><td>Magnesium [Mass/volume] in Serum or Plasma</td><td>2.1</td><td>1.7 - 2.6</td><td></td><td>mg/dL</td></tr></table></div>"
        },
        "status": "final",
        "subject": {
          "reference": "urn:uuid:e84c9a59-6ed6-4d36-8bf1-fa81f84d58f5",
          "display": "Aniela Prażmo"
        },
        "effectiveDateTime": "2017-05-22T05:14:47Z",
        "specimen": {
          "reference": "urn:uuid:45ede4a7-a4a8-4916-a8de-cd8b939fd4b7"
        }
      }
    },
    {
      "fullUrl": "urn:uuid:0384ba81-b71b-4936-af30-82a04e2e2a0f",
      "resource": {
        "resourceType": "Observation",
        "id": "0384ba81-b71b-4936-af30-82a04e2e2a0f",
        "meta": {
          "profile": [
            "http://hl7.eu/fhir/laboratory/StructureDefinition/Observation-resultslab-eu-lab"
          ]
        },
        "performer": [
          {
            "display": "The Central European Lab"
          }
        ],
        "category": [
          {
            "coding": [
              {
                "system": "http://terminology.hl7.org/CodeSystem/observation-category",
                "code": "laboratory"
              }
            ]
          }
        ],
        "code": {
          "coding": [
            {
              "code": "2777-1",
              "system": "http://loinc.org",
              "display": "Phosphate [Mass/volume] in Serum or Plasma"
            }
          ],
          "text": "Phosphate [Mass/volume] in Serum or Plasma"
        },
        "valueQuantity": {
          "system": "http://unitsofmeasure.org",
          "value": 3.3,
          "unit": "mg/dL",
          "code": "mg/dL"
        },
        "referenceRange": [
          {
            "low": {
              "value": 2.5,
              "code": "mg/dL",
              "system": "http://unitsofmeasure.org"
            }
          },
          {
            "high": {
              "value": 4.5,
              "code": "mg/dL",
              "system": "http://unitsofmeasure.org"
            }
          }
        ],
        "text": {
          "status": "generated",
          "div": "<div xmlns=\"http://www.w3.org/1999/xhtml\"><table class=\"hl7__eu__lab__report\"><tr><th>Test</th><th>22-May-2017</th><th>Reference&#xA0;Range</th><th>Unit</th></tr><tr><td>Phosphate [Mass/volume] in Serum or Plasma</td><td>3.3</td><td>2.5 - 4.5</td><td></td><td>mg/dL</td></tr></table></div>"
        },
        "status": "final",
        "subject": {
          "reference": "urn:uuid:e84c9a59-6ed6-4d36-8bf1-fa81f84d58f5",
          "display": "Aniela Prażmo"
        },
        "effectiveDateTime": "2017-05-22T05:14:47Z",
        "specimen": {
          "reference": "urn:uuid:45ede4a7-a4a8-4916-a8de-cd8b939fd4b7"
        }
      }
    },
    {
      "fullUrl": "urn:uuid:bc090967-718f-419b-b3cd-aac8e5999276",
      "resource": {
        "resourceType": "Observation",
        "id": "bc090967-718f-419b-b3cd-aac8e5999276",
        "meta": {
          "profile": [
            "http://hl7.eu/fhir/laboratory/StructureDefinition/Observation-resultslab-eu-lab"
          ]
        },
        "performer": [
          {
            "display": "The Central European Lab"
          }
        ],
        "category": [
          {
            "coding": [
              {
                "system": "http://terminology.hl7.org/CodeSystem/observation-category",
                "code": "laboratory"
              }
            ]
          }
        ],
        "code": {
          "coding": [
            {
              "code": "5902-2",
              "system": "http://loinc.org",
              "display": "Prothrombin time (PT)"
            }
          ],
          "text": "Prothrombin time (PT)"
        },
        "valueQuantity": {
          "system": "http://unitsofmeasure.org",
          "value": 11.5,
          "unit": "s",
          "code": "s"
        },
        "referenceRange": [
          {
            "low": {
              "value": 11,
              "code": "s",
              "system": "http://unitsofmeasure.org"
            }
          },
          {
            "high": {
              "value": 15,
              "code": "s",
              "system": "http://unitsofmeasure.org"
            }
          }
        ],
        "text": {
          "status": "generated",
          "div": "<div xmlns=\"http://www.w3.org/1999/xhtml\"><table class=\"hl7__eu__lab__report\"><tr><th>Test</th><th>22-May-2017</th><th>Reference&#xA0;Range</th><th>Unit</th></tr><tr><td>Prothrombin time (PT)</td><td>11.5</td><td>11 - 15</td><td></td><td>s</td></tr></table></div>"
        },
        "status": "final",
        "subject": {
          "reference": "urn:uuid:e84c9a59-6ed6-4d36-8bf1-fa81f84d58f5",
          "display": "Aniela Prażmo"
        },
        "effectiveDateTime": "2017-05-22T05:14:47Z",
        "specimen": {
          "reference": "urn:uuid:2ec93265-80bc-4950-8c93-79aa6bf8ac5d"
        }
      }
    },
    {
      "fullUrl": "urn:uuid:2758e2a7-d2f7-4fc4-b2f8-9076584809eb",
      "resource": {
        "resourceType": "Observation",
        "id": "2758e2a7-d2f7-4fc4-b2f8-9076584809eb",
        "meta": {
          "profile": [
            "http://hl7.eu/fhir/laboratory/StructureDefinition/Observation-resultslab-eu-lab"
          ]
        },
        "performer": [
          {
            "display": "The Central European Lab"
          }
        ],
        "category": [
          {
            "coding": [
              {
                "system": "http://terminology.hl7.org/CodeSystem/observation-category",
                "code": "laboratory"
              }
            ]
          }
        ],
        "code": {
          "coding": [
            {
              "code": "6301-6",
              "system": "http://loinc.org",
              "display": "INR in Platelet poor plasma by Coagulation assay"
            }
          ],
          "text": "INR in Platelet poor plasma by Coagulation assay"
        },
        "valueQuantity": {
          "system": "http://unitsofmeasure.org",
          "value": 0.9,
          "unit": "{INR}",
          "code": "{INR}"
        },
        "referenceRange": [
          {
            "low": {
              "value": 0.9,
              "code": "INR",
              "system": "http://unitsofmeasure.org"
            }
          },
          {
            "high": {
              "value": 1.1,
              "code": "INR",
              "system": "http://unitsofmeasure.org"
            }
          }
        ],
        "text": {
          "status": "generated",
          "div": "<div xmlns=\"http://www.w3.org/1999/xhtml\"><table class=\"hl7__eu__lab__report\"><tr><th>Test</th><th>22-May-2017</th><th>Reference&#xA0;Range</th><th>Unit</th></tr><tr><td>INR in Platelet poor plasma by Coagulation assay</td><td>0.9</td><td>0.9 - 1.1</td><td></td><td>{INR}</td></tr></table></div>"
        },
        "status": "final",
        "subject": {
          "reference": "urn:uuid:e84c9a59-6ed6-4d36-8bf1-fa81f84d58f5",
          "display": "Aniela Prażmo"
        },
        "effectiveDateTime": "2017-05-22T05:14:47Z",
        "specimen": {
          "reference": "urn:uuid:2ec93265-80bc-4950-8c93-79aa6bf8ac5d"
        }
      }
    },
    {
      "fullUrl": "urn:uuid:c704ffe1-e368-4609-aa59-93bd17fef9c2",
      "resource": {
        "resourceType": "Observation",
        "id": "c704ffe1-e368-4609-aa59-93bd17fef9c2",
        "meta": {
          "profile": [
            "http://hl7.eu/fhir/laboratory/StructureDefinition/Observation-resultslab-eu-lab"
          ]
        },
        "performer": [
          {
            "display": "The Central European Lab"
          }
        ],
        "category": [
          {
            "coding": [
              {
                "system": "http://terminology.hl7.org/CodeSystem/observation-category",
                "code": "laboratory"
              }
            ]
          }
        ],
        "code": {
          "coding": [
            {
              "code": "3173-2",
              "system": "http://loinc.org",
              "display": "aPTT in Blood by Coagulation assay"
            }
          ],
          "text": "aPTT in Blood by Coagulation assay"
        },
        "valueQuantity": {
          "system": "http://unitsofmeasure.org",
          "value": 33.2,
          "unit": "s",
          "code": "s"
        },
        "referenceRange": [
          {
            "low": {
              "value": 25,
              "code": "seconds",
              "system": "http://unitsofmeasure.org"
            }
          },
          {
            "high": {
              "value": 35,
              "code": "seconds",
              "system": "http://unitsofmeasure.org"
            }
          }
        ],
        "text": {
          "status": "generated",
          "div": "<div xmlns=\"http://www.w3.org/1999/xhtml\"><table class=\"hl7__eu__lab__report\"><tr><th>Test</th><th>22-May-2017</th><th>Reference&#xA0;Range</th><th>Unit</th></tr><tr><td>aPTT in Blood by Coagulation assay</td><td>33.2</td><td>25 - 35</td><td></td><td>s</td></tr></table></div>"
        },
        "status": "final",
        "subject": {
          "reference": "urn:uuid:e84c9a59-6ed6-4d36-8bf1-fa81f84d58f5",
          "display": "Aniela Prażmo"
        },
        "effectiveDateTime": "2017-05-22T05:14:47Z",
        "specimen": {
          "reference": "urn:uuid:fa9212fb-2027-4488-a3c5-4d234f0a77b3"
        }
      }
    },
    {
      "fullUrl": "urn:uuid:bf68cb83-1514-4929-8fba-98c4f1d8ff93",
      "resource": {
        "resourceType": "Observation",
        "id": "bf68cb83-1514-4929-8fba-98c4f1d8ff93",
        "meta": {
          "profile": [
            "http://hl7.eu/fhir/laboratory/StructureDefinition/Observation-resultslab-eu-lab"
          ]
        },
        "performer": [
          {
            "display": "The Central European Lab"
          }
        ],
        "category": [
          {
            "coding": [
              {
                "system": "http://terminology.hl7.org/CodeSystem/observation-category",
                "code": "laboratory"
              }
            ]
          }
        ],
        "code": {
          "coding": [
            {
              "code": "2744-1",
              "system": "http://loinc.org",
              "display": "pH of Arterial blood"
            }
          ],
          "text": "pH of Arterial blood"
        },
        "valueQuantity": {
          "system": "http://unitsofmeasure.org",
          "value": 6.9,
          "unit": "[pH]",
          "code": "[pH]"
        },
        "referenceRange": [
          {
            "low": {
              "value": 7.35,
              "code": "pH",
              "system": "http://unitsofmeasure.org"
            }
          },
          {
            "high": {
              "value": 7.45,
              "code": "pH",
              "system": "http://unitsofmeasure.org"
            }
          }
        ],
        "interpretation": [
          {
            "coding": [
              {
                "code": "L",
                "system": "http://terminology.hl7.org/CodeSystem/v3-ObservationInterpretation",
                "display": "Low"
              }
            ]
          }
        ],
        "text": {
          "status": "generated",
          "div": "<div xmlns=\"http://www.w3.org/1999/xhtml\"><table class=\"hl7__eu__lab__report\"><tr><th>Test</th><th>22-May-2017</th><th>Reference&#xA0;Range</th><th>Unit</th></tr><tr><td>pH of Arterial blood</td><td>6.9</td><td>7.35 - 7.45</td><td>L</td><td>[pH]</td></tr></table></div>"
        },
        "status": "final",
        "subject": {
          "reference": "urn:uuid:e84c9a59-6ed6-4d36-8bf1-fa81f84d58f5",
          "display": "Aniela Prażmo"
        },
        "effectiveDateTime": "2017-05-22T05:14:47Z",
        "specimen": {
          "reference": "urn:uuid:700538d7-6ab4-473f-ab54-0dd05cbc1331"
        }
      }
    },
    {
      "fullUrl": "urn:uuid:3f9b5c4d-9b03-46dd-adc3-c633ffbe7476",
      "resource": {
        "resourceType": "Observation",
        "id": "3f9b5c4d-9b03-46dd-adc3-c633ffbe7476",
        "meta": {
          "profile": [
            "http://hl7.eu/fhir/laboratory/StructureDefinition/Observation-resultslab-eu-lab"
          ]
        },
        "performer": [
          {
            "display": "The Central European Lab"
          }
        ],
        "category": [
          {
            "coding": [
              {
                "system": "http://terminology.hl7.org/CodeSystem/observation-category",
                "code": "laboratory"
              }
            ]
          }
        ],
        "code": {
          "coding": [
            {
              "code": "2019-8",
              "system": "http://loinc.org",
              "display": "Carbon dioxide [Partial pressure] in Arterial blood"
            }
          ],
          "text": "Carbon dioxide [Partial pressure] in Arterial blood"
        },
        "valueQuantity": {
          "system": "http://unitsofmeasure.org",
          "value": 44.9,
          "unit": "mm[Hg]",
          "code": "mm[Hg]"
        },
        "referenceRange": [
          {
            "low": {
              "value": 38,
              "code": "mm[Hg]",
              "system": "http://unitsofmeasure.org"
            }
          },
          {
            "high": {
              "value": 48,
              "code": "mm[Hg]",
              "system": "http://unitsofmeasure.org"
            }
          }
        ],
        "text": {
          "status": "generated",
          "div": "<div xmlns=\"http://www.w3.org/1999/xhtml\"><table class=\"hl7__eu__lab__report\"><tr><th>Test</th><th>22-May-2017</th><th>Reference&#xA0;Range</th><th>Unit</th></tr><tr><td>Carbon dioxide [Partial pressure] in Arterial blood</td><td>44.9</td><td>38 - 48</td><td></td><td>mm[Hg]</td></tr></table></div>"
        },
        "status": "final",
        "subject": {
          "reference": "urn:uuid:e84c9a59-6ed6-4d36-8bf1-fa81f84d58f5",
          "display": "Aniela Prażmo"
        },
        "effectiveDateTime": "2017-05-22T05:14:47Z",
        "specimen": {
          "reference": "urn:uuid:700538d7-6ab4-473f-ab54-0dd05cbc1331"
        }
      }
    },
    {
      "fullUrl": "urn:uuid:cc75d792-8eb0-4a93-8469-ae7ef5fd491d",
      "resource": {
        "resourceType": "Observation",
        "id": "cc75d792-8eb0-4a93-8469-ae7ef5fd491d",
        "meta": {
          "profile": [
            "http://hl7.eu/fhir/laboratory/StructureDefinition/Observation-resultslab-eu-lab"
          ]
        },
        "performer": [
          {
            "display": "The Central European Lab"
          }
        ],
        "category": [
          {
            "coding": [
              {
                "system": "http://terminology.hl7.org/CodeSystem/observation-category",
                "code": "laboratory"
              }
            ]
          }
        ],
        "code": {
          "coding": [
            {
              "code": "2703-7",
              "system": "http://loinc.org",
              "display": "Oxygen [Partial pressure] in Arterial blood"
            }
          ],
          "text": "Oxygen [Partial pressure] in Arterial blood"
        },
        "valueQuantity": {
          "system": "http://unitsofmeasure.org",
          "value": 89.9,
          "unit": "mm[Hg]",
          "code": "mm[Hg]"
        },
        "referenceRange": [
          {
            "low": {
              "value": 75,
              "code": "mm[Hg]",
              "system": "http://unitsofmeasure.org"
            }
          },
          {
            "high": {
              "value": 100,
              "code": "mm[Hg]",
              "system": "http://unitsofmeasure.org"
            }
          }
        ],
        "text": {
          "status": "generated",
          "div": "<div xmlns=\"http://www.w3.org/1999/xhtml\"><table class=\"hl7__eu__lab__report\"><tr><th>Test</th><th>22-May-2017</th><th>Reference&#xA0;Range</th><th>Unit</th></tr><tr><td>Oxygen [Partial pressure] in Arterial blood</td><td>89.9</td><td>75 - 100</td><td></td><td>mm[Hg]</td></tr></table></div>"
        },
        "status": "final",
        "subject": {
          "reference": "urn:uuid:e84c9a59-6ed6-4d36-8bf1-fa81f84d58f5",
          "display": "Aniela Prażmo"
        },
        "effectiveDateTime": "2017-05-22T05:14:47Z",
        "specimen": {
          "reference": "urn:uuid:700538d7-6ab4-473f-ab54-0dd05cbc1331"
        }
      }
    },
    {
      "fullUrl": "urn:uuid:6e4abe2d-9056-4c4e-ae56-2831917ccb00",
      "resource": {
        "resourceType": "Observation",
        "id": "6e4abe2d-9056-4c4e-ae56-2831917ccb00",
        "meta": {
          "profile": [
            "http://hl7.eu/fhir/laboratory/StructureDefinition/Observation-resultslab-eu-lab"
          ]
        },
        "performer": [
          {
            "display": "The Central European Lab"
          }
        ],
        "category": [
          {
            "coding": [
              {
                "system": "http://terminology.hl7.org/CodeSystem/observation-category",
                "code": "laboratory"
              }
            ]
          }
        ],
        "code": {
          "coding": [
            {
              "code": "1960-4",
              "system": "http://loinc.org",
              "display": "Bicarbonate [Moles/volume] in Arterial blood"
            }
          ],
          "text": "Bicarbonate [Moles/volume] in Arterial blood"
        },
        "valueQuantity": {
          "system": "http://unitsofmeasure.org",
          "value": 26.6,
          "unit": "mmol/L",
          "code": "mmol/L"
        },
        "referenceRange": [
          {
            "low": {
              "value": 22,
              "code": "mmol/L",
              "system": "http://unitsofmeasure.org"
            }
          },
          {
            "high": {
              "value": 31,
              "code": "mmol/L",
              "system": "http://unitsofmeasure.org"
            }
          }
        ],
        "text": {
          "status": "generated",
          "div": "<div xmlns=\"http://www.w3.org/1999/xhtml\"><table class=\"hl7__eu__lab__report\"><tr><th>Test</th><th>22-May-2017</th><th>Reference&#xA0;Range</th><th>Unit</th></tr><tr><td>Bicarbonate [Moles/volume] in Arterial blood</td><td>26.6</td><td>22 - 31</td><td></td><td>mmol/L</td></tr></table></div>"
        },
        "status": "final",
        "subject": {
          "reference": "urn:uuid:e84c9a59-6ed6-4d36-8bf1-fa81f84d58f5",
          "display": "Aniela Prażmo"
        },
        "effectiveDateTime": "2017-05-22T05:14:47Z",
        "specimen": {
          "reference": "urn:uuid:700538d7-6ab4-473f-ab54-0dd05cbc1331"
        }
      }
    },
    {
      "fullUrl": "urn:uuid:ea905089-7aa9-4d70-aa2e-447d2e9c88ca",
      "resource": {
        "resourceType": "Observation",
        "id": "ea905089-7aa9-4d70-aa2e-447d2e9c88ca",
        "meta": {
          "profile": [
            "http://hl7.eu/fhir/laboratory/StructureDefinition/Observation-resultslab-eu-lab"
          ]
        },
        "performer": [
          {
            "display": "The Central European Lab"
          }
        ],
        "category": [
          {
            "coding": [
              {
                "system": "http://terminology.hl7.org/CodeSystem/observation-category",
                "code": "laboratory"
              }
            ]
          }
        ],
        "code": {
          "coding": [
            {
              "code": "2708-6",
              "system": "http://loinc.org",
              "display": "Oxygen saturation in Arterial blood"
            }
          ],
          "text": "Oxygen saturation in Arterial blood"
        },
        "valueQuantity": {
          "system": "http://unitsofmeasure.org",
          "value": 94,
          "unit": "%",
          "code": "%"
        },
        "referenceRange": [
          {
            "low": {
              "value": 95,
              "code": "%",
              "system": "http://unitsofmeasure.org"
            }
          },
          {
            "high": {
              "value": 100,
              "code": "%",
              "system": "http://unitsofmeasure.org"
            }
          }
        ],
        "interpretation": [
          {
            "coding": [
              {
                "code": "L",
                "system": "http://terminology.hl7.org/CodeSystem/v3-ObservationInterpretation",
                "display": "Low"
              }
            ]
          }
        ],
        "text": {
          "status": "generated",
          "div": "<div xmlns=\"http://www.w3.org/1999/xhtml\"><table class=\"hl7__eu__lab__report\"><tr><th>Test</th><th>22-May-2017</th><th>Reference&#xA0;Range</th><th>Unit</th></tr><tr><td>Oxygen saturation in Arterial blood</td><td>94.0</td><td>95 - 100</td><td>L</td><td>%</td></tr></table></div>"
        },
        "status": "final",
        "subject": {
          "reference": "urn:uuid:e84c9a59-6ed6-4d36-8bf1-fa81f84d58f5",
          "display": "Aniela Prażmo"
        },
        "effectiveDateTime": "2017-05-22T05:14:47Z",
        "specimen": {
          "reference": "urn:uuid:700538d7-6ab4-473f-ab54-0dd05cbc1331"
        }
      }
    },
    {
      "fullUrl": "urn:uuid:36744478-ec6b-4cb7-b2ae-1ed4e8b61db3",
      "resource": {
        "resourceType": "Observation",
        "id": "36744478-ec6b-4cb7-b2ae-1ed4e8b61db3",
        "meta": {
          "profile": [
            "http://hl7.eu/fhir/laboratory/StructureDefinition/Observation-resultslab-eu-lab"
          ]
        },
        "performer": [
          {
            "display": "The Central European Lab"
          }
        ],
        "category": [
          {
            "coding": [
              {
                "system": "http://terminology.hl7.org/CodeSystem/observation-category",
                "code": "laboratory"
              }
            ]
          }
        ],
        "code": {
          "coding": [
            {
              "code": "2093-3",
              "system": "http://loinc.org",
              "display": "Cholesterol [Mass/volume] in Serum or Plasma"
            }
          ],
          "text": "Cholesterol [Mass/volume] in Serum or Plasma"
        },
        "valueQuantity": {
          "system": "http://unitsofmeasure.org",
          "value": 299.5,
          "unit": "mg/dL",
          "code": "mg/dL"
        },
        "referenceRange": [
          {
            "low": {
              "value": 130,
              "code": "mg/dL",
              "system": "http://unitsofmeasure.org"
            }
          },
          {
            "high": {
              "value": 200,
              "code": "mg/dL",
              "system": "http://unitsofmeasure.org"
            }
          }
        ],
        "interpretation": [
          {
            "coding": [
              {
                "code": "H",
                "system": "http://terminology.hl7.org/CodeSystem/v3-ObservationInterpretation",
                "display": "High"
              }
            ]
          }
        ],
        "text": {
          "status": "generated",
          "div": "<div xmlns=\"http://www.w3.org/1999/xhtml\"><table class=\"hl7__eu__lab__report\"><tr><th>Test</th><th>22-May-2017</th><th>Reference&#xA0;Range</th><th>Unit</th></tr><tr><td>Cholesterol [Mass/volume] in Serum or Plasma</td><td>299.5</td><td>130 - 200</td><td>H</td><td>mg/dL</td></tr></table></div>"
        },
        "status": "final",
        "subject": {
          "reference": "urn:uuid:e84c9a59-6ed6-4d36-8bf1-fa81f84d58f5",
          "display": "Aniela Prażmo"
        },
        "effectiveDateTime": "2017-05-22T05:14:47Z",
        "specimen": {
          "reference": "urn:uuid:45ede4a7-a4a8-4916-a8de-cd8b939fd4b7"
        }
      }
    },
    {
      "fullUrl": "urn:uuid:768f9f00-561b-4db5-84bd-45b470a0cc10",
      "resource": {
        "resourceType": "Observation",
        "id": "768f9f00-561b-4db5-84bd-45b470a0cc10",
        "meta": {
          "profile": [
            "http://hl7.eu/fhir/laboratory/StructureDefinition/Observation-resultslab-eu-lab"
          ]
        },
        "performer": [
          {
            "display": "The Central European Lab"
          }
        ],
        "category": [
          {
            "coding": [
              {
                "system": "http://terminology.hl7.org/CodeSystem/observation-category",
                "code": "laboratory"
              }
            ]
          }
        ],
        "code": {
          "coding": [
            {
              "code": "2571-8",
              "system": "http://loinc.org",
              "display": "Triglyceride [Mass/volume] in Serum or Plasma"
            }
          ],
          "text": "Triglyceride [Mass/volume] in Serum or Plasma"
        },
        "valueQuantity": {
          "system": "http://unitsofmeasure.org",
          "value": 140.8,
          "unit": "mg/dL",
          "code": "mg/dL"
        },
        "referenceRange": [
          {
            "low": {
              "value": 0,
              "code": "mg/dL",
              "system": "http://unitsofmeasure.org"
            }
          },
          {
            "high": {
              "value": 199,
              "code": "mg/dL",
              "system": "http://unitsofmeasure.org"
            }
          }
        ],
        "text": {
          "status": "generated",
          "div": "<div xmlns=\"http://www.w3.org/1999/xhtml\"><table class=\"hl7__eu__lab__report\"><tr><th>Test</th><th>22-May-2017</th><th>Reference&#xA0;Range</th><th>Unit</th></tr><tr><td>Triglyceride [Mass/volume] in Serum or Plasma</td><td>140.8</td><td>0 - 199</td><td></td><td>mg/dL</td></tr></table></div>"
        },
        "status": "final",
        "subject": {
          "reference": "urn:uuid:e84c9a59-6ed6-4d36-8bf1-fa81f84d58f5",
          "display": "Aniela Prażmo"
        },
        "effectiveDateTime": "2017-05-22T05:14:47Z",
        "specimen": {
          "reference": "urn:uuid:45ede4a7-a4a8-4916-a8de-cd8b939fd4b7"
        }
      }
    },
    {
      "fullUrl": "urn:uuid:96dddae6-b733-4024-ad47-cc5309928071",
      "resource": {
        "resourceType": "Observation",
        "id": "96dddae6-b733-4024-ad47-cc5309928071",
        "meta": {
          "profile": [
            "http://hl7.eu/fhir/laboratory/StructureDefinition/Observation-resultslab-eu-lab"
          ]
        },
        "performer": [
          {
            "display": "The Central European Lab"
          }
        ],
        "category": [
          {
            "coding": [
              {
                "system": "http://terminology.hl7.org/CodeSystem/observation-category",
                "code": "laboratory"
              }
            ]
          }
        ],
        "code": {
          "coding": [
            {
              "code": "18262-6",
              "system": "http://loinc.org",
              "display": "Cholesterol in LDL [Mass/volume] in Serum or Plasma by Direct assay"
            }
          ],
          "text": "Cholesterol in LDL [Mass/volume] in Serum or Plasma by Direct assay"
        },
        "valueQuantity": {
          "system": "http://unitsofmeasure.org",
          "value": 210.5,
          "unit": "mg/dL",
          "code": "mg/dL"
        },
        "referenceRange": [
          {
            "low": {
              "value": 0,
              "code": "mg/dL",
              "system": "http://unitsofmeasure.org"
            }
          },
          {
            "high": {
              "value": 130,
              "code": "mg/dL",
              "system": "http://unitsofmeasure.org"
            }
          }
        ],
        "interpretation": [
          {
            "coding": [
              {
                "code": "H",
                "system": "http://terminology.hl7.org/CodeSystem/v3-ObservationInterpretation",
                "display": "High"
              }
            ]
          }
        ],
        "text": {
          "status": "generated",
          "div": "<div xmlns=\"http://www.w3.org/1999/xhtml\"><table class=\"hl7__eu__lab__report\"><tr><th>Test</th><th>22-May-2017</th><th>Reference&#xA0;Range</th><th>Unit</th></tr><tr><td>Cholesterol in LDL [Mass/volume] in Serum or Plasma by Direct assay</td><td>210.5</td><td>0 - 130</td><td>H</td><td>mg/dL</td></tr></table></div>"
        },
        "status": "final",
        "subject": {
          "reference": "urn:uuid:e84c9a59-6ed6-4d36-8bf1-fa81f84d58f5",
          "display": "Aniela Prażmo"
        },
        "effectiveDateTime": "2017-05-22T05:14:47Z",
        "specimen": {
          "reference": "urn:uuid:45ede4a7-a4a8-4916-a8de-cd8b939fd4b7"
        }
      }
    },
    {
      "fullUrl": "urn:uuid:b2e23d2e-3a34-40ff-a360-7b0fed81397a",
      "resource": {
        "resourceType": "Observation",
        "id": "b2e23d2e-3a34-40ff-a360-7b0fed81397a",
        "meta": {
          "profile": [
            "http://hl7.eu/fhir/laboratory/StructureDefinition/Observation-resultslab-eu-lab"
          ]
        },
        "performer": [
          {
            "display": "The Central European Lab"
          }
        ],
        "category": [
          {
            "coding": [
              {
                "system": "http://terminology.hl7.org/CodeSystem/observation-category",
                "code": "laboratory"
              }
            ]
          }
        ],
        "code": {
          "coding": [
            {
              "code": "2085-9",
              "system": "http://loinc.org",
              "display": "Cholesterol in HDL [Mass/volume] in Serum or Plasma"
            }
          ],
          "text": "Cholesterol in HDL [Mass/volume] in Serum or Plasma"
        },
        "valueQuantity": {
          "system": "http://unitsofmeasure.org",
          "value": 60.9,
          "unit": "mg/dL",
          "code": "mg/dL"
        },
        "referenceRange": [
          {
            "low": {
              "value": 50,
              "code": "mg/dL",
              "system": "http://unitsofmeasure.org"
            }
          },
          {
            "high": {
              "value": 100,
              "code": "mg/dL",
              "system": "http://unitsofmeasure.org"
            }
          }
        ],
        "text": {
          "status": "generated",
          "div": "<div xmlns=\"http://www.w3.org/1999/xhtml\"><table class=\"hl7__eu__lab__report\"><tr><th>Test</th><th>22-May-2017</th><th>Reference&#xA0;Range</th><th>Unit</th></tr><tr><td>Cholesterol in HDL [Mass/volume] in Serum or Plasma</td><td>60.9</td><td>50 - 100</td><td></td><td>mg/dL</td></tr></table></div>"
        },
        "status": "final",
        "subject": {
          "reference": "urn:uuid:e84c9a59-6ed6-4d36-8bf1-fa81f84d58f5",
          "display": "Aniela Prażmo"
        },
        "effectiveDateTime": "2017-05-22T05:14:47Z",
        "specimen": {
          "reference": "urn:uuid:45ede4a7-a4a8-4916-a8de-cd8b939fd4b7"
        }
      }
    },
    {
      "fullUrl": "urn:uuid:ab06dcf6-a1ce-4466-a74f-0c788b2698db",
      "resource": {
        "resourceType": "Device",
        "id": "ab06dcf6-a1ce-4466-a74f-0c788b2698db",
        "deviceName": [
          {
            "name": "SYNDERAI Synthetic Generator",
            "type": "manufacturer-name"
          }
        ],
        "version": [
          {
            "value": "5.0"
          }
        ],
        "text": {
          "status": "generated",
          "div": "<div xmlns=\"http://www.w3.org/1999/xhtml\">SYNDERAI Synthetic Generator v5.0</div>"
        },
        "status": "active\"",
        "distinctIdentifier": "synderai-generator-50",
        "manufacturer": "SYNDERAI Project"
      }
    },
    {
      "fullUrl": "urn:uuid:562d51ce-6824-4fda-921d-ff397cbab37f",
      "resource": {
        "resourceType": "Provenance",
        "id": "562d51ce-6824-4fda-921d-ff397cbab37f",
        "target": [
          {
            "reference": "Patient/e84c9a59-6ed6-4d36-8bf1-fa81f84d58f5"
          },
          {
            "reference": "Bundle/093dc24c-87e3-4995-ab3e-15bf575fbfc0"
          },
          {
            "reference": "Composition/4003378a-c6b7-47ba-9a45-a81e85e75be2"
          },
          {
            "reference": "PractitionerRole/3fc495ba-c897-4f2e-ad2c-769d1a6f9a14"
          },
          {
            "reference": "Practitioner/a5b87bf7-c416-4abe-a10d-ba42aeaa9905"
          },
          {
            "reference": "PractitionerRole/b6f150ca-e642-49f3-a625-14b0672cbde5"
          },
          {
            "reference": "Organization/7d579755-433b-4fbc-af7f-e7a93d9ac44a"
          }
        ],
        "activity": {
          "text": "Synthetic Example Data Generation"
        },
        "policy": [
          "https://synderai.net/synderai-synthetic-data-policy"
        ],
        "agent": [
          {
            "type": {
              "text": "author"
            },
            "who": {
              "reference": "Device/ab06dcf6-a1ce-4466-a74f-0c788b2698db"
            }
          }
        ],
        "reason": [
          {
            "text": "Interoperability Testing and Training (non-clinical use)"
          }
        ],
        "text": {
          "status": "generated",
          "div": "<div xmlns=\"http://www.w3.org/1999/xhtml\">Provenance for SYNDERAI Synthetic Example Data Resource</div>"
        },
        "recorded": "2017-05-22T07:14:47Z"
      }
    },
    {
      "fullUrl": "urn:uuid:3fc495ba-c897-4f2e-ad2c-769d1a6f9a14",
      "resource": {
        "resourceType": "PractitionerRole",
        "id": "3fc495ba-c897-4f2e-ad2c-769d1a6f9a14",
        "meta": {
          "profile": [
            "http://hl7.eu/fhir/base/StructureDefinition/practitionerRole-eu"
          ]
        },
        "text": {
          "status": "generated",
          "div": "<div xmlns=\"http://www.w3.org/1999/xhtml\">Laboratory Role Id: 3fc495ba-c897-4f2e-ad2c-769d1a6f9a14</div>"
        },
        "practitioner": {
          "reference": "urn:uuid:a5b87bf7-c416-4abe-a10d-ba42aeaa9905"
        }
      }
    },
    {
      "fullUrl": "urn:uuid:a5b87bf7-c416-4abe-a10d-ba42aeaa9905",
      "resource": {
        "resourceType": "Practitioner",
        "id": "a5b87bf7-c416-4abe-a10d-ba42aeaa9905",
        "meta": {
          "profile": [
            "http://hl7.eu/fhir/base/StructureDefinition/practitioner-eu"
          ]
        },
        "identifier": [
          {
            "assigner": {
              "display": "HL7 Europe"
            },
            "system": "urn:oid:2.16.840.1.113883.2.51.999",
            "value": "5a740e79-8915-4841-8d3f-edaadd1a34b8"
          }
        ],
        "name": [
          {
            "prefix": [
              "dr"
            ],
            "given": [
              "Ex"
            ],
            "family": "Ample"
          }
        ],
        "address": [
          {
            "line": [
              "Laboratoire Central Européenne",
              "Boulevard du Jardin Botanique 32"
            ],
            "postalCode": "1000",
            "city": "Brussels",
            "country": "Belgium"
          }
        ],
        "text": {
          "status": "generated",
          "div": "<div xmlns=\"http://www.w3.org/1999/xhtml\">Laboratory: Laboratoire Central Européenne, 1000 Brussels, Belgium</div>"
        }
      }
    }
  ],
  "type": "document",
  "timestamp": "2017-05-22T07:14:47Z"
}
