{
  "resourceType": "Bundle",
  "id": "4f6083f7-e40f-4d18-b638-e29b68760d56",
  "meta": {
    "profile": [
      "http://hl7.eu/fhir/laboratory/StructureDefinition/Bundle-eu-lab"
    ]
  },
  "identifier": {
    "assigner": {
      "display": "HL7 Europe"
    },
    "system": "urn:oid:2.16.840.1.113883.2.51.999",
    "value": "800d5cbb-ac73-42de-89dc-c12d3cb654fe"
  },
  "entry": [
    {
      "fullUrl": "urn:uuid:85ef5103-064e-43fe-8895-93b8b756f236",
      "resource": {
        "resourceType": "Composition",
        "id": "85ef5103-064e-43fe-8895-93b8b756f236",
        "meta": {
          "profile": [
            "http://hl7.eu/fhir/laboratory/StructureDefinition/Composition-eu-lab"
          ]
        },
        "identifier": {
          "assigner": {
            "display": "HL7 Europe"
          },
          "system": "urn:oid:2.16.840.1.113883.2.51.999",
          "value": "7afb92dc-915a-4023-ab0a-1d2970fde834"
        },
        "author": [
          {
            "reference": "urn:uuid:fd61ba22-b63f-4f66-8394-963462f98539"
          }
        ],
        "category": [
          {
            "coding": [
              {
                "code": "26436-6",
                "system": "http://loinc.org",
                "display": "Laboratory studies (set)"
              }
            ]
          }
        ],
        "type": {
          "coding": [
            {
              "code": "11502-2",
              "system": "http://loinc.org",
              "display": "Laboratory report"
            }
          ],
          "text": "Laboratory Report"
        },
        "section": [
          {
            "code": {
              "coding": [
                {
                  "code": "26436-6",
                  "system": "http://loinc.org",
                  "display": "Laboratory studies (set)"
                }
              ],
              "text": "Laboratory studies"
            },
            "section": [
              {
                "code": {
                  "coding": [
                    {
                      "code": "$18719-5",
                      "system": "http://loinc.org",
                      "display": "Chemistry studies (set)"
                    }
                  ],
                  "text": "Chemistry"
                },
                "entry": [
                  {
                    "reference": "urn:uuid:9eb73474-ccf4-4e12-ade5-6fb737c2176b"
                  },
                  {
                    "reference": "urn:uuid:1c52c267-4d31-46b9-b614-79244d9a70a1"
                  },
                  {
                    "reference": "urn:uuid:b98b711a-2ed4-45b9-9274-1159466ecb2c"
                  },
                  {
                    "reference": "urn:uuid:98ea4268-5e5c-42b3-85e3-a9ba6e0c06a1"
                  },
                  {
                    "reference": "urn:uuid:b74f7503-179a-47a2-8fd7-4685b18d3161"
                  },
                  {
                    "reference": "urn:uuid:503e95cc-4146-4552-beb2-063d771af584"
                  },
                  {
                    "reference": "urn:uuid:7a6f3356-d3a8-43c4-baf5-3fe82eb867e3"
                  },
                  {
                    "reference": "urn:uuid:3e45bfe5-d810-4b04-bf63-c0d09447b51c"
                  },
                  {
                    "reference": "urn:uuid:6d8e3689-929e-44c3-8a1b-f7f7f6bc1126"
                  },
                  {
                    "reference": "urn:uuid:f026a4f9-d633-4392-bea7-33c6465e3494"
                  },
                  {
                    "reference": "urn:uuid:ff26016d-d216-495a-a8ad-b0498d3ba779"
                  },
                  {
                    "reference": "urn:uuid:f2748b3f-fa57-4846-9dd0-c9f960adbf34"
                  },
                  {
                    "reference": "urn:uuid:012592fc-f86e-450a-ae9a-fa7a8a4df9d4"
                  },
                  {
                    "reference": "urn:uuid:27b4fdd4-7f95-4781-b164-8d639174de8f"
                  },
                  {
                    "reference": "urn:uuid:e9164376-45ab-48da-b59a-ed054373b82e"
                  },
                  {
                    "reference": "urn:uuid:5384a5fb-946a-4550-9d16-7324ad3e6519"
                  },
                  {
                    "reference": "urn:uuid:cd4b46e5-5c76-4761-8764-2632fc5e7b40"
                  },
                  {
                    "reference": "urn:uuid:a72632eb-152b-4ab1-8cc8-ac603d7fa564"
                  }
                ],
                "text": {
                  "status": "generated",
                  "div": "<div xmlns=\"http://www.w3.org/1999/xhtml\"><h3>Chemistry</h3><table class=\"hl7__eu__lab__report\"><thead><tr><th>Test</th><th>12-MAR-2023</th><th>Reference&#xA0;Range</th><th>Unit</th></tr></thead><tbody><tr><td>Glucose [Mass/volume] in Serum or Plasma</td><td>72.3</td><td>70 - 99</td><td>mg/dL</td></tr><tr><td>Urea nitrogen [Mass/volume] in Serum or Plasma</td><td>10.2</td><td>7 - 20</td><td>mg/dL</td></tr><tr><td>Creatinine [Mass/volume] in Serum or Plasma</td><td><strong>2.0 H</strong></td><td>0.6 - 1.3</td><td>mg/dL</td></tr><tr><td>Calcium [Mass/volume] in Serum or Plasma</td><td>8.8</td><td>8.6 - 10.4</td><td>mg/dL</td></tr><tr><td>Sodium [Moles/volume] in Serum or Plasma</td><td>141.2</td><td>135 - 145</td><td>mmol/L</td></tr><tr><td>Potassium [Moles/volume] in Serum or Plasma</td><td>4.5</td><td>3.5 - 5</td><td>mmol/L</td></tr><tr><td>Chloride [Moles/volume] in Serum or Plasma</td><td><strong>107.9 H</strong></td><td>98 - 106</td><td>mmol/L</td></tr><tr><td>Carbon dioxide, total [Moles/volume] in Serum or Plasma</td><td>28.5</td><td>22 - 29</td><td>mmol/L</td></tr><tr><td>Ketones [Presence] in Urine by Test strip</td><td>Urine ketone test = +</td><td></td><td></td></tr><tr><td>Hemoglobin A1c/Hemoglobin.total in Blood</td><td><strong>2.9 L</strong></td><td>4 - 6</td><td>%</td></tr><tr><td>Glucose [Mass/volume] in Blood</td><td>72.3</td><td>70 - 140</td><td>mg/dL</td></tr><tr><td>Urea nitrogen [Mass/volume] in Blood</td><td>10.2</td><td>7 - 25</td><td>mg/dL</td></tr><tr><td>Creatinine [Mass/volume] in Blood</td><td><strong>1.3 H</strong></td><td>0.6 - 1.1</td><td>mg/dL</td></tr><tr><td>Calcium [Mass/volume] in Blood</td><td>8.8</td><td>8.6 - 10.4</td><td>mg/dL</td></tr><tr><td>Sodium [Moles/volume] in Blood</td><td>141.2</td><td>135 - 145</td><td>mmol/L</td></tr><tr><td>Potassium [Moles/volume] in Blood</td><td>4.5</td><td>3.5 - 5.1</td><td>mmol/L</td></tr><tr><td>Chloride [Moles/volume] in Blood</td><td>107.9</td><td>98 - 110</td><td>mmol/L</td></tr><tr><td>Carbon dioxide, total [Moles/volume] in Blood</td><td>28.5</td><td>22 - 29</td><td>mmol/L</td></tr></tbody></table></div>"
                },
                "title": "Chemistry"
              },
              {
                "code": {
                  "coding": [
                    {
                      "code": "$18729-4",
                      "system": "http://loinc.org",
                      "display": "Urinalysis studies (set)"
                    }
                  ],
                  "text": "Urinalysis"
                },
                "entry": [
                  {
                    "reference": "urn:uuid:4e176fc6-81a3-442a-929c-9a7ea49f5a9b"
                  },
                  {
                    "reference": "urn:uuid:ffcdf731-4dd1-4a49-bdb5-515bb4fd5cf0"
                  },
                  {
                    "reference": "urn:uuid:4a648837-fb42-4dd8-af6c-30019aa40083"
                  },
                  {
                    "reference": "urn:uuid:6b500357-e720-46fe-9d8a-9bc3f80e94af"
                  },
                  {
                    "reference": "urn:uuid:5cc1ad91-f9d3-4e71-b4b3-8c014baef37e"
                  },
                  {
                    "reference": "urn:uuid:d9d55b4f-3ac6-4083-8e9a-77cfd344ce61"
                  },
                  {
                    "reference": "urn:uuid:c4636c36-147c-420c-b466-972600e6c6e2"
                  },
                  {
                    "reference": "urn:uuid:e1935736-ffcb-4b87-9f6a-c7dec3ab7431"
                  },
                  {
                    "reference": "urn:uuid:c9f78e6f-2218-4186-8eb4-478aea43baaf"
                  },
                  {
                    "reference": "urn:uuid:8a946c78-f23d-4b25-9a17-839c50cafb7c"
                  },
                  {
                    "reference": "urn:uuid:9977c25b-ba59-4742-b0fc-a99bb571562e"
                  },
                  {
                    "reference": "urn:uuid:9ae6eaaa-e58f-4e87-92ea-18fdcc313fd0"
                  }
                ],
                "text": {
                  "status": "generated",
                  "div": "<div xmlns=\"http://www.w3.org/1999/xhtml\"><h3>Urinalysis</h3><table class=\"hl7__eu__lab__report\"><thead><tr><th>Test</th><th>12-MAR-2023</th><th>Reference&#xA0;Range</th><th>Unit</th></tr></thead><tbody><tr><td>Glucose [Mass/volume] in Urine by Test strip</td><td><strong>1.4 H</strong></td><td>0 - 0.8</td><td>mg/dL</td></tr><tr><td>Glucose [Presence] in Urine by Test strip</td><td>++</td><td></td><td></td></tr><tr><td>Bilirubin.total [Mass/volume] in Urine by Test strip</td><td>0.3</td><td>0 - 1</td><td>mg/dL</td></tr><tr><td>Bilirubin.total [Presence] in Urine by Test strip</td><td>Finding of bilirubin in urine</td><td></td><td></td></tr><tr><td>Ketones [Mass/volume] in Urine by Test strip</td><td><strong>19.1 H</strong></td><td>0 - 4</td><td>mg/dL</td></tr><tr><td>Specific gravity of Urine by Test strip</td><td><strong>1.0 L</strong></td><td>1.005 - 1.03</td><td>{nominal}</td></tr><tr><td>pH of Urine by Test strip</td><td>5.7</td><td>4.5 - 7</td><td>pH</td></tr><tr><td>Protein [Mass/volume] in Urine by Test strip</td><td><strong>310.4 H</strong></td><td>0 - 145</td><td>mg/dL</td></tr><tr><td>Protein [Presence] in Urine by Test strip</td><td>Urine protein test = ++</td><td></td><td></td></tr><tr><td>Nitrite [Presence] in Urine by Test strip</td><td>Urine nitrite negative</td><td></td><td></td></tr><tr><td>Hemoglobin [Presence] in Urine by Test strip</td><td>Urine blood test = negative</td><td></td><td></td></tr><tr><td>Leukocyte esterase [Presence] in Urine by Test strip</td><td>Urine leukocyte test negative</td><td></td><td></td></tr></tbody></table></div>"
                },
                "title": "Urinalysis"
              },
              {
                "code": {
                  "coding": [
                    {
                      "code": "$LP7846-1",
                      "system": "http://loinc.org",
                      "display": "Specimen information"
                    }
                  ],
                  "text": "Specimen information"
                },
                "entry": [
                  {
                    "reference": "urn:uuid:01975cd2-5a0b-4d7f-8c0c-9edd80c903f0"
                  },
                  {
                    "reference": "urn:uuid:31babd22-68b0-48b7-9e40-1a6397fe6eb9"
                  },
                  {
                    "reference": "urn:uuid:861aaae8-8754-4611-9d8e-161595f2460d"
                  },
                  {
                    "reference": "urn:uuid:0e5ca269-de0b-4803-9df3-d7508f5c87ca"
                  }
                ],
                "text": {
                  "status": "generated",
                  "div": "<div xmlns=\"http://www.w3.org/1999/xhtml\"><h3>Specimen information</h3><table class=\"hl7__eu__lab__report\"><thead><tr><th>Test</th><th>12-MAR-2023</th><th>Specimen</th><th></th></tr></thead><tbody><tr><td>Appearance of Urine</td><td>Cloudy urine</td><td>Urine</td><td></td></tr><tr><td>Odor of Urine</td><td>Urine smell ammoniacal</td><td>Urine</td><td></td></tr><tr><td>Clarity of Urine</td><td>Translucent</td><td>Urine</td><td></td></tr><tr><td>Color of Urine</td><td>Brown color</td><td>Urine</td><td></td></tr></tbody></table></div>"
                },
                "title": "Specimen information"
              }
            ],
            "title": "Laboratory Report"
          },
          {
            "text": {
              "status": "generated",
              "div": "<div xmlns=\"http://www.w3.org/1999/xhtml\"><h3>Annotation</h3><table class=\"hl7__eu__lab__report\"><tr><th>Conclusion and Recommendations based on this report and previous findings known to us</th></tr><tr><td>The patient shows elevated creatinine, proteinuria, glucosuria, and ketonuria, suggesting possible renal impairment and abnormal glucose metabolism, despite low HbA1c. Urine is cloudy, brown, with low specific gravity, but no evidence of infection (negative nitrite/leukocytes). Further evaluation for acute or chronic kidney disease and possible non-diabetic causes of glucosuria/ketonuria is recommended. Clinical correlation advised.</td></tr></table></div>"
            },
            "code": {
              "coding": [
                {
                  "system": "http://loinc.org",
                  "code": "48767-8",
                  "display": "Annotation comment"
                }
              ]
            },
            "title": "Annotation comment"
          }
        ],
        "status": "final",
        "subject": {
          "reference": "urn:uuid:6090e0c2-c4c5-4a95-ab7e-de07c235a0b8",
          "display": "Iva Kratochvílová"
        },
        "date": "2023-03-12T17:10:29Z",
        "title": "Laboratory Report",
        "confidentiality": "N"
      }
    },
    {
      "fullUrl": "urn:uuid:b6d41fde-c248-48a7-bc8c-07dd306b08ea",
      "resource": {
        "resourceType": "DiagnosticReport",
        "id": "b6d41fde-c248-48a7-bc8c-07dd306b08ea",
        "meta": {
          "profile": [
            "http://hl7.eu/fhir/laboratory/StructureDefinition/DiagnosticReport-eu-lab"
          ]
        },
        "identifier": [
          {
            "assigner": {
              "display": "HL7 Europe"
            },
            "system": "urn:oid:2.16.840.1.113883.2.51.999",
            "value": "24f02292-6947-4794-a0ca-2677991781f5"
          }
        ],
        "extension": [
          {
            "url": "http://hl7.org/fhir/5.0/StructureDefinition/extension-DiagnosticReport.composition",
            "valueReference": {
              "reference": "urn:uuid:7afb92dc-915a-4023-ab0a-1d2970fde834"
            }
          }
        ],
        "category": [
          {
            "coding": [
              {
                "code": "26436-6",
                "system": "http://loinc.org",
                "display": "Laboratory studies (set)"
              }
            ]
          }
        ],
        "specimen": [
          {
            "reference": "urn:uuid:c62dbdd9-018e-4050-a781-60bead96b8eb"
          },
          {
            "reference": "urn:uuid:160b7cd9-58a9-4ff5-b45c-38c4444dd7fd"
          },
          {
            "reference": "urn:uuid:2d2cca39-18b5-4db6-8e20-50fde05a744e"
          }
        ],
        "result": [
          {
            "reference": "urn:uuid:9eb73474-ccf4-4e12-ade5-6fb737c2176b"
          },
          {
            "reference": "urn:uuid:1c52c267-4d31-46b9-b614-79244d9a70a1"
          },
          {
            "reference": "urn:uuid:b98b711a-2ed4-45b9-9274-1159466ecb2c"
          },
          {
            "reference": "urn:uuid:98ea4268-5e5c-42b3-85e3-a9ba6e0c06a1"
          },
          {
            "reference": "urn:uuid:b74f7503-179a-47a2-8fd7-4685b18d3161"
          },
          {
            "reference": "urn:uuid:503e95cc-4146-4552-beb2-063d771af584"
          },
          {
            "reference": "urn:uuid:7a6f3356-d3a8-43c4-baf5-3fe82eb867e3"
          },
          {
            "reference": "urn:uuid:3e45bfe5-d810-4b04-bf63-c0d09447b51c"
          },
          {
            "reference": "urn:uuid:01975cd2-5a0b-4d7f-8c0c-9edd80c903f0"
          },
          {
            "reference": "urn:uuid:31babd22-68b0-48b7-9e40-1a6397fe6eb9"
          },
          {
            "reference": "urn:uuid:861aaae8-8754-4611-9d8e-161595f2460d"
          },
          {
            "reference": "urn:uuid:0e5ca269-de0b-4803-9df3-d7508f5c87ca"
          },
          {
            "reference": "urn:uuid:4e176fc6-81a3-442a-929c-9a7ea49f5a9b"
          },
          {
            "reference": "urn:uuid:ffcdf731-4dd1-4a49-bdb5-515bb4fd5cf0"
          },
          {
            "reference": "urn:uuid:4a648837-fb42-4dd8-af6c-30019aa40083"
          },
          {
            "reference": "urn:uuid:6b500357-e720-46fe-9d8a-9bc3f80e94af"
          },
          {
            "reference": "urn:uuid:5cc1ad91-f9d3-4e71-b4b3-8c014baef37e"
          },
          {
            "reference": "urn:uuid:6d8e3689-929e-44c3-8a1b-f7f7f6bc1126"
          },
          {
            "reference": "urn:uuid:d9d55b4f-3ac6-4083-8e9a-77cfd344ce61"
          },
          {
            "reference": "urn:uuid:c4636c36-147c-420c-b466-972600e6c6e2"
          },
          {
            "reference": "urn:uuid:e1935736-ffcb-4b87-9f6a-c7dec3ab7431"
          },
          {
            "reference": "urn:uuid:c9f78e6f-2218-4186-8eb4-478aea43baaf"
          },
          {
            "reference": "urn:uuid:8a946c78-f23d-4b25-9a17-839c50cafb7c"
          },
          {
            "reference": "urn:uuid:9977c25b-ba59-4742-b0fc-a99bb571562e"
          },
          {
            "reference": "urn:uuid:9ae6eaaa-e58f-4e87-92ea-18fdcc313fd0"
          },
          {
            "reference": "urn:uuid:f026a4f9-d633-4392-bea7-33c6465e3494"
          },
          {
            "reference": "urn:uuid:ff26016d-d216-495a-a8ad-b0498d3ba779"
          },
          {
            "reference": "urn:uuid:f2748b3f-fa57-4846-9dd0-c9f960adbf34"
          },
          {
            "reference": "urn:uuid:012592fc-f86e-450a-ae9a-fa7a8a4df9d4"
          },
          {
            "reference": "urn:uuid:27b4fdd4-7f95-4781-b164-8d639174de8f"
          },
          {
            "reference": "urn:uuid:e9164376-45ab-48da-b59a-ed054373b82e"
          },
          {
            "reference": "urn:uuid:5384a5fb-946a-4550-9d16-7324ad3e6519"
          },
          {
            "reference": "urn:uuid:cd4b46e5-5c76-4761-8764-2632fc5e7b40"
          },
          {
            "reference": "urn:uuid:a72632eb-152b-4ab1-8cc8-ac603d7fa564"
          }
        ],
        "status": "registered",
        "code": {
          "coding": [
            {
              "code": "11502-2",
              "system": "http://loinc.org",
              "display": "Laboratory report"
            }
          ]
        },
        "subject": {
          "reference": "urn:uuid:6090e0c2-c4c5-4a95-ab7e-de07c235a0b8",
          "display": "Iva Kratochvílová"
        }
      }
    },
    {
      "fullUrl": "urn:uuid:6090e0c2-c4c5-4a95-ab7e-de07c235a0b8",
      "resource": {
        "resourceType": "Patient",
        "id": "6090e0c2-c4c5-4a95-ab7e-de07c235a0b8",
        "meta": {
          "security": [
            {
              "system": "http://terminology.hl7.org/CodeSystem/v3-ActReason",
              "code": "HTEST"
            },
            {
              "system": "http://terminology.hl7.org/CodeSystem/v3-ActReason",
              "code": "TRAIN"
            }
          ],
          "tag": [
            {
              "system": "https://synderai.net/fhir/CodeSystem/tags",
              "code": "synthetic",
              "display": "SYNDERAI Synthetic data"
            }
          ],
          "profile": [
            "http://hl7.eu/fhir/base/StructureDefinition/patient-eu-core"
          ]
        },
        "identifier": [
          {
            "type": {
              "coding": [
                {
                  "code": "PT",
                  "system": "http://terminology.hl7.org/CodeSystem/v2-0203"
                }
              ]
            },
            "system": "http://ec.europa.eu/identifier/eci",
            "value": "4380-389488-0"
          },
          {
            "type": {
              "coding": [
                {
                  "code": "MR",
                  "system": "http://terminology.hl7.org/CodeSystem/v2-0203"
                }
              ]
            },
            "system": "http://local.setting.eu/identifier",
            "value": "f8f9ebdc-03dd-2fc0-819c-affa4ffd7f67"
          }
        ],
        "name": [
          {
            "family": "Kratochvílová"
          },
          {
            "given": [
              "Iva"
            ]
          },
          {
            "text": "Iva Kratochvílová"
          }
        ],
        "address": [
          {
            "line": [
              "Žofie Podlipské 4"
            ],
            "use": "home",
            "type": "physical",
            "postalCode": "27324",
            "city": "Postoloprty",
            "country": "Czechia"
          }
        ],
        "telecom": [
          {
            "system": "phone",
            "value": "00420 607 985 072"
          }
        ],
        "extension": [
          {
            "url": "http://hl7.org/fhir/StructureDefinition/patient-nationality",
            "valueCodeableConcept": {
              "coding": [
                {
                  "code": "CZ",
                  "system": "http://hl7.org/fhir/ValueSet/country"
                }
              ]
            }
          }
        ],
        "text": {
          "status": "generated",
          "div": "<div xmlns=\"http://www.w3.org/1999/xhtml\"><table class=\"hl7__ips\"><tr><td>Iva Kratochvílová</td><td>female</td><td>17-Sep-1964</td></tr></table></div>"
        },
        "gender": "female",
        "birthDate": "1964-09-17"
      }
    },
    {
      "fullUrl": "urn:uuid:527f487b-e021-42ef-85e3-da60782c6018",
      "resource": {
        "resourceType": "ServiceRequest",
        "id": "527f487b-e021-42ef-85e3-da60782c6018",
        "meta": {
          "profile": [
            "http://hl7.eu/fhir/laboratory/StructureDefinition/ServiceRequest-eu-lab"
          ]
        },
        "identifier": [
          {
            "system": "http://example.org",
            "value": "f798846c-df96-4a20-a6b6-bc2b36d28df4"
          }
        ],
        "specimen": [
          {
            "reference": "urn:uuid:c62dbdd9-018e-4050-a781-60bead96b8eb"
          },
          {
            "reference": "urn:uuid:160b7cd9-58a9-4ff5-b45c-38c4444dd7fd"
          },
          {
            "reference": "urn:uuid:2d2cca39-18b5-4db6-8e20-50fde05a744e"
          }
        ],
        "reasonCode": [
          {
            "coding": [
              {
                "code": "431856006",
                "system": "http://snomed.info/sct",
                "display": "Chronic kidney disease stage 2"
              }
            ]
          },
          {
            "coding": [
              {
                "code": "431855005",
                "system": "http://snomed.info/sct",
                "display": "Chronic kidney disease stage 1"
              }
            ]
          },
          {
            "coding": [
              {
                "code": "237602007",
                "system": "http://snomed.info/sct",
                "display": "Metabolic syndrome X"
              }
            ]
          },
          {
            "coding": [
              {
                "code": "91302008",
                "system": "http://snomed.info/sct",
                "display": "Sepsis"
              }
            ]
          },
          {
            "coding": [
              {
                "code": "271737000",
                "system": "http://snomed.info/sct",
                "display": "Anemia"
              }
            ]
          },
          {
            "coding": [
              {
                "code": "15777000",
                "system": "http://snomed.info/sct",
                "display": "Prediabetes"
              }
            ]
          },
          {
            "coding": [
              {
                "code": "157141000119108",
                "system": "http://snomed.info/sct",
                "display": "Proteinuria due to type 2 diabetes mellitus"
              }
            ]
          },
          {
            "coding": [
              {
                "code": "90781000119102",
                "system": "http://snomed.info/sct",
                "display": "Microalbuminuria due to type 2 diabetes mellitus"
              }
            ]
          },
          {
            "coding": [
              {
                "code": "239872002",
                "system": "http://snomed.info/sct",
                "display": "Osteoarthritis of hip"
              }
            ]
          },
          {
            "coding": [
              {
                "code": "40055000",
                "system": "http://snomed.info/sct",
                "display": "Chronic sinusitis"
              }
            ]
          },
          {
            "coding": [
              {
                "code": "127013003",
                "system": "http://snomed.info/sct",
                "display": "Disorder of kidney due to diabetes mellitus"
              }
            ]
          },
          {
            "coding": [
              {
                "code": "59621000",
                "system": "http://snomed.info/sct",
                "display": "Essential hypertension"
              }
            ]
          }
        ],
        "status": "active",
        "intent": "order",
        "code": {
          "coding": [
            {
              "code": "108252007",
              "system": "http://snomed.info/sct",
              "display": "Laboratory procedure"
            }
          ]
        },
        "subject": {
          "reference": "urn:uuid:6090e0c2-c4c5-4a95-ab7e-de07c235a0b8",
          "display": "Iva Kratochvílová"
        },
        "requester": {
          "reference": "urn:uuid:98f49355-8594-47b7-bcc1-249a4f8a4ba1"
        }
      }
    },
    {
      "fullUrl": "urn:uuid:98f49355-8594-47b7-bcc1-249a4f8a4ba1",
      "resource": {
        "resourceType": "PractitionerRole",
        "id": "98f49355-8594-47b7-bcc1-249a4f8a4ba1",
        "meta": {
          "profile": [
            "http://hl7.eu/fhir/base/StructureDefinition/practitionerRole-eu"
          ]
        },
        "text": {
          "status": "generated",
          "div": "<div xmlns=\"http://www.w3.org/1999/xhtml\">Provider Role Id: 98f49355-8594-47b7-bcc1-249a4f8a4ba1</div>"
        },
        "organization": {
          "reference": "urn:uuid:fb1902d4-aa78-434e-b24e-9df211aa0378"
        }
      }
    },
    {
      "fullUrl": "urn:uuid:fb1902d4-aa78-434e-b24e-9df211aa0378",
      "resource": {
        "resourceType": "Organization",
        "id": "fb1902d4-aa78-434e-b24e-9df211aa0378",
        "meta": {
          "profile": [
            "http://hl7.eu/fhir/base/StructureDefinition/organization-eu"
          ]
        },
        "identifier": [
          {
            "assigner": {
              "display": "HL7 Europe"
            },
            "system": "urn:oid:2.16.840.1.113883.2.51.999",
            "value": "139a329d-cd6f-477b-9c0b-5bd6b40ea4ac"
          }
        ],
        "address": [
          {
            "city": "Kadaň",
            "postalCode": "432 01",
            "country": "Czechia"
          }
        ],
        "text": {
          "status": "generated",
          "div": "<div xmlns=\"http://www.w3.org/1999/xhtml\">Provider Organization: Nemocnice s poliklinikou Kadaň</div>"
        },
        "name": "Nemocnice s poliklinikou Kadaň"
      }
    },
    {
      "fullUrl": "urn:uuid:c62dbdd9-018e-4050-a781-60bead96b8eb",
      "resource": {
        "resourceType": "Specimen",
        "id": "c62dbdd9-018e-4050-a781-60bead96b8eb",
        "meta": {
          "profile": [
            "http://hl7.eu/fhir/laboratory/StructureDefinition/Specimen-eu-lab"
          ]
        },
        "collection": {
          "collectedDateTime": "2023-03-12"
        },
        "text": {
          "status": "generated",
          "div": "<div xmlns=\"http://www.w3.org/1999/xhtml\"><table class=\"hl7__eu__lab__report\"><tr><th>Specimen</th><th>Collection Date</th></tr><tr><td>Acellular blood (serum or plasma) specimen</td><td><span class=\"nb\">12-Mar-2023</span></td></tr></table></div>"
        },
        "type": {
          "coding": [
            {
              "code": "122592007",
              "system": "http://snomed.info/sct",
              "display": "Acellular blood (serum or plasma) specimen"
            }
          ]
        }
      }
    },
    {
      "fullUrl": "urn:uuid:160b7cd9-58a9-4ff5-b45c-38c4444dd7fd",
      "resource": {
        "resourceType": "Specimen",
        "id": "160b7cd9-58a9-4ff5-b45c-38c4444dd7fd",
        "meta": {
          "profile": [
            "http://hl7.eu/fhir/laboratory/StructureDefinition/Specimen-eu-lab"
          ]
        },
        "collection": {
          "collectedDateTime": "2023-03-12"
        },
        "text": {
          "status": "generated",
          "div": "<div xmlns=\"http://www.w3.org/1999/xhtml\"><table class=\"hl7__eu__lab__report\"><tr><th>Specimen</th><th>Collection Date</th></tr><tr><td>Urine specimen</td><td><span class=\"nb\">12-Mar-2023</span></td></tr></table></div>"
        },
        "type": {
          "coding": [
            {
              "code": "122575003",
              "system": "http://snomed.info/sct",
              "display": "Urine specimen"
            }
          ]
        }
      }
    },
    {
      "fullUrl": "urn:uuid:2d2cca39-18b5-4db6-8e20-50fde05a744e",
      "resource": {
        "resourceType": "Specimen",
        "id": "2d2cca39-18b5-4db6-8e20-50fde05a744e",
        "meta": {
          "profile": [
            "http://hl7.eu/fhir/laboratory/StructureDefinition/Specimen-eu-lab"
          ]
        },
        "collection": {
          "collectedDateTime": "2023-03-12"
        },
        "text": {
          "status": "generated",
          "div": "<div xmlns=\"http://www.w3.org/1999/xhtml\"><table class=\"hl7__eu__lab__report\"><tr><th>Specimen</th><th>Collection Date</th></tr><tr><td>Whole blood specimen (specimen)</td><td><span class=\"nb\">12-Mar-2023</span></td></tr></table></div>"
        },
        "type": {
          "coding": [
            {
              "code": "258580003",
              "system": "http://snomed.info/sct",
              "display": "Whole blood specimen (specimen)"
            }
          ]
        }
      }
    },
    {
      "fullUrl": "urn:uuid:9eb73474-ccf4-4e12-ade5-6fb737c2176b",
      "resource": {
        "resourceType": "Observation",
        "id": "9eb73474-ccf4-4e12-ade5-6fb737c2176b",
        "meta": {
          "profile": [
            "http://hl7.eu/fhir/laboratory/StructureDefinition/Observation-resultslab-eu-lab"
          ]
        },
        "performer": [
          {
            "display": "The Central European Lab"
          }
        ],
        "category": [
          {
            "coding": [
              {
                "system": "http://terminology.hl7.org/CodeSystem/observation-category",
                "code": "laboratory"
              }
            ]
          }
        ],
        "code": {
          "coding": [
            {
              "code": "2345-7",
              "system": "http://loinc.org",
              "display": "Glucose [Mass/volume] in Serum or Plasma"
            }
          ],
          "text": "Glucose [Mass/volume] in Serum or Plasma"
        },
        "valueQuantity": {
          "system": "http://unitsofmeasure.org",
          "value": 72.3,
          "unit": "mg/dL",
          "code": "mg/dL"
        },
        "referenceRange": [
          {
            "low": {
              "value": 70,
              "code": "mg/dL",
              "system": "http://unitsofmeasure.org"
            }
          },
          {
            "high": {
              "value": 99,
              "code": "mg/dL",
              "system": "http://unitsofmeasure.org"
            }
          }
        ],
        "text": {
          "status": "generated",
          "div": "<div xmlns=\"http://www.w3.org/1999/xhtml\"><table class=\"hl7__eu__lab__report\"><tr><th>Test</th><th>12-Mar-2023</th><th>Reference&#xA0;Range</th><th>Unit</th></tr><tr><td>Glucose [Mass/volume] in Serum or Plasma</td><td>72.3</td><td>70 - 99</td><td></td><td>mg/dL</td></tr></table></div>"
        },
        "status": "final",
        "subject": {
          "reference": "urn:uuid:6090e0c2-c4c5-4a95-ab7e-de07c235a0b8",
          "display": "Iva Kratochvílová"
        },
        "effectiveDateTime": "2023-03-12T16:10:29Z",
        "specimen": {
          "reference": "urn:uuid:c62dbdd9-018e-4050-a781-60bead96b8eb"
        }
      }
    },
    {
      "fullUrl": "urn:uuid:1c52c267-4d31-46b9-b614-79244d9a70a1",
      "resource": {
        "resourceType": "Observation",
        "id": "1c52c267-4d31-46b9-b614-79244d9a70a1",
        "meta": {
          "profile": [
            "http://hl7.eu/fhir/laboratory/StructureDefinition/Observation-resultslab-eu-lab"
          ]
        },
        "performer": [
          {
            "display": "The Central European Lab"
          }
        ],
        "category": [
          {
            "coding": [
              {
                "system": "http://terminology.hl7.org/CodeSystem/observation-category",
                "code": "laboratory"
              }
            ]
          }
        ],
        "code": {
          "coding": [
            {
              "code": "3094-0",
              "system": "http://loinc.org",
              "display": "Urea nitrogen [Mass/volume] in Serum or Plasma"
            }
          ],
          "text": "Urea nitrogen [Mass/volume] in Serum or Plasma"
        },
        "valueQuantity": {
          "system": "http://unitsofmeasure.org",
          "value": 10.2,
          "unit": "mg/dL",
          "code": "mg/dL"
        },
        "referenceRange": [
          {
            "low": {
              "value": 7,
              "code": "mg/dL",
              "system": "http://unitsofmeasure.org"
            }
          },
          {
            "high": {
              "value": 20,
              "code": "mg/dL",
              "system": "http://unitsofmeasure.org"
            }
          }
        ],
        "text": {
          "status": "generated",
          "div": "<div xmlns=\"http://www.w3.org/1999/xhtml\"><table class=\"hl7__eu__lab__report\"><tr><th>Test</th><th>12-Mar-2023</th><th>Reference&#xA0;Range</th><th>Unit</th></tr><tr><td>Urea nitrogen [Mass/volume] in Serum or Plasma</td><td>10.2</td><td>7 - 20</td><td></td><td>mg/dL</td></tr></table></div>"
        },
        "status": "final",
        "subject": {
          "reference": "urn:uuid:6090e0c2-c4c5-4a95-ab7e-de07c235a0b8",
          "display": "Iva Kratochvílová"
        },
        "effectiveDateTime": "2023-03-12T16:10:29Z",
        "specimen": {
          "reference": "urn:uuid:c62dbdd9-018e-4050-a781-60bead96b8eb"
        }
      }
    },
    {
      "fullUrl": "urn:uuid:b98b711a-2ed4-45b9-9274-1159466ecb2c",
      "resource": {
        "resourceType": "Observation",
        "id": "b98b711a-2ed4-45b9-9274-1159466ecb2c",
        "meta": {
          "profile": [
            "http://hl7.eu/fhir/laboratory/StructureDefinition/Observation-resultslab-eu-lab"
          ]
        },
        "performer": [
          {
            "display": "The Central European Lab"
          }
        ],
        "category": [
          {
            "coding": [
              {
                "system": "http://terminology.hl7.org/CodeSystem/observation-category",
                "code": "laboratory"
              }
            ]
          }
        ],
        "code": {
          "coding": [
            {
              "code": "2160-0",
              "system": "http://loinc.org",
              "display": "Creatinine [Mass/volume] in Serum or Plasma"
            }
          ],
          "text": "Creatinine [Mass/volume] in Serum or Plasma"
        },
        "valueQuantity": {
          "system": "http://unitsofmeasure.org",
          "value": 2,
          "unit": "mg/dL",
          "code": "mg/dL"
        },
        "referenceRange": [
          {
            "low": {
              "value": 0.6,
              "code": "mg/dL",
              "system": "http://unitsofmeasure.org"
            }
          },
          {
            "high": {
              "value": 1.3,
              "code": "mg/dL",
              "system": "http://unitsofmeasure.org"
            }
          }
        ],
        "interpretation": [
          {
            "coding": [
              {
                "code": "H",
                "system": "http://terminology.hl7.org/CodeSystem/v3-ObservationInterpretation",
                "display": "High"
              }
            ]
          }
        ],
        "text": {
          "status": "generated",
          "div": "<div xmlns=\"http://www.w3.org/1999/xhtml\"><table class=\"hl7__eu__lab__report\"><tr><th>Test</th><th>12-Mar-2023</th><th>Reference&#xA0;Range</th><th>Unit</th></tr><tr><td>Creatinine [Mass/volume] in Serum or Plasma</td><td>2.0</td><td>0.6 - 1.3</td><td>H</td><td>mg/dL</td></tr></table></div>"
        },
        "status": "final",
        "subject": {
          "reference": "urn:uuid:6090e0c2-c4c5-4a95-ab7e-de07c235a0b8",
          "display": "Iva Kratochvílová"
        },
        "effectiveDateTime": "2023-03-12T16:10:29Z",
        "specimen": {
          "reference": "urn:uuid:c62dbdd9-018e-4050-a781-60bead96b8eb"
        }
      }
    },
    {
      "fullUrl": "urn:uuid:98ea4268-5e5c-42b3-85e3-a9ba6e0c06a1",
      "resource": {
        "resourceType": "Observation",
        "id": "98ea4268-5e5c-42b3-85e3-a9ba6e0c06a1",
        "meta": {
          "profile": [
            "http://hl7.eu/fhir/laboratory/StructureDefinition/Observation-resultslab-eu-lab"
          ]
        },
        "performer": [
          {
            "display": "The Central European Lab"
          }
        ],
        "category": [
          {
            "coding": [
              {
                "system": "http://terminology.hl7.org/CodeSystem/observation-category",
                "code": "laboratory"
              }
            ]
          }
        ],
        "code": {
          "coding": [
            {
              "code": "17861-6",
              "system": "http://loinc.org",
              "display": "Calcium [Mass/volume] in Serum or Plasma"
            }
          ],
          "text": "Calcium [Mass/volume] in Serum or Plasma"
        },
        "valueQuantity": {
          "system": "http://unitsofmeasure.org",
          "value": 8.8,
          "unit": "mg/dL",
          "code": "mg/dL"
        },
        "referenceRange": [
          {
            "low": {
              "value": 8.6,
              "code": "mg/dL",
              "system": "http://unitsofmeasure.org"
            }
          },
          {
            "high": {
              "value": 10.4,
              "code": "mg/dL",
              "system": "http://unitsofmeasure.org"
            }
          }
        ],
        "text": {
          "status": "generated",
          "div": "<div xmlns=\"http://www.w3.org/1999/xhtml\"><table class=\"hl7__eu__lab__report\"><tr><th>Test</th><th>12-Mar-2023</th><th>Reference&#xA0;Range</th><th>Unit</th></tr><tr><td>Calcium [Mass/volume] in Serum or Plasma</td><td>8.8</td><td>8.6 - 10.4</td><td></td><td>mg/dL</td></tr></table></div>"
        },
        "status": "final",
        "subject": {
          "reference": "urn:uuid:6090e0c2-c4c5-4a95-ab7e-de07c235a0b8",
          "display": "Iva Kratochvílová"
        },
        "effectiveDateTime": "2023-03-12T16:10:29Z",
        "specimen": {
          "reference": "urn:uuid:c62dbdd9-018e-4050-a781-60bead96b8eb"
        }
      }
    },
    {
      "fullUrl": "urn:uuid:b74f7503-179a-47a2-8fd7-4685b18d3161",
      "resource": {
        "resourceType": "Observation",
        "id": "b74f7503-179a-47a2-8fd7-4685b18d3161",
        "meta": {
          "profile": [
            "http://hl7.eu/fhir/laboratory/StructureDefinition/Observation-resultslab-eu-lab"
          ]
        },
        "performer": [
          {
            "display": "The Central European Lab"
          }
        ],
        "category": [
          {
            "coding": [
              {
                "system": "http://terminology.hl7.org/CodeSystem/observation-category",
                "code": "laboratory"
              }
            ]
          }
        ],
        "code": {
          "coding": [
            {
              "code": "2951-2",
              "system": "http://loinc.org",
              "display": "Sodium [Moles/volume] in Serum or Plasma"
            }
          ],
          "text": "Sodium [Moles/volume] in Serum or Plasma"
        },
        "valueQuantity": {
          "system": "http://unitsofmeasure.org",
          "value": 141.2,
          "unit": "mmol/L",
          "code": "mmol/L"
        },
        "referenceRange": [
          {
            "low": {
              "value": 135,
              "code": "mmol/L",
              "system": "http://unitsofmeasure.org"
            }
          },
          {
            "high": {
              "value": 145,
              "code": "mmol/L",
              "system": "http://unitsofmeasure.org"
            }
          }
        ],
        "text": {
          "status": "generated",
          "div": "<div xmlns=\"http://www.w3.org/1999/xhtml\"><table class=\"hl7__eu__lab__report\"><tr><th>Test</th><th>12-Mar-2023</th><th>Reference&#xA0;Range</th><th>Unit</th></tr><tr><td>Sodium [Moles/volume] in Serum or Plasma</td><td>141.2</td><td>135 - 145</td><td></td><td>mmol/L</td></tr></table></div>"
        },
        "status": "final",
        "subject": {
          "reference": "urn:uuid:6090e0c2-c4c5-4a95-ab7e-de07c235a0b8",
          "display": "Iva Kratochvílová"
        },
        "effectiveDateTime": "2023-03-12T16:10:29Z",
        "specimen": {
          "reference": "urn:uuid:c62dbdd9-018e-4050-a781-60bead96b8eb"
        }
      }
    },
    {
      "fullUrl": "urn:uuid:503e95cc-4146-4552-beb2-063d771af584",
      "resource": {
        "resourceType": "Observation",
        "id": "503e95cc-4146-4552-beb2-063d771af584",
        "meta": {
          "profile": [
            "http://hl7.eu/fhir/laboratory/StructureDefinition/Observation-resultslab-eu-lab"
          ]
        },
        "performer": [
          {
            "display": "The Central European Lab"
          }
        ],
        "category": [
          {
            "coding": [
              {
                "system": "http://terminology.hl7.org/CodeSystem/observation-category",
                "code": "laboratory"
              }
            ]
          }
        ],
        "code": {
          "coding": [
            {
              "code": "2823-3",
              "system": "http://loinc.org",
              "display": "Potassium [Moles/volume] in Serum or Plasma"
            }
          ],
          "text": "Potassium [Moles/volume] in Serum or Plasma"
        },
        "valueQuantity": {
          "system": "http://unitsofmeasure.org",
          "value": 4.5,
          "unit": "mmol/L",
          "code": "mmol/L"
        },
        "referenceRange": [
          {
            "low": {
              "value": 3.5,
              "code": "mmol/L",
              "system": "http://unitsofmeasure.org"
            }
          },
          {
            "high": {
              "value": 5,
              "code": "mmol/L",
              "system": "http://unitsofmeasure.org"
            }
          }
        ],
        "text": {
          "status": "generated",
          "div": "<div xmlns=\"http://www.w3.org/1999/xhtml\"><table class=\"hl7__eu__lab__report\"><tr><th>Test</th><th>12-Mar-2023</th><th>Reference&#xA0;Range</th><th>Unit</th></tr><tr><td>Potassium [Moles/volume] in Serum or Plasma</td><td>4.5</td><td>3.5 - 5</td><td></td><td>mmol/L</td></tr></table></div>"
        },
        "status": "final",
        "subject": {
          "reference": "urn:uuid:6090e0c2-c4c5-4a95-ab7e-de07c235a0b8",
          "display": "Iva Kratochvílová"
        },
        "effectiveDateTime": "2023-03-12T16:10:29Z",
        "specimen": {
          "reference": "urn:uuid:c62dbdd9-018e-4050-a781-60bead96b8eb"
        }
      }
    },
    {
      "fullUrl": "urn:uuid:7a6f3356-d3a8-43c4-baf5-3fe82eb867e3",
      "resource": {
        "resourceType": "Observation",
        "id": "7a6f3356-d3a8-43c4-baf5-3fe82eb867e3",
        "meta": {
          "profile": [
            "http://hl7.eu/fhir/laboratory/StructureDefinition/Observation-resultslab-eu-lab"
          ]
        },
        "performer": [
          {
            "display": "The Central European Lab"
          }
        ],
        "category": [
          {
            "coding": [
              {
                "system": "http://terminology.hl7.org/CodeSystem/observation-category",
                "code": "laboratory"
              }
            ]
          }
        ],
        "code": {
          "coding": [
            {
              "code": "2075-0",
              "system": "http://loinc.org",
              "display": "Chloride [Moles/volume] in Serum or Plasma"
            }
          ],
          "text": "Chloride [Moles/volume] in Serum or Plasma"
        },
        "valueQuantity": {
          "system": "http://unitsofmeasure.org",
          "value": 107.9,
          "unit": "mmol/L",
          "code": "mmol/L"
        },
        "referenceRange": [
          {
            "low": {
              "value": 98,
              "code": "mmol/L",
              "system": "http://unitsofmeasure.org"
            }
          },
          {
            "high": {
              "value": 106,
              "code": "mmol/L",
              "system": "http://unitsofmeasure.org"
            }
          }
        ],
        "interpretation": [
          {
            "coding": [
              {
                "code": "H",
                "system": "http://terminology.hl7.org/CodeSystem/v3-ObservationInterpretation",
                "display": "High"
              }
            ]
          }
        ],
        "text": {
          "status": "generated",
          "div": "<div xmlns=\"http://www.w3.org/1999/xhtml\"><table class=\"hl7__eu__lab__report\"><tr><th>Test</th><th>12-Mar-2023</th><th>Reference&#xA0;Range</th><th>Unit</th></tr><tr><td>Chloride [Moles/volume] in Serum or Plasma</td><td>107.9</td><td>98 - 106</td><td>H</td><td>mmol/L</td></tr></table></div>"
        },
        "status": "final",
        "subject": {
          "reference": "urn:uuid:6090e0c2-c4c5-4a95-ab7e-de07c235a0b8",
          "display": "Iva Kratochvílová"
        },
        "effectiveDateTime": "2023-03-12T16:10:29Z",
        "specimen": {
          "reference": "urn:uuid:c62dbdd9-018e-4050-a781-60bead96b8eb"
        }
      }
    },
    {
      "fullUrl": "urn:uuid:3e45bfe5-d810-4b04-bf63-c0d09447b51c",
      "resource": {
        "resourceType": "Observation",
        "id": "3e45bfe5-d810-4b04-bf63-c0d09447b51c",
        "meta": {
          "profile": [
            "http://hl7.eu/fhir/laboratory/StructureDefinition/Observation-resultslab-eu-lab"
          ]
        },
        "performer": [
          {
            "display": "The Central European Lab"
          }
        ],
        "category": [
          {
            "coding": [
              {
                "system": "http://terminology.hl7.org/CodeSystem/observation-category",
                "code": "laboratory"
              }
            ]
          }
        ],
        "code": {
          "coding": [
            {
              "code": "2028-9",
              "system": "http://loinc.org",
              "display": "Carbon dioxide, total [Moles/volume] in Serum or Plasma"
            }
          ],
          "text": "Carbon dioxide, total [Moles/volume] in Serum or Plasma"
        },
        "valueQuantity": {
          "system": "http://unitsofmeasure.org",
          "value": 28.5,
          "unit": "mmol/L",
          "code": "mmol/L"
        },
        "referenceRange": [
          {
            "low": {
              "value": 22,
              "code": "mmol/L",
              "system": "http://unitsofmeasure.org"
            }
          },
          {
            "high": {
              "value": 29,
              "code": "mmol/L",
              "system": "http://unitsofmeasure.org"
            }
          }
        ],
        "text": {
          "status": "generated",
          "div": "<div xmlns=\"http://www.w3.org/1999/xhtml\"><table class=\"hl7__eu__lab__report\"><tr><th>Test</th><th>12-Mar-2023</th><th>Reference&#xA0;Range</th><th>Unit</th></tr><tr><td>Carbon dioxide, total [Moles/volume] in Serum or Plasma</td><td>28.5</td><td>22 - 29</td><td></td><td>mmol/L</td></tr></table></div>"
        },
        "status": "final",
        "subject": {
          "reference": "urn:uuid:6090e0c2-c4c5-4a95-ab7e-de07c235a0b8",
          "display": "Iva Kratochvílová"
        },
        "effectiveDateTime": "2023-03-12T16:10:29Z",
        "specimen": {
          "reference": "urn:uuid:c62dbdd9-018e-4050-a781-60bead96b8eb"
        }
      }
    },
    {
      "fullUrl": "urn:uuid:01975cd2-5a0b-4d7f-8c0c-9edd80c903f0",
      "resource": {
        "resourceType": "Observation",
        "id": "01975cd2-5a0b-4d7f-8c0c-9edd80c903f0",
        "meta": {
          "profile": [
            "http://hl7.eu/fhir/laboratory/StructureDefinition/Observation-resultslab-eu-lab"
          ]
        },
        "performer": [
          {
            "display": "The Central European Lab"
          }
        ],
        "category": [
          {
            "coding": [
              {
                "system": "http://terminology.hl7.org/CodeSystem/observation-category",
                "code": "laboratory"
              }
            ]
          }
        ],
        "code": {
          "coding": [
            {
              "code": "5767-9",
              "system": "http://loinc.org",
              "display": "Appearance of Urine"
            }
          ],
          "text": "Appearance of Urine"
        },
        "text": {
          "status": "generated",
          "div": "<div xmlns=\"http://www.w3.org/1999/xhtml\"><table class=\"hl7__eu__lab__report\"><tr><th>Test</th><th>12-Mar-2023</th><th>Reference&#xA0;Range</th><th>Unit</th></tr><tr><td>Appearance of Urine</td></tr></table></div>"
        },
        "status": "final",
        "subject": {
          "reference": "urn:uuid:6090e0c2-c4c5-4a95-ab7e-de07c235a0b8",
          "display": "Iva Kratochvílová"
        },
        "effectiveDateTime": "2023-03-12T16:10:29Z",
        "specimen": {
          "reference": "urn:uuid:160b7cd9-58a9-4ff5-b45c-38c4444dd7fd"
        }
      }
    },
    {
      "fullUrl": "urn:uuid:31babd22-68b0-48b7-9e40-1a6397fe6eb9",
      "resource": {
        "resourceType": "Observation",
        "id": "31babd22-68b0-48b7-9e40-1a6397fe6eb9",
        "meta": {
          "profile": [
            "http://hl7.eu/fhir/laboratory/StructureDefinition/Observation-resultslab-eu-lab"
          ]
        },
        "performer": [
          {
            "display": "The Central European Lab"
          }
        ],
        "category": [
          {
            "coding": [
              {
                "system": "http://terminology.hl7.org/CodeSystem/observation-category",
                "code": "laboratory"
              }
            ]
          }
        ],
        "code": {
          "coding": [
            {
              "code": "34533-0",
              "system": "http://loinc.org",
              "display": "Odor of Urine"
            }
          ],
          "text": "Odor of Urine"
        },
        "text": {
          "status": "generated",
          "div": "<div xmlns=\"http://www.w3.org/1999/xhtml\"><table class=\"hl7__eu__lab__report\"><tr><th>Test</th><th>12-Mar-2023</th><th>Reference&#xA0;Range</th><th>Unit</th></tr><tr><td>Odor of Urine</td></tr></table></div>"
        },
        "status": "final",
        "subject": {
          "reference": "urn:uuid:6090e0c2-c4c5-4a95-ab7e-de07c235a0b8",
          "display": "Iva Kratochvílová"
        },
        "effectiveDateTime": "2023-03-12T16:10:29Z",
        "specimen": {
          "reference": "urn:uuid:160b7cd9-58a9-4ff5-b45c-38c4444dd7fd"
        }
      }
    },
    {
      "fullUrl": "urn:uuid:861aaae8-8754-4611-9d8e-161595f2460d",
      "resource": {
        "resourceType": "Observation",
        "id": "861aaae8-8754-4611-9d8e-161595f2460d",
        "meta": {
          "profile": [
            "http://hl7.eu/fhir/laboratory/StructureDefinition/Observation-resultslab-eu-lab"
          ]
        },
        "performer": [
          {
            "display": "The Central European Lab"
          }
        ],
        "category": [
          {
            "coding": [
              {
                "system": "http://terminology.hl7.org/CodeSystem/observation-category",
                "code": "laboratory"
              }
            ]
          }
        ],
        "code": {
          "coding": [
            {
              "code": "32167-9",
              "system": "http://loinc.org",
              "display": "Clarity of Urine"
            }
          ],
          "text": "Clarity of Urine"
        },
        "text": {
          "status": "generated",
          "div": "<div xmlns=\"http://www.w3.org/1999/xhtml\"><table class=\"hl7__eu__lab__report\"><tr><th>Test</th><th>12-Mar-2023</th><th>Reference&#xA0;Range</th><th>Unit</th></tr><tr><td>Clarity of Urine</td></tr></table></div>"
        },
        "status": "final",
        "subject": {
          "reference": "urn:uuid:6090e0c2-c4c5-4a95-ab7e-de07c235a0b8",
          "display": "Iva Kratochvílová"
        },
        "effectiveDateTime": "2023-03-12T16:10:29Z",
        "specimen": {
          "reference": "urn:uuid:160b7cd9-58a9-4ff5-b45c-38c4444dd7fd"
        }
      }
    },
    {
      "fullUrl": "urn:uuid:0e5ca269-de0b-4803-9df3-d7508f5c87ca",
      "resource": {
        "resourceType": "Observation",
        "id": "0e5ca269-de0b-4803-9df3-d7508f5c87ca",
        "meta": {
          "profile": [
            "http://hl7.eu/fhir/laboratory/StructureDefinition/Observation-resultslab-eu-lab"
          ]
        },
        "performer": [
          {
            "display": "The Central European Lab"
          }
        ],
        "category": [
          {
            "coding": [
              {
                "system": "http://terminology.hl7.org/CodeSystem/observation-category",
                "code": "laboratory"
              }
            ]
          }
        ],
        "code": {
          "coding": [
            {
              "code": "5778-6",
              "system": "http://loinc.org",
              "display": "Color of Urine"
            }
          ],
          "text": "Color of Urine"
        },
        "text": {
          "status": "generated",
          "div": "<div xmlns=\"http://www.w3.org/1999/xhtml\"><table class=\"hl7__eu__lab__report\"><tr><th>Test</th><th>12-Mar-2023</th><th>Reference&#xA0;Range</th><th>Unit</th></tr><tr><td>Color of Urine</td></tr></table></div>"
        },
        "status": "final",
        "subject": {
          "reference": "urn:uuid:6090e0c2-c4c5-4a95-ab7e-de07c235a0b8",
          "display": "Iva Kratochvílová"
        },
        "effectiveDateTime": "2023-03-12T16:10:29Z",
        "specimen": {
          "reference": "urn:uuid:160b7cd9-58a9-4ff5-b45c-38c4444dd7fd"
        }
      }
    },
    {
      "fullUrl": "urn:uuid:4e176fc6-81a3-442a-929c-9a7ea49f5a9b",
      "resource": {
        "resourceType": "Observation",
        "id": "4e176fc6-81a3-442a-929c-9a7ea49f5a9b",
        "meta": {
          "profile": [
            "http://hl7.eu/fhir/laboratory/StructureDefinition/Observation-resultslab-eu-lab"
          ]
        },
        "performer": [
          {
            "display": "The Central European Lab"
          }
        ],
        "category": [
          {
            "coding": [
              {
                "system": "http://terminology.hl7.org/CodeSystem/observation-category",
                "code": "laboratory"
              }
            ]
          }
        ],
        "code": {
          "coding": [
            {
              "code": "5792-7",
              "system": "http://loinc.org",
              "display": "Glucose [Mass/volume] in Urine by Test strip"
            }
          ],
          "text": "Glucose [Mass/volume] in Urine by Test strip"
        },
        "valueQuantity": {
          "system": "http://unitsofmeasure.org",
          "value": 1.4,
          "unit": "mg/dL",
          "code": "mg/dL"
        },
        "referenceRange": [
          {
            "low": {
              "value": 0,
              "code": "mg/dL",
              "system": "http://unitsofmeasure.org"
            }
          },
          {
            "high": {
              "value": 0.8,
              "code": "mg/dL",
              "system": "http://unitsofmeasure.org"
            }
          }
        ],
        "interpretation": [
          {
            "coding": [
              {
                "code": "H",
                "system": "http://terminology.hl7.org/CodeSystem/v3-ObservationInterpretation",
                "display": "High"
              }
            ]
          }
        ],
        "text": {
          "status": "generated",
          "div": "<div xmlns=\"http://www.w3.org/1999/xhtml\"><table class=\"hl7__eu__lab__report\"><tr><th>Test</th><th>12-Mar-2023</th><th>Reference&#xA0;Range</th><th>Unit</th></tr><tr><td>Glucose [Mass/volume] in Urine by Test strip</td><td>1.4</td><td>0 - 0.8</td><td>H</td><td>mg/dL</td></tr></table></div>"
        },
        "status": "final",
        "subject": {
          "reference": "urn:uuid:6090e0c2-c4c5-4a95-ab7e-de07c235a0b8",
          "display": "Iva Kratochvílová"
        },
        "effectiveDateTime": "2023-03-12T16:10:29Z",
        "specimen": {
          "reference": "urn:uuid:160b7cd9-58a9-4ff5-b45c-38c4444dd7fd"
        }
      }
    },
    {
      "fullUrl": "urn:uuid:ffcdf731-4dd1-4a49-bdb5-515bb4fd5cf0",
      "resource": {
        "resourceType": "Observation",
        "id": "ffcdf731-4dd1-4a49-bdb5-515bb4fd5cf0",
        "meta": {
          "profile": [
            "http://hl7.eu/fhir/laboratory/StructureDefinition/Observation-resultslab-eu-lab"
          ]
        },
        "performer": [
          {
            "display": "The Central European Lab"
          }
        ],
        "category": [
          {
            "coding": [
              {
                "system": "http://terminology.hl7.org/CodeSystem/observation-category",
                "code": "laboratory"
              }
            ]
          }
        ],
        "code": {
          "coding": [
            {
              "code": "25428-4",
              "system": "http://loinc.org",
              "display": "Glucose [Presence] in Urine by Test strip"
            }
          ],
          "text": "Glucose [Presence] in Urine by Test strip"
        },
        "text": {
          "status": "generated",
          "div": "<div xmlns=\"http://www.w3.org/1999/xhtml\"><table class=\"hl7__eu__lab__report\"><tr><th>Test</th><th>12-Mar-2023</th><th>Reference&#xA0;Range</th><th>Unit</th></tr><tr><td>Glucose [Presence] in Urine by Test strip</td></tr></table></div>"
        },
        "status": "final",
        "subject": {
          "reference": "urn:uuid:6090e0c2-c4c5-4a95-ab7e-de07c235a0b8",
          "display": "Iva Kratochvílová"
        },
        "effectiveDateTime": "2023-03-12T16:10:29Z",
        "specimen": {
          "reference": "urn:uuid:160b7cd9-58a9-4ff5-b45c-38c4444dd7fd"
        }
      }
    },
    {
      "fullUrl": "urn:uuid:4a648837-fb42-4dd8-af6c-30019aa40083",
      "resource": {
        "resourceType": "Observation",
        "id": "4a648837-fb42-4dd8-af6c-30019aa40083",
        "meta": {
          "profile": [
            "http://hl7.eu/fhir/laboratory/StructureDefinition/Observation-resultslab-eu-lab"
          ]
        },
        "performer": [
          {
            "display": "The Central European Lab"
          }
        ],
        "category": [
          {
            "coding": [
              {
                "system": "http://terminology.hl7.org/CodeSystem/observation-category",
                "code": "laboratory"
              }
            ]
          }
        ],
        "code": {
          "coding": [
            {
              "code": "20505-4",
              "system": "http://loinc.org",
              "display": "Bilirubin.total [Mass/volume] in Urine by Test strip"
            }
          ],
          "text": "Bilirubin.total [Mass/volume] in Urine by Test strip"
        },
        "valueQuantity": {
          "system": "http://unitsofmeasure.org",
          "value": 0.3,
          "unit": "mg/dL",
          "code": "mg/dL"
        },
        "referenceRange": [
          {
            "low": {
              "value": 0,
              "code": "mg/dL",
              "system": "http://unitsofmeasure.org"
            }
          },
          {
            "high": {
              "value": 1,
              "code": "mg/dL",
              "system": "http://unitsofmeasure.org"
            }
          }
        ],
        "text": {
          "status": "generated",
          "div": "<div xmlns=\"http://www.w3.org/1999/xhtml\"><table class=\"hl7__eu__lab__report\"><tr><th>Test</th><th>12-Mar-2023</th><th>Reference&#xA0;Range</th><th>Unit</th></tr><tr><td>Bilirubin.total [Mass/volume] in Urine by Test strip</td><td>0.3</td><td>0 - 1</td><td></td><td>mg/dL</td></tr></table></div>"
        },
        "status": "final",
        "subject": {
          "reference": "urn:uuid:6090e0c2-c4c5-4a95-ab7e-de07c235a0b8",
          "display": "Iva Kratochvílová"
        },
        "effectiveDateTime": "2023-03-12T16:10:29Z",
        "specimen": {
          "reference": "urn:uuid:160b7cd9-58a9-4ff5-b45c-38c4444dd7fd"
        }
      }
    },
    {
      "fullUrl": "urn:uuid:6b500357-e720-46fe-9d8a-9bc3f80e94af",
      "resource": {
        "resourceType": "Observation",
        "id": "6b500357-e720-46fe-9d8a-9bc3f80e94af",
        "meta": {
          "profile": [
            "http://hl7.eu/fhir/laboratory/StructureDefinition/Observation-resultslab-eu-lab"
          ]
        },
        "performer": [
          {
            "display": "The Central European Lab"
          }
        ],
        "category": [
          {
            "coding": [
              {
                "system": "http://terminology.hl7.org/CodeSystem/observation-category",
                "code": "laboratory"
              }
            ]
          }
        ],
        "code": {
          "coding": [
            {
              "code": "5770-3",
              "system": "http://loinc.org",
              "display": "Bilirubin.total [Presence] in Urine by Test strip"
            }
          ],
          "text": "Bilirubin.total [Presence] in Urine by Test strip"
        },
        "text": {
          "status": "generated",
          "div": "<div xmlns=\"http://www.w3.org/1999/xhtml\"><table class=\"hl7__eu__lab__report\"><tr><th>Test</th><th>12-Mar-2023</th><th>Reference&#xA0;Range</th><th>Unit</th></tr><tr><td>Bilirubin.total [Presence] in Urine by Test strip</td></tr></table></div>"
        },
        "status": "final",
        "subject": {
          "reference": "urn:uuid:6090e0c2-c4c5-4a95-ab7e-de07c235a0b8",
          "display": "Iva Kratochvílová"
        },
        "effectiveDateTime": "2023-03-12T16:10:29Z",
        "specimen": {
          "reference": "urn:uuid:160b7cd9-58a9-4ff5-b45c-38c4444dd7fd"
        }
      }
    },
    {
      "fullUrl": "urn:uuid:5cc1ad91-f9d3-4e71-b4b3-8c014baef37e",
      "resource": {
        "resourceType": "Observation",
        "id": "5cc1ad91-f9d3-4e71-b4b3-8c014baef37e",
        "meta": {
          "profile": [
            "http://hl7.eu/fhir/laboratory/StructureDefinition/Observation-resultslab-eu-lab"
          ]
        },
        "performer": [
          {
            "display": "The Central European Lab"
          }
        ],
        "category": [
          {
            "coding": [
              {
                "system": "http://terminology.hl7.org/CodeSystem/observation-category",
                "code": "laboratory"
              }
            ]
          }
        ],
        "code": {
          "coding": [
            {
              "code": "5797-6",
              "system": "http://loinc.org",
              "display": "Ketones [Mass/volume] in Urine by Test strip"
            }
          ],
          "text": "Ketones [Mass/volume] in Urine by Test strip"
        },
        "valueQuantity": {
          "system": "http://unitsofmeasure.org",
          "value": 19.1,
          "unit": "mg/dL",
          "code": "mg/dL"
        },
        "referenceRange": [
          {
            "low": {
              "value": 0,
              "code": "mg/dL",
              "system": "http://unitsofmeasure.org"
            }
          },
          {
            "high": {
              "value": 4,
              "code": "mg/dL",
              "system": "http://unitsofmeasure.org"
            }
          }
        ],
        "interpretation": [
          {
            "coding": [
              {
                "code": "H",
                "system": "http://terminology.hl7.org/CodeSystem/v3-ObservationInterpretation",
                "display": "High"
              }
            ]
          }
        ],
        "text": {
          "status": "generated",
          "div": "<div xmlns=\"http://www.w3.org/1999/xhtml\"><table class=\"hl7__eu__lab__report\"><tr><th>Test</th><th>12-Mar-2023</th><th>Reference&#xA0;Range</th><th>Unit</th></tr><tr><td>Ketones [Mass/volume] in Urine by Test strip</td><td>19.1</td><td>0 - 4</td><td>H</td><td>mg/dL</td></tr></table></div>"
        },
        "status": "final",
        "subject": {
          "reference": "urn:uuid:6090e0c2-c4c5-4a95-ab7e-de07c235a0b8",
          "display": "Iva Kratochvílová"
        },
        "effectiveDateTime": "2023-03-12T16:10:29Z",
        "specimen": {
          "reference": "urn:uuid:160b7cd9-58a9-4ff5-b45c-38c4444dd7fd"
        }
      }
    },
    {
      "fullUrl": "urn:uuid:6d8e3689-929e-44c3-8a1b-f7f7f6bc1126",
      "resource": {
        "resourceType": "Observation",
        "id": "6d8e3689-929e-44c3-8a1b-f7f7f6bc1126",
        "meta": {
          "profile": [
            "http://hl7.eu/fhir/laboratory/StructureDefinition/Observation-resultslab-eu-lab"
          ]
        },
        "performer": [
          {
            "display": "The Central European Lab"
          }
        ],
        "category": [
          {
            "coding": [
              {
                "system": "http://terminology.hl7.org/CodeSystem/observation-category",
                "code": "laboratory"
              }
            ]
          }
        ],
        "code": {
          "coding": [
            {
              "code": "2514-8",
              "system": "http://loinc.org",
              "display": "Ketones [Presence] in Urine by Test strip"
            }
          ],
          "text": "Ketones [Presence] in Urine by Test strip"
        },
        "text": {
          "status": "generated",
          "div": "<div xmlns=\"http://www.w3.org/1999/xhtml\"><table class=\"hl7__eu__lab__report\"><tr><th>Test</th><th>12-Mar-2023</th><th>Reference&#xA0;Range</th><th>Unit</th></tr><tr><td>Ketones [Presence] in Urine by Test strip</td></tr></table></div>"
        },
        "status": "final",
        "subject": {
          "reference": "urn:uuid:6090e0c2-c4c5-4a95-ab7e-de07c235a0b8",
          "display": "Iva Kratochvílová"
        },
        "effectiveDateTime": "2023-03-12T16:10:29Z",
        "specimen": {
          "reference": "urn:uuid:160b7cd9-58a9-4ff5-b45c-38c4444dd7fd"
        }
      }
    },
    {
      "fullUrl": "urn:uuid:d9d55b4f-3ac6-4083-8e9a-77cfd344ce61",
      "resource": {
        "resourceType": "Observation",
        "id": "d9d55b4f-3ac6-4083-8e9a-77cfd344ce61",
        "meta": {
          "profile": [
            "http://hl7.eu/fhir/laboratory/StructureDefinition/Observation-resultslab-eu-lab"
          ]
        },
        "performer": [
          {
            "display": "The Central European Lab"
          }
        ],
        "category": [
          {
            "coding": [
              {
                "system": "http://terminology.hl7.org/CodeSystem/observation-category",
                "code": "laboratory"
              }
            ]
          }
        ],
        "code": {
          "coding": [
            {
              "code": "5811-5",
              "system": "http://loinc.org",
              "display": "Specific gravity of Urine by Test strip"
            }
          ],
          "text": "Specific gravity of Urine by Test strip"
        },
        "valueQuantity": {
          "system": "http://unitsofmeasure.org",
          "value": 1,
          "unit": "{nominal}",
          "code": "{nominal}"
        },
        "referenceRange": [
          {
            "low": {
              "value": 1.005,
              "code": "g/mL",
              "system": "http://unitsofmeasure.org"
            }
          },
          {
            "high": {
              "value": 1.03,
              "code": "g/mL",
              "system": "http://unitsofmeasure.org"
            }
          }
        ],
        "interpretation": [
          {
            "coding": [
              {
                "code": "L",
                "system": "http://terminology.hl7.org/CodeSystem/v3-ObservationInterpretation",
                "display": "Low"
              }
            ]
          }
        ],
        "text": {
          "status": "generated",
          "div": "<div xmlns=\"http://www.w3.org/1999/xhtml\"><table class=\"hl7__eu__lab__report\"><tr><th>Test</th><th>12-Mar-2023</th><th>Reference&#xA0;Range</th><th>Unit</th></tr><tr><td>Specific gravity of Urine by Test strip</td><td>1.0</td><td>1.005 - 1.03</td><td>L</td><td>{nominal}</td></tr></table></div>"
        },
        "status": "final",
        "subject": {
          "reference": "urn:uuid:6090e0c2-c4c5-4a95-ab7e-de07c235a0b8",
          "display": "Iva Kratochvílová"
        },
        "effectiveDateTime": "2023-03-12T16:10:29Z",
        "specimen": {
          "reference": "urn:uuid:160b7cd9-58a9-4ff5-b45c-38c4444dd7fd"
        }
      }
    },
    {
      "fullUrl": "urn:uuid:c4636c36-147c-420c-b466-972600e6c6e2",
      "resource": {
        "resourceType": "Observation",
        "id": "c4636c36-147c-420c-b466-972600e6c6e2",
        "meta": {
          "profile": [
            "http://hl7.eu/fhir/laboratory/StructureDefinition/Observation-resultslab-eu-lab"
          ]
        },
        "performer": [
          {
            "display": "The Central European Lab"
          }
        ],
        "category": [
          {
            "coding": [
              {
                "system": "http://terminology.hl7.org/CodeSystem/observation-category",
                "code": "laboratory"
              }
            ]
          }
        ],
        "code": {
          "coding": [
            {
              "code": "5803-2",
              "system": "http://loinc.org",
              "display": "pH of Urine by Test strip"
            }
          ],
          "text": "pH of Urine by Test strip"
        },
        "valueQuantity": {
          "system": "http://unitsofmeasure.org",
          "value": 5.7,
          "unit": "pH",
          "code": "pH"
        },
        "referenceRange": [
          {
            "low": {
              "value": 4.5,
              "code": "pH",
              "system": "http://unitsofmeasure.org"
            }
          },
          {
            "high": {
              "value": 7,
              "code": "pH",
              "system": "http://unitsofmeasure.org"
            }
          }
        ],
        "text": {
          "status": "generated",
          "div": "<div xmlns=\"http://www.w3.org/1999/xhtml\"><table class=\"hl7__eu__lab__report\"><tr><th>Test</th><th>12-Mar-2023</th><th>Reference&#xA0;Range</th><th>Unit</th></tr><tr><td>pH of Urine by Test strip</td><td>5.7</td><td>4.5 - 7</td><td></td><td>pH</td></tr></table></div>"
        },
        "status": "final",
        "subject": {
          "reference": "urn:uuid:6090e0c2-c4c5-4a95-ab7e-de07c235a0b8",
          "display": "Iva Kratochvílová"
        },
        "effectiveDateTime": "2023-03-12T16:10:29Z",
        "specimen": {
          "reference": "urn:uuid:160b7cd9-58a9-4ff5-b45c-38c4444dd7fd"
        }
      }
    },
    {
      "fullUrl": "urn:uuid:e1935736-ffcb-4b87-9f6a-c7dec3ab7431",
      "resource": {
        "resourceType": "Observation",
        "id": "e1935736-ffcb-4b87-9f6a-c7dec3ab7431",
        "meta": {
          "profile": [
            "http://hl7.eu/fhir/laboratory/StructureDefinition/Observation-resultslab-eu-lab"
          ]
        },
        "performer": [
          {
            "display": "The Central European Lab"
          }
        ],
        "category": [
          {
            "coding": [
              {
                "system": "http://terminology.hl7.org/CodeSystem/observation-category",
                "code": "laboratory"
              }
            ]
          }
        ],
        "code": {
          "coding": [
            {
              "code": "5804-0",
              "system": "http://loinc.org",
              "display": "Protein [Mass/volume] in Urine by Test strip"
            }
          ],
          "text": "Protein [Mass/volume] in Urine by Test strip"
        },
        "valueQuantity": {
          "system": "http://unitsofmeasure.org",
          "value": 310.4,
          "unit": "mg/dL",
          "code": "mg/dL"
        },
        "referenceRange": [
          {
            "low": {
              "value": 0,
              "code": "mg/dL",
              "system": "http://unitsofmeasure.org"
            }
          },
          {
            "high": {
              "value": 145,
              "code": "mg/dL",
              "system": "http://unitsofmeasure.org"
            }
          }
        ],
        "interpretation": [
          {
            "coding": [
              {
                "code": "H",
                "system": "http://terminology.hl7.org/CodeSystem/v3-ObservationInterpretation",
                "display": "High"
              }
            ]
          }
        ],
        "text": {
          "status": "generated",
          "div": "<div xmlns=\"http://www.w3.org/1999/xhtml\"><table class=\"hl7__eu__lab__report\"><tr><th>Test</th><th>12-Mar-2023</th><th>Reference&#xA0;Range</th><th>Unit</th></tr><tr><td>Protein [Mass/volume] in Urine by Test strip</td><td>310.4</td><td>0 - 145</td><td>H</td><td>mg/dL</td></tr></table></div>"
        },
        "status": "final",
        "subject": {
          "reference": "urn:uuid:6090e0c2-c4c5-4a95-ab7e-de07c235a0b8",
          "display": "Iva Kratochvílová"
        },
        "effectiveDateTime": "2023-03-12T16:10:29Z",
        "specimen": {
          "reference": "urn:uuid:160b7cd9-58a9-4ff5-b45c-38c4444dd7fd"
        }
      }
    },
    {
      "fullUrl": "urn:uuid:c9f78e6f-2218-4186-8eb4-478aea43baaf",
      "resource": {
        "resourceType": "Observation",
        "id": "c9f78e6f-2218-4186-8eb4-478aea43baaf",
        "meta": {
          "profile": [
            "http://hl7.eu/fhir/laboratory/StructureDefinition/Observation-resultslab-eu-lab"
          ]
        },
        "performer": [
          {
            "display": "The Central European Lab"
          }
        ],
        "category": [
          {
            "coding": [
              {
                "system": "http://terminology.hl7.org/CodeSystem/observation-category",
                "code": "laboratory"
              }
            ]
          }
        ],
        "code": {
          "coding": [
            {
              "code": "20454-5",
              "system": "http://loinc.org",
              "display": "Protein [Presence] in Urine by Test strip"
            }
          ],
          "text": "Protein [Presence] in Urine by Test strip"
        },
        "text": {
          "status": "generated",
          "div": "<div xmlns=\"http://www.w3.org/1999/xhtml\"><table class=\"hl7__eu__lab__report\"><tr><th>Test</th><th>12-Mar-2023</th><th>Reference&#xA0;Range</th><th>Unit</th></tr><tr><td>Protein [Presence] in Urine by Test strip</td></tr></table></div>"
        },
        "status": "final",
        "subject": {
          "reference": "urn:uuid:6090e0c2-c4c5-4a95-ab7e-de07c235a0b8",
          "display": "Iva Kratochvílová"
        },
        "effectiveDateTime": "2023-03-12T16:10:29Z",
        "specimen": {
          "reference": "urn:uuid:160b7cd9-58a9-4ff5-b45c-38c4444dd7fd"
        }
      }
    },
    {
      "fullUrl": "urn:uuid:8a946c78-f23d-4b25-9a17-839c50cafb7c",
      "resource": {
        "resourceType": "Observation",
        "id": "8a946c78-f23d-4b25-9a17-839c50cafb7c",
        "meta": {
          "profile": [
            "http://hl7.eu/fhir/laboratory/StructureDefinition/Observation-resultslab-eu-lab"
          ]
        },
        "performer": [
          {
            "display": "The Central European Lab"
          }
        ],
        "category": [
          {
            "coding": [
              {
                "system": "http://terminology.hl7.org/CodeSystem/observation-category",
                "code": "laboratory"
              }
            ]
          }
        ],
        "code": {
          "coding": [
            {
              "code": "5802-4",
              "system": "http://loinc.org",
              "display": "Nitrite [Presence] in Urine by Test strip"
            }
          ],
          "text": "Nitrite [Presence] in Urine by Test strip"
        },
        "text": {
          "status": "generated",
          "div": "<div xmlns=\"http://www.w3.org/1999/xhtml\"><table class=\"hl7__eu__lab__report\"><tr><th>Test</th><th>12-Mar-2023</th><th>Reference&#xA0;Range</th><th>Unit</th></tr><tr><td>Nitrite [Presence] in Urine by Test strip</td></tr></table></div>"
        },
        "status": "final",
        "subject": {
          "reference": "urn:uuid:6090e0c2-c4c5-4a95-ab7e-de07c235a0b8",
          "display": "Iva Kratochvílová"
        },
        "effectiveDateTime": "2023-03-12T16:10:29Z",
        "specimen": {
          "reference": "urn:uuid:160b7cd9-58a9-4ff5-b45c-38c4444dd7fd"
        }
      }
    },
    {
      "fullUrl": "urn:uuid:9977c25b-ba59-4742-b0fc-a99bb571562e",
      "resource": {
        "resourceType": "Observation",
        "id": "9977c25b-ba59-4742-b0fc-a99bb571562e",
        "meta": {
          "profile": [
            "http://hl7.eu/fhir/laboratory/StructureDefinition/Observation-resultslab-eu-lab"
          ]
        },
        "performer": [
          {
            "display": "The Central European Lab"
          }
        ],
        "category": [
          {
            "coding": [
              {
                "system": "http://terminology.hl7.org/CodeSystem/observation-category",
                "code": "laboratory"
              }
            ]
          }
        ],
        "code": {
          "coding": [
            {
              "code": "5794-3",
              "system": "http://loinc.org",
              "display": "Hemoglobin [Presence] in Urine by Test strip"
            }
          ],
          "text": "Hemoglobin [Presence] in Urine by Test strip"
        },
        "text": {
          "status": "generated",
          "div": "<div xmlns=\"http://www.w3.org/1999/xhtml\"><table class=\"hl7__eu__lab__report\"><tr><th>Test</th><th>12-Mar-2023</th><th>Reference&#xA0;Range</th><th>Unit</th></tr><tr><td>Hemoglobin [Presence] in Urine by Test strip</td></tr></table></div>"
        },
        "status": "final",
        "subject": {
          "reference": "urn:uuid:6090e0c2-c4c5-4a95-ab7e-de07c235a0b8",
          "display": "Iva Kratochvílová"
        },
        "effectiveDateTime": "2023-03-12T16:10:29Z",
        "specimen": {
          "reference": "urn:uuid:160b7cd9-58a9-4ff5-b45c-38c4444dd7fd"
        }
      }
    },
    {
      "fullUrl": "urn:uuid:9ae6eaaa-e58f-4e87-92ea-18fdcc313fd0",
      "resource": {
        "resourceType": "Observation",
        "id": "9ae6eaaa-e58f-4e87-92ea-18fdcc313fd0",
        "meta": {
          "profile": [
            "http://hl7.eu/fhir/laboratory/StructureDefinition/Observation-resultslab-eu-lab"
          ]
        },
        "performer": [
          {
            "display": "The Central European Lab"
          }
        ],
        "category": [
          {
            "coding": [
              {
                "system": "http://terminology.hl7.org/CodeSystem/observation-category",
                "code": "laboratory"
              }
            ]
          }
        ],
        "code": {
          "coding": [
            {
              "code": "5799-2",
              "system": "http://loinc.org",
              "display": "Leukocyte esterase [Presence] in Urine by Test strip"
            }
          ],
          "text": "Leukocyte esterase [Presence] in Urine by Test strip"
        },
        "text": {
          "status": "generated",
          "div": "<div xmlns=\"http://www.w3.org/1999/xhtml\"><table class=\"hl7__eu__lab__report\"><tr><th>Test</th><th>12-Mar-2023</th><th>Reference&#xA0;Range</th><th>Unit</th></tr><tr><td>Leukocyte esterase [Presence] in Urine by Test strip</td></tr></table></div>"
        },
        "status": "final",
        "subject": {
          "reference": "urn:uuid:6090e0c2-c4c5-4a95-ab7e-de07c235a0b8",
          "display": "Iva Kratochvílová"
        },
        "effectiveDateTime": "2023-03-12T16:10:29Z",
        "specimen": {
          "reference": "urn:uuid:160b7cd9-58a9-4ff5-b45c-38c4444dd7fd"
        }
      }
    },
    {
      "fullUrl": "urn:uuid:f026a4f9-d633-4392-bea7-33c6465e3494",
      "resource": {
        "resourceType": "Observation",
        "id": "f026a4f9-d633-4392-bea7-33c6465e3494",
        "meta": {
          "profile": [
            "http://hl7.eu/fhir/laboratory/StructureDefinition/Observation-resultslab-eu-lab"
          ]
        },
        "performer": [
          {
            "display": "The Central European Lab"
          }
        ],
        "category": [
          {
            "coding": [
              {
                "system": "http://terminology.hl7.org/CodeSystem/observation-category",
                "code": "laboratory"
              }
            ]
          }
        ],
        "code": {
          "coding": [
            {
              "code": "4548-4",
              "system": "http://loinc.org",
              "display": "Hemoglobin A1c/Hemoglobin.total in Blood"
            }
          ],
          "text": "Hemoglobin A1c/Hemoglobin.total in Blood"
        },
        "valueQuantity": {
          "system": "http://unitsofmeasure.org",
          "value": 2.9,
          "unit": "%",
          "code": "%"
        },
        "referenceRange": [
          {
            "low": {
              "value": 4,
              "code": "%",
              "system": "http://unitsofmeasure.org"
            }
          },
          {
            "high": {
              "value": 6,
              "code": "%",
              "system": "http://unitsofmeasure.org"
            }
          }
        ],
        "interpretation": [
          {
            "coding": [
              {
                "code": "L",
                "system": "http://terminology.hl7.org/CodeSystem/v3-ObservationInterpretation",
                "display": "Low"
              }
            ]
          }
        ],
        "text": {
          "status": "generated",
          "div": "<div xmlns=\"http://www.w3.org/1999/xhtml\"><table class=\"hl7__eu__lab__report\"><tr><th>Test</th><th>12-Mar-2023</th><th>Reference&#xA0;Range</th><th>Unit</th></tr><tr><td>Hemoglobin A1c/Hemoglobin.total in Blood</td><td>2.9</td><td>4 - 6</td><td>L</td><td>%</td></tr></table></div>"
        },
        "status": "final",
        "subject": {
          "reference": "urn:uuid:6090e0c2-c4c5-4a95-ab7e-de07c235a0b8",
          "display": "Iva Kratochvílová"
        },
        "effectiveDateTime": "2023-03-12T16:10:29Z",
        "specimen": {
          "reference": "urn:uuid:2d2cca39-18b5-4db6-8e20-50fde05a744e"
        }
      }
    },
    {
      "fullUrl": "urn:uuid:ff26016d-d216-495a-a8ad-b0498d3ba779",
      "resource": {
        "resourceType": "Observation",
        "id": "ff26016d-d216-495a-a8ad-b0498d3ba779",
        "meta": {
          "profile": [
            "http://hl7.eu/fhir/laboratory/StructureDefinition/Observation-resultslab-eu-lab"
          ]
        },
        "performer": [
          {
            "display": "The Central European Lab"
          }
        ],
        "category": [
          {
            "coding": [
              {
                "system": "http://terminology.hl7.org/CodeSystem/observation-category",
                "code": "laboratory"
              }
            ]
          }
        ],
        "code": {
          "coding": [
            {
              "code": "2339-0",
              "system": "http://loinc.org",
              "display": "Glucose [Mass/volume] in Blood"
            }
          ],
          "text": "Glucose [Mass/volume] in Blood"
        },
        "valueQuantity": {
          "system": "http://unitsofmeasure.org",
          "value": 72.3,
          "unit": "mg/dL",
          "code": "mg/dL"
        },
        "referenceRange": [
          {
            "low": {
              "value": 70,
              "code": "mg/dL",
              "system": "http://unitsofmeasure.org"
            }
          },
          {
            "high": {
              "value": 140,
              "code": "mg/dL",
              "system": "http://unitsofmeasure.org"
            }
          }
        ],
        "text": {
          "status": "generated",
          "div": "<div xmlns=\"http://www.w3.org/1999/xhtml\"><table class=\"hl7__eu__lab__report\"><tr><th>Test</th><th>12-Mar-2023</th><th>Reference&#xA0;Range</th><th>Unit</th></tr><tr><td>Glucose [Mass/volume] in Blood</td><td>72.3</td><td>70 - 140</td><td></td><td>mg/dL</td></tr></table></div>"
        },
        "status": "final",
        "subject": {
          "reference": "urn:uuid:6090e0c2-c4c5-4a95-ab7e-de07c235a0b8",
          "display": "Iva Kratochvílová"
        },
        "effectiveDateTime": "2023-03-12T16:10:29Z",
        "specimen": {
          "reference": "urn:uuid:2d2cca39-18b5-4db6-8e20-50fde05a744e"
        }
      }
    },
    {
      "fullUrl": "urn:uuid:f2748b3f-fa57-4846-9dd0-c9f960adbf34",
      "resource": {
        "resourceType": "Observation",
        "id": "f2748b3f-fa57-4846-9dd0-c9f960adbf34",
        "meta": {
          "profile": [
            "http://hl7.eu/fhir/laboratory/StructureDefinition/Observation-resultslab-eu-lab"
          ]
        },
        "performer": [
          {
            "display": "The Central European Lab"
          }
        ],
        "category": [
          {
            "coding": [
              {
                "system": "http://terminology.hl7.org/CodeSystem/observation-category",
                "code": "laboratory"
              }
            ]
          }
        ],
        "code": {
          "coding": [
            {
              "code": "6299-2",
              "system": "http://loinc.org",
              "display": "Urea nitrogen [Mass/volume] in Blood"
            }
          ],
          "text": "Urea nitrogen [Mass/volume] in Blood"
        },
        "valueQuantity": {
          "system": "http://unitsofmeasure.org",
          "value": 10.2,
          "unit": "mg/dL",
          "code": "mg/dL"
        },
        "referenceRange": [
          {
            "low": {
              "value": 7,
              "code": "mg/dL",
              "system": "http://unitsofmeasure.org"
            }
          },
          {
            "high": {
              "value": 25,
              "code": "mg/dL",
              "system": "http://unitsofmeasure.org"
            }
          }
        ],
        "text": {
          "status": "generated",
          "div": "<div xmlns=\"http://www.w3.org/1999/xhtml\"><table class=\"hl7__eu__lab__report\"><tr><th>Test</th><th>12-Mar-2023</th><th>Reference&#xA0;Range</th><th>Unit</th></tr><tr><td>Urea nitrogen [Mass/volume] in Blood</td><td>10.2</td><td>7 - 25</td><td></td><td>mg/dL</td></tr></table></div>"
        },
        "status": "final",
        "subject": {
          "reference": "urn:uuid:6090e0c2-c4c5-4a95-ab7e-de07c235a0b8",
          "display": "Iva Kratochvílová"
        },
        "effectiveDateTime": "2023-03-12T16:10:29Z",
        "specimen": {
          "reference": "urn:uuid:2d2cca39-18b5-4db6-8e20-50fde05a744e"
        }
      }
    },
    {
      "fullUrl": "urn:uuid:012592fc-f86e-450a-ae9a-fa7a8a4df9d4",
      "resource": {
        "resourceType": "Observation",
        "id": "012592fc-f86e-450a-ae9a-fa7a8a4df9d4",
        "meta": {
          "profile": [
            "http://hl7.eu/fhir/laboratory/StructureDefinition/Observation-resultslab-eu-lab"
          ]
        },
        "performer": [
          {
            "display": "The Central European Lab"
          }
        ],
        "category": [
          {
            "coding": [
              {
                "system": "http://terminology.hl7.org/CodeSystem/observation-category",
                "code": "laboratory"
              }
            ]
          }
        ],
        "code": {
          "coding": [
            {
              "code": "38483-4",
              "system": "http://loinc.org",
              "display": "Creatinine [Mass/volume] in Blood"
            }
          ],
          "text": "Creatinine [Mass/volume] in Blood"
        },
        "valueQuantity": {
          "system": "http://unitsofmeasure.org",
          "value": 1.3,
          "unit": "mg/dL",
          "code": "mg/dL"
        },
        "referenceRange": [
          {
            "low": {
              "value": 0.6,
              "code": "mg/dL",
              "system": "http://unitsofmeasure.org"
            }
          },
          {
            "high": {
              "value": 1.1,
              "code": "mg/dL",
              "system": "http://unitsofmeasure.org"
            }
          }
        ],
        "interpretation": [
          {
            "coding": [
              {
                "code": "H",
                "system": "http://terminology.hl7.org/CodeSystem/v3-ObservationInterpretation",
                "display": "High"
              }
            ]
          }
        ],
        "text": {
          "status": "generated",
          "div": "<div xmlns=\"http://www.w3.org/1999/xhtml\"><table class=\"hl7__eu__lab__report\"><tr><th>Test</th><th>12-Mar-2023</th><th>Reference&#xA0;Range</th><th>Unit</th></tr><tr><td>Creatinine [Mass/volume] in Blood</td><td>1.3</td><td>0.6 - 1.1</td><td>H</td><td>mg/dL</td></tr></table></div>"
        },
        "status": "final",
        "subject": {
          "reference": "urn:uuid:6090e0c2-c4c5-4a95-ab7e-de07c235a0b8",
          "display": "Iva Kratochvílová"
        },
        "effectiveDateTime": "2023-03-12T16:10:29Z",
        "specimen": {
          "reference": "urn:uuid:2d2cca39-18b5-4db6-8e20-50fde05a744e"
        }
      }
    },
    {
      "fullUrl": "urn:uuid:27b4fdd4-7f95-4781-b164-8d639174de8f",
      "resource": {
        "resourceType": "Observation",
        "id": "27b4fdd4-7f95-4781-b164-8d639174de8f",
        "meta": {
          "profile": [
            "http://hl7.eu/fhir/laboratory/StructureDefinition/Observation-resultslab-eu-lab"
          ]
        },
        "performer": [
          {
            "display": "The Central European Lab"
          }
        ],
        "category": [
          {
            "coding": [
              {
                "system": "http://terminology.hl7.org/CodeSystem/observation-category",
                "code": "laboratory"
              }
            ]
          }
        ],
        "code": {
          "coding": [
            {
              "code": "49765-1",
              "system": "http://loinc.org",
              "display": "Calcium [Mass/volume] in Blood"
            }
          ],
          "text": "Calcium [Mass/volume] in Blood"
        },
        "valueQuantity": {
          "system": "http://unitsofmeasure.org",
          "value": 8.8,
          "unit": "mg/dL",
          "code": "mg/dL"
        },
        "referenceRange": [
          {
            "low": {
              "value": 8.6,
              "code": "mg/dL",
              "system": "http://unitsofmeasure.org"
            }
          },
          {
            "high": {
              "value": 10.4,
              "code": "mg/dL",
              "system": "http://unitsofmeasure.org"
            }
          }
        ],
        "text": {
          "status": "generated",
          "div": "<div xmlns=\"http://www.w3.org/1999/xhtml\"><table class=\"hl7__eu__lab__report\"><tr><th>Test</th><th>12-Mar-2023</th><th>Reference&#xA0;Range</th><th>Unit</th></tr><tr><td>Calcium [Mass/volume] in Blood</td><td>8.8</td><td>8.6 - 10.4</td><td></td><td>mg/dL</td></tr></table></div>"
        },
        "status": "final",
        "subject": {
          "reference": "urn:uuid:6090e0c2-c4c5-4a95-ab7e-de07c235a0b8",
          "display": "Iva Kratochvílová"
        },
        "effectiveDateTime": "2023-03-12T16:10:29Z",
        "specimen": {
          "reference": "urn:uuid:2d2cca39-18b5-4db6-8e20-50fde05a744e"
        }
      }
    },
    {
      "fullUrl": "urn:uuid:e9164376-45ab-48da-b59a-ed054373b82e",
      "resource": {
        "resourceType": "Observation",
        "id": "e9164376-45ab-48da-b59a-ed054373b82e",
        "meta": {
          "profile": [
            "http://hl7.eu/fhir/laboratory/StructureDefinition/Observation-resultslab-eu-lab"
          ]
        },
        "performer": [
          {
            "display": "The Central European Lab"
          }
        ],
        "category": [
          {
            "coding": [
              {
                "system": "http://terminology.hl7.org/CodeSystem/observation-category",
                "code": "laboratory"
              }
            ]
          }
        ],
        "code": {
          "coding": [
            {
              "code": "2947-0",
              "system": "http://loinc.org",
              "display": "Sodium [Moles/volume] in Blood"
            }
          ],
          "text": "Sodium [Moles/volume] in Blood"
        },
        "valueQuantity": {
          "system": "http://unitsofmeasure.org",
          "value": 141.2,
          "unit": "mmol/L",
          "code": "mmol/L"
        },
        "referenceRange": [
          {
            "low": {
              "value": 135,
              "code": "mmol/L",
              "system": "http://unitsofmeasure.org"
            }
          },
          {
            "high": {
              "value": 145,
              "code": "mmol/L",
              "system": "http://unitsofmeasure.org"
            }
          }
        ],
        "text": {
          "status": "generated",
          "div": "<div xmlns=\"http://www.w3.org/1999/xhtml\"><table class=\"hl7__eu__lab__report\"><tr><th>Test</th><th>12-Mar-2023</th><th>Reference&#xA0;Range</th><th>Unit</th></tr><tr><td>Sodium [Moles/volume] in Blood</td><td>141.2</td><td>135 - 145</td><td></td><td>mmol/L</td></tr></table></div>"
        },
        "status": "final",
        "subject": {
          "reference": "urn:uuid:6090e0c2-c4c5-4a95-ab7e-de07c235a0b8",
          "display": "Iva Kratochvílová"
        },
        "effectiveDateTime": "2023-03-12T16:10:29Z",
        "specimen": {
          "reference": "urn:uuid:2d2cca39-18b5-4db6-8e20-50fde05a744e"
        }
      }
    },
    {
      "fullUrl": "urn:uuid:5384a5fb-946a-4550-9d16-7324ad3e6519",
      "resource": {
        "resourceType": "Observation",
        "id": "5384a5fb-946a-4550-9d16-7324ad3e6519",
        "meta": {
          "profile": [
            "http://hl7.eu/fhir/laboratory/StructureDefinition/Observation-resultslab-eu-lab"
          ]
        },
        "performer": [
          {
            "display": "The Central European Lab"
          }
        ],
        "category": [
          {
            "coding": [
              {
                "system": "http://terminology.hl7.org/CodeSystem/observation-category",
                "code": "laboratory"
              }
            ]
          }
        ],
        "code": {
          "coding": [
            {
              "code": "6298-4",
              "system": "http://loinc.org",
              "display": "Potassium [Moles/volume] in Blood"
            }
          ],
          "text": "Potassium [Moles/volume] in Blood"
        },
        "valueQuantity": {
          "system": "http://unitsofmeasure.org",
          "value": 4.5,
          "unit": "mmol/L",
          "code": "mmol/L"
        },
        "referenceRange": [
          {
            "low": {
              "value": 3.5,
              "code": "mmol/L",
              "system": "http://unitsofmeasure.org"
            }
          },
          {
            "high": {
              "value": 5.1,
              "code": "mmol/L",
              "system": "http://unitsofmeasure.org"
            }
          }
        ],
        "text": {
          "status": "generated",
          "div": "<div xmlns=\"http://www.w3.org/1999/xhtml\"><table class=\"hl7__eu__lab__report\"><tr><th>Test</th><th>12-Mar-2023</th><th>Reference&#xA0;Range</th><th>Unit</th></tr><tr><td>Potassium [Moles/volume] in Blood</td><td>4.5</td><td>3.5 - 5.1</td><td></td><td>mmol/L</td></tr></table></div>"
        },
        "status": "final",
        "subject": {
          "reference": "urn:uuid:6090e0c2-c4c5-4a95-ab7e-de07c235a0b8",
          "display": "Iva Kratochvílová"
        },
        "effectiveDateTime": "2023-03-12T16:10:29Z",
        "specimen": {
          "reference": "urn:uuid:2d2cca39-18b5-4db6-8e20-50fde05a744e"
        }
      }
    },
    {
      "fullUrl": "urn:uuid:cd4b46e5-5c76-4761-8764-2632fc5e7b40",
      "resource": {
        "resourceType": "Observation",
        "id": "cd4b46e5-5c76-4761-8764-2632fc5e7b40",
        "meta": {
          "profile": [
            "http://hl7.eu/fhir/laboratory/StructureDefinition/Observation-resultslab-eu-lab"
          ]
        },
        "performer": [
          {
            "display": "The Central European Lab"
          }
        ],
        "category": [
          {
            "coding": [
              {
                "system": "http://terminology.hl7.org/CodeSystem/observation-category",
                "code": "laboratory"
              }
            ]
          }
        ],
        "code": {
          "coding": [
            {
              "code": "2069-3",
              "system": "http://loinc.org",
              "display": "Chloride [Moles/volume] in Blood"
            }
          ],
          "text": "Chloride [Moles/volume] in Blood"
        },
        "valueQuantity": {
          "system": "http://unitsofmeasure.org",
          "value": 107.9,
          "unit": "mmol/L",
          "code": "mmol/L"
        },
        "referenceRange": [
          {
            "low": {
              "value": 98,
              "code": "mmol/L",
              "system": "http://unitsofmeasure.org"
            }
          },
          {
            "high": {
              "value": 110,
              "code": "mmol/L",
              "system": "http://unitsofmeasure.org"
            }
          }
        ],
        "text": {
          "status": "generated",
          "div": "<div xmlns=\"http://www.w3.org/1999/xhtml\"><table class=\"hl7__eu__lab__report\"><tr><th>Test</th><th>12-Mar-2023</th><th>Reference&#xA0;Range</th><th>Unit</th></tr><tr><td>Chloride [Moles/volume] in Blood</td><td>107.9</td><td>98 - 110</td><td></td><td>mmol/L</td></tr></table></div>"
        },
        "status": "final",
        "subject": {
          "reference": "urn:uuid:6090e0c2-c4c5-4a95-ab7e-de07c235a0b8",
          "display": "Iva Kratochvílová"
        },
        "effectiveDateTime": "2023-03-12T16:10:29Z",
        "specimen": {
          "reference": "urn:uuid:2d2cca39-18b5-4db6-8e20-50fde05a744e"
        }
      }
    },
    {
      "fullUrl": "urn:uuid:a72632eb-152b-4ab1-8cc8-ac603d7fa564",
      "resource": {
        "resourceType": "Observation",
        "id": "a72632eb-152b-4ab1-8cc8-ac603d7fa564",
        "meta": {
          "profile": [
            "http://hl7.eu/fhir/laboratory/StructureDefinition/Observation-resultslab-eu-lab"
          ]
        },
        "performer": [
          {
            "display": "The Central European Lab"
          }
        ],
        "category": [
          {
            "coding": [
              {
                "system": "http://terminology.hl7.org/CodeSystem/observation-category",
                "code": "laboratory"
              }
            ]
          }
        ],
        "code": {
          "coding": [
            {
              "code": "20565-8",
              "system": "http://loinc.org",
              "display": "Carbon dioxide, total [Moles/volume] in Blood"
            }
          ],
          "text": "Carbon dioxide, total [Moles/volume] in Blood"
        },
        "valueQuantity": {
          "system": "http://unitsofmeasure.org",
          "value": 28.5,
          "unit": "mmol/L",
          "code": "mmol/L"
        },
        "referenceRange": [
          {
            "low": {
              "value": 22,
              "code": "mmol/L",
              "system": "http://unitsofmeasure.org"
            }
          },
          {
            "high": {
              "value": 29,
              "code": "mmol/L",
              "system": "http://unitsofmeasure.org"
            }
          }
        ],
        "text": {
          "status": "generated",
          "div": "<div xmlns=\"http://www.w3.org/1999/xhtml\"><table class=\"hl7__eu__lab__report\"><tr><th>Test</th><th>12-Mar-2023</th><th>Reference&#xA0;Range</th><th>Unit</th></tr><tr><td>Carbon dioxide, total [Moles/volume] in Blood</td><td>28.5</td><td>22 - 29</td><td></td><td>mmol/L</td></tr></table></div>"
        },
        "status": "final",
        "subject": {
          "reference": "urn:uuid:6090e0c2-c4c5-4a95-ab7e-de07c235a0b8",
          "display": "Iva Kratochvílová"
        },
        "effectiveDateTime": "2023-03-12T16:10:29Z",
        "specimen": {
          "reference": "urn:uuid:2d2cca39-18b5-4db6-8e20-50fde05a744e"
        }
      }
    },
    {
      "fullUrl": "urn:uuid:d6074732-2bb1-4648-85cf-37296ef500a2",
      "resource": {
        "resourceType": "Device",
        "id": "d6074732-2bb1-4648-85cf-37296ef500a2",
        "deviceName": [
          {
            "name": "SYNDERAI Synthetic Generator",
            "type": "manufacturer-name"
          }
        ],
        "version": [
          {
            "value": "5.0"
          }
        ],
        "text": {
          "status": "generated",
          "div": "<div xmlns=\"http://www.w3.org/1999/xhtml\">SYNDERAI Synthetic Generator v5.0</div>"
        },
        "status": "active\"",
        "distinctIdentifier": "synderai-generator-50",
        "manufacturer": "SYNDERAI Project"
      }
    },
    {
      "fullUrl": "urn:uuid:82de95ef-4824-4ee8-8db6-930d998411af",
      "resource": {
        "resourceType": "Provenance",
        "id": "82de95ef-4824-4ee8-8db6-930d998411af",
        "target": [
          {
            "reference": "Patient/6090e0c2-c4c5-4a95-ab7e-de07c235a0b8"
          },
          {
            "reference": "Bundle/4f6083f7-e40f-4d18-b638-e29b68760d56"
          },
          {
            "reference": "Composition/85ef5103-064e-43fe-8895-93b8b756f236"
          },
          {
            "reference": "PractitionerRole/fd61ba22-b63f-4f66-8394-963462f98539"
          },
          {
            "reference": "Practitioner/08faf241-2594-41f4-ab62-27f3b08917d0"
          },
          {
            "reference": "PractitionerRole/98f49355-8594-47b7-bcc1-249a4f8a4ba1"
          },
          {
            "reference": "Organization/fb1902d4-aa78-434e-b24e-9df211aa0378"
          }
        ],
        "activity": {
          "text": "Synthetic Example Data Generation"
        },
        "policy": [
          "https://synderai.net/synderai-synthetic-data-policy"
        ],
        "agent": [
          {
            "type": {
              "text": "author"
            },
            "who": {
              "reference": "Device/d6074732-2bb1-4648-85cf-37296ef500a2"
            }
          }
        ],
        "reason": [
          {
            "text": "Interoperability Testing and Training (non-clinical use)"
          }
        ],
        "text": {
          "status": "generated",
          "div": "<div xmlns=\"http://www.w3.org/1999/xhtml\">Provenance for SYNDERAI Synthetic Example Data Resource</div>"
        },
        "recorded": "2023-03-12T17:10:29Z"
      }
    },
    {
      "fullUrl": "urn:uuid:fd61ba22-b63f-4f66-8394-963462f98539",
      "resource": {
        "resourceType": "PractitionerRole",
        "id": "fd61ba22-b63f-4f66-8394-963462f98539",
        "meta": {
          "profile": [
            "http://hl7.eu/fhir/base/StructureDefinition/practitionerRole-eu"
          ]
        },
        "text": {
          "status": "generated",
          "div": "<div xmlns=\"http://www.w3.org/1999/xhtml\">Laboratory Role Id: fd61ba22-b63f-4f66-8394-963462f98539</div>"
        },
        "practitioner": {
          "reference": "urn:uuid:08faf241-2594-41f4-ab62-27f3b08917d0"
        }
      }
    },
    {
      "fullUrl": "urn:uuid:08faf241-2594-41f4-ab62-27f3b08917d0",
      "resource": {
        "resourceType": "Practitioner",
        "id": "08faf241-2594-41f4-ab62-27f3b08917d0",
        "meta": {
          "profile": [
            "http://hl7.eu/fhir/base/StructureDefinition/practitioner-eu"
          ]
        },
        "identifier": [
          {
            "assigner": {
              "display": "HL7 Europe"
            },
            "system": "urn:oid:2.16.840.1.113883.2.51.999",
            "value": "78b01ed6-f748-4fcc-86fe-c7d771711bf9"
          }
        ],
        "name": [
          {
            "prefix": [
              "dr"
            ],
            "given": [
              "Ex"
            ],
            "family": "Ample"
          }
        ],
        "address": [
          {
            "line": [
              "Laboratoire Central Européenne",
              "Boulevard du Jardin Botanique 32"
            ],
            "postalCode": "1000",
            "city": "Brussels",
            "country": "Belgium"
          }
        ],
        "text": {
          "status": "generated",
          "div": "<div xmlns=\"http://www.w3.org/1999/xhtml\">Laboratory: Laboratoire Central Européenne, 1000 Brussels, Belgium</div>"
        }
      }
    }
  ],
  "type": "document",
  "timestamp": "2023-03-12T17:10:29Z"
}
