{
  "resourceType": "Bundle",
  "id": "510b7e05-4bc7-4a47-94ec-e882bd67f860",
  "meta": {
    "profile": [
      "http://hl7.eu/fhir/laboratory/StructureDefinition/Bundle-eu-lab"
    ]
  },
  "identifier": {
    "assigner": {
      "display": "HL7 Europe"
    },
    "system": "urn:oid:2.16.840.1.113883.2.51.999",
    "value": "e614a571-2855-49f7-9648-e98e72861355"
  },
  "entry": [
    {
      "fullUrl": "urn:uuid:f5740929-9060-443f-9962-ef862010bc5d",
      "resource": {
        "resourceType": "Composition",
        "id": "f5740929-9060-443f-9962-ef862010bc5d",
        "meta": {
          "profile": [
            "http://hl7.eu/fhir/laboratory/StructureDefinition/Composition-eu-lab"
          ]
        },
        "identifier": {
          "assigner": {
            "display": "HL7 Europe"
          },
          "system": "urn:oid:2.16.840.1.113883.2.51.999",
          "value": "f0942de2-6082-430e-aa22-bfa8ec7c066f"
        },
        "author": [
          {
            "reference": "urn:uuid:ce85b130-bfed-4483-8223-7b926e9e8d07"
          }
        ],
        "category": [
          {
            "coding": [
              {
                "code": "26436-6",
                "system": "http://loinc.org",
                "display": "Laboratory studies (set)"
              }
            ]
          }
        ],
        "type": {
          "coding": [
            {
              "code": "11502-2",
              "system": "http://loinc.org",
              "display": "Laboratory report"
            }
          ],
          "text": "Laboratory Report"
        },
        "section": [
          {
            "code": {
              "coding": [
                {
                  "code": "26436-6",
                  "system": "http://loinc.org",
                  "display": "Laboratory studies (set)"
                }
              ],
              "text": "Laboratory studies"
            },
            "section": [
              {
                "code": {
                  "coding": [
                    {
                      "code": "$18719-5",
                      "system": "http://loinc.org",
                      "display": "Chemistry studies (set)"
                    }
                  ],
                  "text": "Chemistry"
                },
                "entry": [
                  {
                    "reference": "urn:uuid:9abf9667-823a-42a3-a951-5c09db716b70"
                  }
                ],
                "text": {
                  "status": "generated",
                  "div": "<div xmlns=\"http://www.w3.org/1999/xhtml\"><h3>Chemistry</h3><table class=\"hl7__eu__lab__report\"><thead><tr><th>Test</th><th>19-NOV-2024</th><th>Reference&#xA0;Range</th><th>Unit</th></tr></thead><tbody><tr><td>Ketones [Presence] in Urine by Test strip</td><td>Urine ketone test negative</td><td></td><td></td></tr></tbody></table></div>"
                },
                "title": "Chemistry"
              },
              {
                "code": {
                  "coding": [
                    {
                      "code": "$18729-4",
                      "system": "http://loinc.org",
                      "display": "Urinalysis studies (set)"
                    }
                  ],
                  "text": "Urinalysis"
                },
                "entry": [
                  {
                    "reference": "urn:uuid:cf765776-d91c-43c6-b02b-9dfea5225c42"
                  },
                  {
                    "reference": "urn:uuid:d0a0613d-db36-41a6-b4eb-24314db182ee"
                  },
                  {
                    "reference": "urn:uuid:c2933421-3241-4760-8212-d3480a2635a2"
                  },
                  {
                    "reference": "urn:uuid:5a042e3a-bece-45f1-8e00-f23852c04332"
                  },
                  {
                    "reference": "urn:uuid:3186ff19-4636-4ee7-b8c9-a14c03240afa"
                  },
                  {
                    "reference": "urn:uuid:634b3caf-105a-47ff-aa83-d493e37035a0"
                  },
                  {
                    "reference": "urn:uuid:ec8f0715-b8db-4cf6-813e-01bb2de00a1b"
                  },
                  {
                    "reference": "urn:uuid:7655e47a-6eeb-4485-968a-3dd0d3c18972"
                  },
                  {
                    "reference": "urn:uuid:6e3f44a1-c5e3-4859-b3d4-667da9db9f53"
                  },
                  {
                    "reference": "urn:uuid:f26c3262-5d41-4d4c-a563-c9e8d516d815"
                  },
                  {
                    "reference": "urn:uuid:6539f8f7-5069-4134-b7e1-3d45e9dbd489"
                  },
                  {
                    "reference": "urn:uuid:4e5d5b8a-cd5d-45b4-b96c-2b5c8fe5b2e9"
                  },
                  {
                    "reference": "urn:uuid:34bdcb79-48da-49d7-a5aa-6a76f246e6cc"
                  }
                ],
                "text": {
                  "status": "generated",
                  "div": "<div xmlns=\"http://www.w3.org/1999/xhtml\"><h3>Urinalysis</h3><table class=\"hl7__eu__lab__report\"><thead><tr><th>Test</th><th>19-NOV-2024</th><th>Reference&#xA0;Range</th><th>Unit</th></tr></thead><tbody><tr><td>Glucose [Mass/volume] in Urine by Test strip</td><td><strong>2.9 H</strong></td><td>0 - 0.8</td><td>mg/dL</td></tr><tr><td>Specific gravity of Urine by Test strip</td><td><strong>1.0 L</strong></td><td>1.005 - 1.03</td><td>{nominal}</td></tr><tr><td>pH of Urine by Test strip</td><td>6.6</td><td>4.5 - 7.5</td><td>pH</td></tr><tr><td>Protein [Mass/volume] in Urine by Test strip</td><td><strong>10.5 L</strong></td><td>14 - 20</td><td>mg/dL</td></tr><tr><td>Nitrite [Presence] in Urine by Test strip</td><td>Urine nitrite positive</td><td></td><td></td></tr><tr><td>Hemoglobin [Presence] in Urine by Test strip</td><td>Urine blood test = +</td><td></td><td></td></tr><tr><td>Leukocyte esterase [Presence] in Urine by Test strip</td><td>Urine leukocyte test</td><td></td><td></td></tr><tr><td>Leukocytes [#/area] in Urine sediment by Microscopy high power field</td><td><strong>44.4 H</strong></td><td>0 - 5</td><td>/[HPF]</td></tr><tr><td>Erythrocytes [#/area] in Urine sediment by Microscopy high power field</td><td>2.0</td><td>0 - 5</td><td>/[HPF]</td></tr><tr><td>Epithelial cells [#/area] in Urine sediment by Microscopy high power field</td><td>0.5</td><td>0 - 5</td><td>/[HPF]</td></tr><tr><td>Casts [Presence] in Urine sediment by Light microscopy</td><td>Urine microscopy: no casts</td><td></td><td></td></tr><tr><td>Mucus [Presence] in Urine sediment by Light microscopy</td><td>Mucus in urine</td><td></td><td></td></tr><tr><td>Bacteria [#/area] in Urine sediment by Microscopy high power field</td><td>Finding of presence of bacteria</td><td></td><td></td></tr></tbody></table></div>"
                },
                "title": "Urinalysis"
              },
              {
                "code": {
                  "coding": [
                    {
                      "code": "$18725-2",
                      "system": "http://loinc.org",
                      "display": "Microbiology studies"
                    }
                  ],
                  "text": "Microbiology"
                },
                "entry": [
                  {
                    "reference": "urn:uuid:700ffc12-fcc8-4bab-bfef-c204f3df0e44"
                  }
                ],
                "text": {
                  "status": "generated",
                  "div": "<div xmlns=\"http://www.w3.org/1999/xhtml\"><h3>Microbiology</h3><table class=\"hl7__eu__lab__report\"><thead><tr><th>Test</th><th>19-NOV-2024</th><th>Reference&#xA0;Range</th><th>Unit</th></tr></thead><tbody><tr><td>Bacteria identified in Urine by Culture</td><td></td><td></td><td></td></tr></tbody></table></div>"
                },
                "title": "Microbiology"
              }
            ],
            "title": "Laboratory Report"
          },
          {
            "text": {
              "status": "generated",
              "div": "<div xmlns=\"http://www.w3.org/1999/xhtml\"><h3>Annotation</h3><table class=\"hl7__eu__lab__report\"><tr><th>Conclusion and Recommendations based on this report and previous findings known to us</th></tr><tr><td>The findings indicate a urinary tract infection (UTI) with significant pyuria, bacteriuria, positive nitrites, and leukocyte esterase, as well as &gt;100,000 CFU/mL E. coli in culture. Mild hematuria is present. Glucosuria is noted without ketonuria. Low urine specific gravity may suggest dilute urine. No casts detected. Clinical correlation and appropriate antimicrobial therapy are recommended.</td></tr></table></div>"
            },
            "code": {
              "coding": [
                {
                  "system": "http://loinc.org",
                  "code": "48767-8",
                  "display": "Annotation comment"
                }
              ]
            },
            "title": "Annotation comment"
          }
        ],
        "status": "final",
        "subject": {
          "reference": "urn:uuid:25c05be0-4118-4c41-b241-c6c3f6c3a0d5",
          "display": "Leonhard Köhler"
        },
        "date": "2024-11-19T13:32:46Z",
        "title": "Laboratory Report",
        "confidentiality": "N"
      }
    },
    {
      "fullUrl": "urn:uuid:0fa44f51-fd9e-44a9-b011-53033f63497b",
      "resource": {
        "resourceType": "DiagnosticReport",
        "id": "0fa44f51-fd9e-44a9-b011-53033f63497b",
        "meta": {
          "profile": [
            "http://hl7.eu/fhir/laboratory/StructureDefinition/DiagnosticReport-eu-lab"
          ]
        },
        "identifier": [
          {
            "assigner": {
              "display": "HL7 Europe"
            },
            "system": "urn:oid:2.16.840.1.113883.2.51.999",
            "value": "4ccf02b3-bd52-4fc1-90cc-37d05b4f29f3"
          }
        ],
        "extension": [
          {
            "url": "http://hl7.org/fhir/5.0/StructureDefinition/extension-DiagnosticReport.composition",
            "valueReference": {
              "reference": "urn:uuid:f0942de2-6082-430e-aa22-bfa8ec7c066f"
            }
          }
        ],
        "category": [
          {
            "coding": [
              {
                "code": "26436-6",
                "system": "http://loinc.org",
                "display": "Laboratory studies (set)"
              }
            ]
          }
        ],
        "specimen": [
          {
            "reference": "urn:uuid:d278d688-ab15-4467-9298-b78f3fc679d4"
          },
          {
            "reference": "urn:uuid:d9477da5-6876-49c3-816e-64c29f3a1a3e"
          }
        ],
        "result": [
          {
            "reference": "urn:uuid:cf765776-d91c-43c6-b02b-9dfea5225c42"
          },
          {
            "reference": "urn:uuid:9abf9667-823a-42a3-a951-5c09db716b70"
          },
          {
            "reference": "urn:uuid:d0a0613d-db36-41a6-b4eb-24314db182ee"
          },
          {
            "reference": "urn:uuid:c2933421-3241-4760-8212-d3480a2635a2"
          },
          {
            "reference": "urn:uuid:5a042e3a-bece-45f1-8e00-f23852c04332"
          },
          {
            "reference": "urn:uuid:3186ff19-4636-4ee7-b8c9-a14c03240afa"
          },
          {
            "reference": "urn:uuid:634b3caf-105a-47ff-aa83-d493e37035a0"
          },
          {
            "reference": "urn:uuid:ec8f0715-b8db-4cf6-813e-01bb2de00a1b"
          },
          {
            "reference": "urn:uuid:7655e47a-6eeb-4485-968a-3dd0d3c18972"
          },
          {
            "reference": "urn:uuid:6e3f44a1-c5e3-4859-b3d4-667da9db9f53"
          },
          {
            "reference": "urn:uuid:f26c3262-5d41-4d4c-a563-c9e8d516d815"
          },
          {
            "reference": "urn:uuid:6539f8f7-5069-4134-b7e1-3d45e9dbd489"
          },
          {
            "reference": "urn:uuid:4e5d5b8a-cd5d-45b4-b96c-2b5c8fe5b2e9"
          },
          {
            "reference": "urn:uuid:34bdcb79-48da-49d7-a5aa-6a76f246e6cc"
          },
          {
            "reference": "urn:uuid:700ffc12-fcc8-4bab-bfef-c204f3df0e44"
          }
        ],
        "status": "registered",
        "code": {
          "coding": [
            {
              "code": "11502-2",
              "system": "http://loinc.org",
              "display": "Laboratory report"
            }
          ]
        },
        "subject": {
          "reference": "urn:uuid:25c05be0-4118-4c41-b241-c6c3f6c3a0d5",
          "display": "Leonhard Köhler"
        }
      }
    },
    {
      "fullUrl": "urn:uuid:25c05be0-4118-4c41-b241-c6c3f6c3a0d5",
      "resource": {
        "resourceType": "Patient",
        "id": "25c05be0-4118-4c41-b241-c6c3f6c3a0d5",
        "meta": {
          "security": [
            {
              "system": "http://terminology.hl7.org/CodeSystem/v3-ActReason",
              "code": "HTEST"
            },
            {
              "system": "http://terminology.hl7.org/CodeSystem/v3-ActReason",
              "code": "TRAIN"
            }
          ],
          "tag": [
            {
              "system": "https://synderai.net/fhir/CodeSystem/tags",
              "code": "synthetic",
              "display": "SYNDERAI Synthetic data"
            }
          ],
          "profile": [
            "http://hl7.eu/fhir/base/StructureDefinition/patient-eu-core"
          ]
        },
        "identifier": [
          {
            "type": {
              "coding": [
                {
                  "code": "PT",
                  "system": "http://terminology.hl7.org/CodeSystem/v2-0203"
                }
              ]
            },
            "system": "http://ec.europa.eu/identifier/eci",
            "value": "5321-442678-4"
          },
          {
            "type": {
              "coding": [
                {
                  "code": "MR",
                  "system": "http://terminology.hl7.org/CodeSystem/v2-0203"
                }
              ]
            },
            "system": "http://local.setting.eu/identifier",
            "value": "ffa9f0d8-c016-d46c-e666-000f53715b47"
          }
        ],
        "name": [
          {
            "family": "Köhler"
          },
          {
            "given": [
              "Leonhard"
            ]
          },
          {
            "text": "Leonhard Köhler"
          }
        ],
        "address": [
          {
            "line": [
              "Henckweg 97/34"
            ],
            "use": "home",
            "type": "physical",
            "postalCode": "87629",
            "city": "Füssen",
            "country": "Germany"
          }
        ],
        "telecom": [
          {
            "system": "phone",
            "value": "00028839855"
          }
        ],
        "extension": [
          {
            "url": "http://hl7.org/fhir/StructureDefinition/patient-nationality",
            "valueCodeableConcept": {
              "coding": [
                {
                  "code": "DE",
                  "system": "http://hl7.org/fhir/ValueSet/country"
                }
              ]
            }
          }
        ],
        "text": {
          "status": "generated",
          "div": "<div xmlns=\"http://www.w3.org/1999/xhtml\"><table class=\"hl7__ips\"><tr><td>Leonhard Köhler</td><td>male</td><td>19-Dec-1949</td></tr></table></div>"
        },
        "gender": "male",
        "birthDate": "1949-12-19"
      }
    },
    {
      "fullUrl": "urn:uuid:dcf63bfe-1d53-4d8a-bda0-3363dd859f30",
      "resource": {
        "resourceType": "ServiceRequest",
        "id": "dcf63bfe-1d53-4d8a-bda0-3363dd859f30",
        "meta": {
          "profile": [
            "http://hl7.eu/fhir/laboratory/StructureDefinition/ServiceRequest-eu-lab"
          ]
        },
        "identifier": [
          {
            "system": "http://example.org",
            "value": "60914f18-efee-4f52-8f3a-c296bb82b2a0"
          }
        ],
        "specimen": [
          {
            "reference": "urn:uuid:d278d688-ab15-4467-9298-b78f3fc679d4"
          },
          {
            "reference": "urn:uuid:d9477da5-6876-49c3-816e-64c29f3a1a3e"
          }
        ],
        "reasonCode": [
          {
            "coding": [
              {
                "code": "55822004",
                "system": "http://snomed.info/sct",
                "display": "Hyperlipidemia"
              }
            ]
          },
          {
            "coding": [
              {
                "code": "414545008",
                "system": "http://snomed.info/sct",
                "display": "Ischemic heart disease"
              }
            ]
          },
          {
            "coding": [
              {
                "code": "59621000",
                "system": "http://snomed.info/sct",
                "display": "Essential hypertension"
              }
            ]
          },
          {
            "coding": [
              {
                "code": "239873007",
                "system": "http://snomed.info/sct",
                "display": "Osteoarthritis of knee"
              }
            ]
          },
          {
            "coding": [
              {
                "code": "271737000",
                "system": "http://snomed.info/sct",
                "display": "Anemia"
              }
            ]
          },
          {
            "coding": [
              {
                "code": "15777000",
                "system": "http://snomed.info/sct",
                "display": "Prediabetes"
              }
            ]
          }
        ],
        "status": "active",
        "intent": "order",
        "code": {
          "coding": [
            {
              "code": "108252007",
              "system": "http://snomed.info/sct",
              "display": "Laboratory procedure"
            }
          ]
        },
        "subject": {
          "reference": "urn:uuid:25c05be0-4118-4c41-b241-c6c3f6c3a0d5",
          "display": "Leonhard Köhler"
        },
        "requester": {
          "reference": "urn:uuid:11ad70e9-a028-4d0b-8499-99e10d9c2195"
        }
      }
    },
    {
      "fullUrl": "urn:uuid:11ad70e9-a028-4d0b-8499-99e10d9c2195",
      "resource": {
        "resourceType": "PractitionerRole",
        "id": "11ad70e9-a028-4d0b-8499-99e10d9c2195",
        "meta": {
          "profile": [
            "http://hl7.eu/fhir/base/StructureDefinition/practitionerRole-eu"
          ]
        },
        "text": {
          "status": "generated",
          "div": "<div xmlns=\"http://www.w3.org/1999/xhtml\">Provider Role Id: 11ad70e9-a028-4d0b-8499-99e10d9c2195</div>"
        },
        "organization": {
          "reference": "urn:uuid:92d3ab8a-cf72-40df-93ea-5de7420a7fd7"
        }
      }
    },
    {
      "fullUrl": "urn:uuid:92d3ab8a-cf72-40df-93ea-5de7420a7fd7",
      "resource": {
        "resourceType": "Organization",
        "id": "92d3ab8a-cf72-40df-93ea-5de7420a7fd7",
        "meta": {
          "profile": [
            "http://hl7.eu/fhir/base/StructureDefinition/organization-eu"
          ]
        },
        "identifier": [
          {
            "assigner": {
              "display": "HL7 Europe"
            },
            "system": "urn:oid:2.16.840.1.113883.2.51.999",
            "value": "5cee7955-db1f-449e-ad4c-609e4b59db84"
          }
        ],
        "address": [
          {
            "line": [
              "Feistlestraße 2"
            ],
            "city": "Füssen",
            "postalCode": "87629",
            "country": "Germany"
          }
        ],
        "text": {
          "status": "generated",
          "div": "<div xmlns=\"http://www.w3.org/1999/xhtml\">Provider Organization: hier ist kein Ärztehaus</div>"
        },
        "name": "hier ist kein Ärztehaus"
      }
    },
    {
      "fullUrl": "urn:uuid:d278d688-ab15-4467-9298-b78f3fc679d4",
      "resource": {
        "resourceType": "Specimen",
        "id": "d278d688-ab15-4467-9298-b78f3fc679d4",
        "meta": {
          "profile": [
            "http://hl7.eu/fhir/laboratory/StructureDefinition/Specimen-eu-lab"
          ]
        },
        "collection": {
          "collectedDateTime": "2024-11-19"
        },
        "text": {
          "status": "generated",
          "div": "<div xmlns=\"http://www.w3.org/1999/xhtml\"><table class=\"hl7__eu__lab__report\"><tr><th>Specimen</th><th>Collection Date</th></tr><tr><td>Urine specimen</td><td><span class=\"nb\">19-Nov-2024</span></td></tr></table></div>"
        },
        "type": {
          "coding": [
            {
              "code": "122575003",
              "system": "http://snomed.info/sct",
              "display": "Urine specimen"
            }
          ]
        }
      }
    },
    {
      "fullUrl": "urn:uuid:d9477da5-6876-49c3-816e-64c29f3a1a3e",
      "resource": {
        "resourceType": "Specimen",
        "id": "d9477da5-6876-49c3-816e-64c29f3a1a3e",
        "meta": {
          "profile": [
            "http://hl7.eu/fhir/laboratory/StructureDefinition/Specimen-eu-lab"
          ]
        },
        "collection": {
          "collectedDateTime": "2024-11-19"
        },
        "text": {
          "status": "generated",
          "div": "<div xmlns=\"http://www.w3.org/1999/xhtml\"><table class=\"hl7__eu__lab__report\"><tr><th>Specimen</th><th>Collection Date</th></tr><tr><td>Urine sediment specimen (specimen)</td><td><span class=\"nb\">19-Nov-2024</span></td></tr></table></div>"
        },
        "type": {
          "coding": [
            {
              "code": "122567009",
              "system": "http://snomed.info/sct",
              "display": "Urine sediment specimen (specimen)"
            }
          ]
        }
      }
    },
    {
      "fullUrl": "urn:uuid:cf765776-d91c-43c6-b02b-9dfea5225c42",
      "resource": {
        "resourceType": "Observation",
        "id": "cf765776-d91c-43c6-b02b-9dfea5225c42",
        "meta": {
          "profile": [
            "http://hl7.eu/fhir/laboratory/StructureDefinition/Observation-resultslab-eu-lab"
          ]
        },
        "performer": [
          {
            "display": "The Central European Lab"
          }
        ],
        "category": [
          {
            "coding": [
              {
                "system": "http://terminology.hl7.org/CodeSystem/observation-category",
                "code": "laboratory"
              }
            ]
          }
        ],
        "code": {
          "coding": [
            {
              "code": "5792-7",
              "system": "http://loinc.org",
              "display": "Glucose [Mass/volume] in Urine by Test strip"
            }
          ],
          "text": "Glucose [Mass/volume] in Urine by Test strip"
        },
        "valueQuantity": {
          "system": "http://unitsofmeasure.org",
          "value": 2.9,
          "unit": "mg/dL",
          "code": "mg/dL"
        },
        "referenceRange": [
          {
            "low": {
              "value": 0,
              "code": "mg/dL",
              "system": "http://unitsofmeasure.org"
            }
          },
          {
            "high": {
              "value": 0.8,
              "code": "mg/dL",
              "system": "http://unitsofmeasure.org"
            }
          }
        ],
        "interpretation": [
          {
            "coding": [
              {
                "code": "H",
                "system": "http://terminology.hl7.org/CodeSystem/v3-ObservationInterpretation",
                "display": "High"
              }
            ]
          }
        ],
        "text": {
          "status": "generated",
          "div": "<div xmlns=\"http://www.w3.org/1999/xhtml\"><table class=\"hl7__eu__lab__report\"><tr><th>Test</th><th>19-Nov-2024</th><th>Reference&#xA0;Range</th><th>Unit</th></tr><tr><td>Glucose [Mass/volume] in Urine by Test strip</td><td>2.9</td><td>0 - 0.8</td><td>H</td><td>mg/dL</td></tr></table></div>"
        },
        "status": "final",
        "subject": {
          "reference": "urn:uuid:25c05be0-4118-4c41-b241-c6c3f6c3a0d5",
          "display": "Leonhard Köhler"
        },
        "effectiveDateTime": "2024-11-19T12:32:46Z",
        "specimen": {
          "reference": "urn:uuid:d278d688-ab15-4467-9298-b78f3fc679d4"
        }
      }
    },
    {
      "fullUrl": "urn:uuid:9abf9667-823a-42a3-a951-5c09db716b70",
      "resource": {
        "resourceType": "Observation",
        "id": "9abf9667-823a-42a3-a951-5c09db716b70",
        "meta": {
          "profile": [
            "http://hl7.eu/fhir/laboratory/StructureDefinition/Observation-resultslab-eu-lab"
          ]
        },
        "performer": [
          {
            "display": "The Central European Lab"
          }
        ],
        "category": [
          {
            "coding": [
              {
                "system": "http://terminology.hl7.org/CodeSystem/observation-category",
                "code": "laboratory"
              }
            ]
          }
        ],
        "code": {
          "coding": [
            {
              "code": "2514-8",
              "system": "http://loinc.org",
              "display": "Ketones [Presence] in Urine by Test strip"
            }
          ],
          "text": "Ketones [Presence] in Urine by Test strip"
        },
        "text": {
          "status": "generated",
          "div": "<div xmlns=\"http://www.w3.org/1999/xhtml\"><table class=\"hl7__eu__lab__report\"><tr><th>Test</th><th>19-Nov-2024</th><th>Reference&#xA0;Range</th><th>Unit</th></tr><tr><td>Ketones [Presence] in Urine by Test strip</td></tr></table></div>"
        },
        "status": "final",
        "subject": {
          "reference": "urn:uuid:25c05be0-4118-4c41-b241-c6c3f6c3a0d5",
          "display": "Leonhard Köhler"
        },
        "effectiveDateTime": "2024-11-19T12:32:46Z",
        "specimen": {
          "reference": "urn:uuid:d278d688-ab15-4467-9298-b78f3fc679d4"
        }
      }
    },
    {
      "fullUrl": "urn:uuid:d0a0613d-db36-41a6-b4eb-24314db182ee",
      "resource": {
        "resourceType": "Observation",
        "id": "d0a0613d-db36-41a6-b4eb-24314db182ee",
        "meta": {
          "profile": [
            "http://hl7.eu/fhir/laboratory/StructureDefinition/Observation-resultslab-eu-lab"
          ]
        },
        "performer": [
          {
            "display": "The Central European Lab"
          }
        ],
        "category": [
          {
            "coding": [
              {
                "system": "http://terminology.hl7.org/CodeSystem/observation-category",
                "code": "laboratory"
              }
            ]
          }
        ],
        "code": {
          "coding": [
            {
              "code": "5811-5",
              "system": "http://loinc.org",
              "display": "Specific gravity of Urine by Test strip"
            }
          ],
          "text": "Specific gravity of Urine by Test strip"
        },
        "valueQuantity": {
          "system": "http://unitsofmeasure.org",
          "value": 1,
          "unit": "{nominal}",
          "code": "{nominal}"
        },
        "referenceRange": [
          {
            "low": {
              "value": 1.005,
              "code": "g/mL",
              "system": "http://unitsofmeasure.org"
            }
          },
          {
            "high": {
              "value": 1.03,
              "code": "g/mL",
              "system": "http://unitsofmeasure.org"
            }
          }
        ],
        "interpretation": [
          {
            "coding": [
              {
                "code": "L",
                "system": "http://terminology.hl7.org/CodeSystem/v3-ObservationInterpretation",
                "display": "Low"
              }
            ]
          }
        ],
        "text": {
          "status": "generated",
          "div": "<div xmlns=\"http://www.w3.org/1999/xhtml\"><table class=\"hl7__eu__lab__report\"><tr><th>Test</th><th>19-Nov-2024</th><th>Reference&#xA0;Range</th><th>Unit</th></tr><tr><td>Specific gravity of Urine by Test strip</td><td>1.0</td><td>1.005 - 1.03</td><td>L</td><td>{nominal}</td></tr></table></div>"
        },
        "status": "final",
        "subject": {
          "reference": "urn:uuid:25c05be0-4118-4c41-b241-c6c3f6c3a0d5",
          "display": "Leonhard Köhler"
        },
        "effectiveDateTime": "2024-11-19T12:32:46Z",
        "specimen": {
          "reference": "urn:uuid:d278d688-ab15-4467-9298-b78f3fc679d4"
        }
      }
    },
    {
      "fullUrl": "urn:uuid:c2933421-3241-4760-8212-d3480a2635a2",
      "resource": {
        "resourceType": "Observation",
        "id": "c2933421-3241-4760-8212-d3480a2635a2",
        "meta": {
          "profile": [
            "http://hl7.eu/fhir/laboratory/StructureDefinition/Observation-resultslab-eu-lab"
          ]
        },
        "performer": [
          {
            "display": "The Central European Lab"
          }
        ],
        "category": [
          {
            "coding": [
              {
                "system": "http://terminology.hl7.org/CodeSystem/observation-category",
                "code": "laboratory"
              }
            ]
          }
        ],
        "code": {
          "coding": [
            {
              "code": "5803-2",
              "system": "http://loinc.org",
              "display": "pH of Urine by Test strip"
            }
          ],
          "text": "pH of Urine by Test strip"
        },
        "valueQuantity": {
          "system": "http://unitsofmeasure.org",
          "value": 6.6,
          "unit": "pH",
          "code": "pH"
        },
        "referenceRange": [
          {
            "low": {
              "value": 4.5,
              "code": "pH",
              "system": "http://unitsofmeasure.org"
            }
          },
          {
            "high": {
              "value": 7.5,
              "code": "pH",
              "system": "http://unitsofmeasure.org"
            }
          }
        ],
        "text": {
          "status": "generated",
          "div": "<div xmlns=\"http://www.w3.org/1999/xhtml\"><table class=\"hl7__eu__lab__report\"><tr><th>Test</th><th>19-Nov-2024</th><th>Reference&#xA0;Range</th><th>Unit</th></tr><tr><td>pH of Urine by Test strip</td><td>6.6</td><td>4.5 - 7.5</td><td></td><td>pH</td></tr></table></div>"
        },
        "status": "final",
        "subject": {
          "reference": "urn:uuid:25c05be0-4118-4c41-b241-c6c3f6c3a0d5",
          "display": "Leonhard Köhler"
        },
        "effectiveDateTime": "2024-11-19T12:32:46Z",
        "specimen": {
          "reference": "urn:uuid:d278d688-ab15-4467-9298-b78f3fc679d4"
        }
      }
    },
    {
      "fullUrl": "urn:uuid:5a042e3a-bece-45f1-8e00-f23852c04332",
      "resource": {
        "resourceType": "Observation",
        "id": "5a042e3a-bece-45f1-8e00-f23852c04332",
        "meta": {
          "profile": [
            "http://hl7.eu/fhir/laboratory/StructureDefinition/Observation-resultslab-eu-lab"
          ]
        },
        "performer": [
          {
            "display": "The Central European Lab"
          }
        ],
        "category": [
          {
            "coding": [
              {
                "system": "http://terminology.hl7.org/CodeSystem/observation-category",
                "code": "laboratory"
              }
            ]
          }
        ],
        "code": {
          "coding": [
            {
              "code": "5804-0",
              "system": "http://loinc.org",
              "display": "Protein [Mass/volume] in Urine by Test strip"
            }
          ],
          "text": "Protein [Mass/volume] in Urine by Test strip"
        },
        "valueQuantity": {
          "system": "http://unitsofmeasure.org",
          "value": 10.5,
          "unit": "mg/dL",
          "code": "mg/dL"
        },
        "referenceRange": [
          {
            "low": {
              "value": 14,
              "code": "mg/dL",
              "system": "http://unitsofmeasure.org"
            }
          },
          {
            "high": {
              "value": 20,
              "code": "mg/dL",
              "system": "http://unitsofmeasure.org"
            }
          }
        ],
        "interpretation": [
          {
            "coding": [
              {
                "code": "L",
                "system": "http://terminology.hl7.org/CodeSystem/v3-ObservationInterpretation",
                "display": "Low"
              }
            ]
          }
        ],
        "text": {
          "status": "generated",
          "div": "<div xmlns=\"http://www.w3.org/1999/xhtml\"><table class=\"hl7__eu__lab__report\"><tr><th>Test</th><th>19-Nov-2024</th><th>Reference&#xA0;Range</th><th>Unit</th></tr><tr><td>Protein [Mass/volume] in Urine by Test strip</td><td>10.5</td><td>14 - 20</td><td>L</td><td>mg/dL</td></tr></table></div>"
        },
        "status": "final",
        "subject": {
          "reference": "urn:uuid:25c05be0-4118-4c41-b241-c6c3f6c3a0d5",
          "display": "Leonhard Köhler"
        },
        "effectiveDateTime": "2024-11-19T12:32:46Z",
        "specimen": {
          "reference": "urn:uuid:d278d688-ab15-4467-9298-b78f3fc679d4"
        }
      }
    },
    {
      "fullUrl": "urn:uuid:3186ff19-4636-4ee7-b8c9-a14c03240afa",
      "resource": {
        "resourceType": "Observation",
        "id": "3186ff19-4636-4ee7-b8c9-a14c03240afa",
        "meta": {
          "profile": [
            "http://hl7.eu/fhir/laboratory/StructureDefinition/Observation-resultslab-eu-lab"
          ]
        },
        "performer": [
          {
            "display": "The Central European Lab"
          }
        ],
        "category": [
          {
            "coding": [
              {
                "system": "http://terminology.hl7.org/CodeSystem/observation-category",
                "code": "laboratory"
              }
            ]
          }
        ],
        "code": {
          "coding": [
            {
              "code": "5802-4",
              "system": "http://loinc.org",
              "display": "Nitrite [Presence] in Urine by Test strip"
            }
          ],
          "text": "Nitrite [Presence] in Urine by Test strip"
        },
        "text": {
          "status": "generated",
          "div": "<div xmlns=\"http://www.w3.org/1999/xhtml\"><table class=\"hl7__eu__lab__report\"><tr><th>Test</th><th>19-Nov-2024</th><th>Reference&#xA0;Range</th><th>Unit</th></tr><tr><td>Nitrite [Presence] in Urine by Test strip</td></tr></table></div>"
        },
        "status": "final",
        "subject": {
          "reference": "urn:uuid:25c05be0-4118-4c41-b241-c6c3f6c3a0d5",
          "display": "Leonhard Köhler"
        },
        "effectiveDateTime": "2024-11-19T12:32:46Z",
        "specimen": {
          "reference": "urn:uuid:d278d688-ab15-4467-9298-b78f3fc679d4"
        }
      }
    },
    {
      "fullUrl": "urn:uuid:634b3caf-105a-47ff-aa83-d493e37035a0",
      "resource": {
        "resourceType": "Observation",
        "id": "634b3caf-105a-47ff-aa83-d493e37035a0",
        "meta": {
          "profile": [
            "http://hl7.eu/fhir/laboratory/StructureDefinition/Observation-resultslab-eu-lab"
          ]
        },
        "performer": [
          {
            "display": "The Central European Lab"
          }
        ],
        "category": [
          {
            "coding": [
              {
                "system": "http://terminology.hl7.org/CodeSystem/observation-category",
                "code": "laboratory"
              }
            ]
          }
        ],
        "code": {
          "coding": [
            {
              "code": "5794-3",
              "system": "http://loinc.org",
              "display": "Hemoglobin [Presence] in Urine by Test strip"
            }
          ],
          "text": "Hemoglobin [Presence] in Urine by Test strip"
        },
        "text": {
          "status": "generated",
          "div": "<div xmlns=\"http://www.w3.org/1999/xhtml\"><table class=\"hl7__eu__lab__report\"><tr><th>Test</th><th>19-Nov-2024</th><th>Reference&#xA0;Range</th><th>Unit</th></tr><tr><td>Hemoglobin [Presence] in Urine by Test strip</td></tr></table></div>"
        },
        "status": "final",
        "subject": {
          "reference": "urn:uuid:25c05be0-4118-4c41-b241-c6c3f6c3a0d5",
          "display": "Leonhard Köhler"
        },
        "effectiveDateTime": "2024-11-19T12:32:46Z",
        "specimen": {
          "reference": "urn:uuid:d278d688-ab15-4467-9298-b78f3fc679d4"
        }
      }
    },
    {
      "fullUrl": "urn:uuid:ec8f0715-b8db-4cf6-813e-01bb2de00a1b",
      "resource": {
        "resourceType": "Observation",
        "id": "ec8f0715-b8db-4cf6-813e-01bb2de00a1b",
        "meta": {
          "profile": [
            "http://hl7.eu/fhir/laboratory/StructureDefinition/Observation-resultslab-eu-lab"
          ]
        },
        "performer": [
          {
            "display": "The Central European Lab"
          }
        ],
        "category": [
          {
            "coding": [
              {
                "system": "http://terminology.hl7.org/CodeSystem/observation-category",
                "code": "laboratory"
              }
            ]
          }
        ],
        "code": {
          "coding": [
            {
              "code": "5799-2",
              "system": "http://loinc.org",
              "display": "Leukocyte esterase [Presence] in Urine by Test strip"
            }
          ],
          "text": "Leukocyte esterase [Presence] in Urine by Test strip"
        },
        "text": {
          "status": "generated",
          "div": "<div xmlns=\"http://www.w3.org/1999/xhtml\"><table class=\"hl7__eu__lab__report\"><tr><th>Test</th><th>19-Nov-2024</th><th>Reference&#xA0;Range</th><th>Unit</th></tr><tr><td>Leukocyte esterase [Presence] in Urine by Test strip</td></tr></table></div>"
        },
        "status": "final",
        "subject": {
          "reference": "urn:uuid:25c05be0-4118-4c41-b241-c6c3f6c3a0d5",
          "display": "Leonhard Köhler"
        },
        "effectiveDateTime": "2024-11-19T12:32:46Z",
        "specimen": {
          "reference": "urn:uuid:d278d688-ab15-4467-9298-b78f3fc679d4"
        }
      }
    },
    {
      "fullUrl": "urn:uuid:7655e47a-6eeb-4485-968a-3dd0d3c18972",
      "resource": {
        "resourceType": "Observation",
        "id": "7655e47a-6eeb-4485-968a-3dd0d3c18972",
        "meta": {
          "profile": [
            "http://hl7.eu/fhir/laboratory/StructureDefinition/Observation-resultslab-eu-lab"
          ]
        },
        "performer": [
          {
            "display": "The Central European Lab"
          }
        ],
        "category": [
          {
            "coding": [
              {
                "system": "http://terminology.hl7.org/CodeSystem/observation-category",
                "code": "laboratory"
              }
            ]
          }
        ],
        "code": {
          "coding": [
            {
              "code": "5821-4",
              "system": "http://loinc.org",
              "display": "Leukocytes [#/area] in Urine sediment by Microscopy high power field"
            }
          ],
          "text": "Leukocytes [#/area] in Urine sediment by Microscopy high power field"
        },
        "valueQuantity": {
          "system": "http://unitsofmeasure.org",
          "value": 44.4,
          "unit": "/[HPF]",
          "code": "/[HPF]"
        },
        "referenceRange": [
          {
            "low": {
              "value": 0,
              "code": "#/area",
              "system": "http://unitsofmeasure.org"
            }
          },
          {
            "high": {
              "value": 5,
              "code": "#/area",
              "system": "http://unitsofmeasure.org"
            }
          }
        ],
        "interpretation": [
          {
            "coding": [
              {
                "code": "H",
                "system": "http://terminology.hl7.org/CodeSystem/v3-ObservationInterpretation",
                "display": "High"
              }
            ]
          }
        ],
        "text": {
          "status": "generated",
          "div": "<div xmlns=\"http://www.w3.org/1999/xhtml\"><table class=\"hl7__eu__lab__report\"><tr><th>Test</th><th>19-Nov-2024</th><th>Reference&#xA0;Range</th><th>Unit</th></tr><tr><td>Leukocytes [#/area] in Urine sediment by Microscopy high power field</td><td>44.4</td><td>0 - 5</td><td>H</td><td>/[HPF]</td></tr></table></div>"
        },
        "status": "final",
        "subject": {
          "reference": "urn:uuid:25c05be0-4118-4c41-b241-c6c3f6c3a0d5",
          "display": "Leonhard Köhler"
        },
        "effectiveDateTime": "2024-11-19T12:32:46Z",
        "specimen": {
          "reference": "urn:uuid:d9477da5-6876-49c3-816e-64c29f3a1a3e"
        }
      }
    },
    {
      "fullUrl": "urn:uuid:6e3f44a1-c5e3-4859-b3d4-667da9db9f53",
      "resource": {
        "resourceType": "Observation",
        "id": "6e3f44a1-c5e3-4859-b3d4-667da9db9f53",
        "meta": {
          "profile": [
            "http://hl7.eu/fhir/laboratory/StructureDefinition/Observation-resultslab-eu-lab"
          ]
        },
        "performer": [
          {
            "display": "The Central European Lab"
          }
        ],
        "category": [
          {
            "coding": [
              {
                "system": "http://terminology.hl7.org/CodeSystem/observation-category",
                "code": "laboratory"
              }
            ]
          }
        ],
        "code": {
          "coding": [
            {
              "code": "13945-1",
              "system": "http://loinc.org",
              "display": "Erythrocytes [#/area] in Urine sediment by Microscopy high power field"
            }
          ],
          "text": "Erythrocytes [#/area] in Urine sediment by Microscopy high power field"
        },
        "valueQuantity": {
          "system": "http://unitsofmeasure.org",
          "value": 2,
          "unit": "/[HPF]",
          "code": "/[HPF]"
        },
        "referenceRange": [
          {
            "low": {
              "value": 0,
              "code": "[#/area]",
              "system": "http://unitsofmeasure.org"
            }
          },
          {
            "high": {
              "value": 5,
              "code": "[#/area]",
              "system": "http://unitsofmeasure.org"
            }
          }
        ],
        "text": {
          "status": "generated",
          "div": "<div xmlns=\"http://www.w3.org/1999/xhtml\"><table class=\"hl7__eu__lab__report\"><tr><th>Test</th><th>19-Nov-2024</th><th>Reference&#xA0;Range</th><th>Unit</th></tr><tr><td>Erythrocytes [#/area] in Urine sediment by Microscopy high power field</td><td>2.0</td><td>0 - 5</td><td></td><td>/[HPF]</td></tr></table></div>"
        },
        "status": "final",
        "subject": {
          "reference": "urn:uuid:25c05be0-4118-4c41-b241-c6c3f6c3a0d5",
          "display": "Leonhard Köhler"
        },
        "effectiveDateTime": "2024-11-19T12:32:46Z",
        "specimen": {
          "reference": "urn:uuid:d9477da5-6876-49c3-816e-64c29f3a1a3e"
        }
      }
    },
    {
      "fullUrl": "urn:uuid:f26c3262-5d41-4d4c-a563-c9e8d516d815",
      "resource": {
        "resourceType": "Observation",
        "id": "f26c3262-5d41-4d4c-a563-c9e8d516d815",
        "meta": {
          "profile": [
            "http://hl7.eu/fhir/laboratory/StructureDefinition/Observation-resultslab-eu-lab"
          ]
        },
        "performer": [
          {
            "display": "The Central European Lab"
          }
        ],
        "category": [
          {
            "coding": [
              {
                "system": "http://terminology.hl7.org/CodeSystem/observation-category",
                "code": "laboratory"
              }
            ]
          }
        ],
        "code": {
          "coding": [
            {
              "code": "5787-7",
              "system": "http://loinc.org",
              "display": "Epithelial cells [#/area] in Urine sediment by Microscopy high power field"
            }
          ],
          "text": "Epithelial cells [#/area] in Urine sediment by Microscopy high power field"
        },
        "valueQuantity": {
          "system": "http://unitsofmeasure.org",
          "value": 0.5,
          "unit": "/[HPF]",
          "code": "/[HPF]"
        },
        "referenceRange": [
          {
            "low": {
              "value": 0,
              "code": "#/area",
              "system": "http://unitsofmeasure.org"
            }
          },
          {
            "high": {
              "value": 5,
              "code": "#/area",
              "system": "http://unitsofmeasure.org"
            }
          }
        ],
        "text": {
          "status": "generated",
          "div": "<div xmlns=\"http://www.w3.org/1999/xhtml\"><table class=\"hl7__eu__lab__report\"><tr><th>Test</th><th>19-Nov-2024</th><th>Reference&#xA0;Range</th><th>Unit</th></tr><tr><td>Epithelial cells [#/area] in Urine sediment by Microscopy high power field</td><td>0.5</td><td>0 - 5</td><td></td><td>/[HPF]</td></tr></table></div>"
        },
        "status": "final",
        "subject": {
          "reference": "urn:uuid:25c05be0-4118-4c41-b241-c6c3f6c3a0d5",
          "display": "Leonhard Köhler"
        },
        "effectiveDateTime": "2024-11-19T12:32:46Z",
        "specimen": {
          "reference": "urn:uuid:d9477da5-6876-49c3-816e-64c29f3a1a3e"
        }
      }
    },
    {
      "fullUrl": "urn:uuid:6539f8f7-5069-4134-b7e1-3d45e9dbd489",
      "resource": {
        "resourceType": "Observation",
        "id": "6539f8f7-5069-4134-b7e1-3d45e9dbd489",
        "meta": {
          "profile": [
            "http://hl7.eu/fhir/laboratory/StructureDefinition/Observation-resultslab-eu-lab"
          ]
        },
        "performer": [
          {
            "display": "The Central European Lab"
          }
        ],
        "category": [
          {
            "coding": [
              {
                "system": "http://terminology.hl7.org/CodeSystem/observation-category",
                "code": "laboratory"
              }
            ]
          }
        ],
        "code": {
          "coding": [
            {
              "code": "24124-0",
              "system": "http://loinc.org",
              "display": "Casts [Presence] in Urine sediment by Light microscopy"
            }
          ],
          "text": "Casts [Presence] in Urine sediment by Light microscopy"
        },
        "text": {
          "status": "generated",
          "div": "<div xmlns=\"http://www.w3.org/1999/xhtml\"><table class=\"hl7__eu__lab__report\"><tr><th>Test</th><th>19-Nov-2024</th><th>Reference&#xA0;Range</th><th>Unit</th></tr><tr><td>Casts [Presence] in Urine sediment by Light microscopy</td></tr></table></div>"
        },
        "status": "final",
        "subject": {
          "reference": "urn:uuid:25c05be0-4118-4c41-b241-c6c3f6c3a0d5",
          "display": "Leonhard Köhler"
        },
        "effectiveDateTime": "2024-11-19T12:32:46Z",
        "specimen": {
          "reference": "urn:uuid:d9477da5-6876-49c3-816e-64c29f3a1a3e"
        }
      }
    },
    {
      "fullUrl": "urn:uuid:4e5d5b8a-cd5d-45b4-b96c-2b5c8fe5b2e9",
      "resource": {
        "resourceType": "Observation",
        "id": "4e5d5b8a-cd5d-45b4-b96c-2b5c8fe5b2e9",
        "meta": {
          "profile": [
            "http://hl7.eu/fhir/laboratory/StructureDefinition/Observation-resultslab-eu-lab"
          ]
        },
        "performer": [
          {
            "display": "The Central European Lab"
          }
        ],
        "category": [
          {
            "coding": [
              {
                "system": "http://terminology.hl7.org/CodeSystem/observation-category",
                "code": "laboratory"
              }
            ]
          }
        ],
        "code": {
          "coding": [
            {
              "code": "8247-9",
              "system": "http://loinc.org",
              "display": "Mucus [Presence] in Urine sediment by Light microscopy"
            }
          ],
          "text": "Mucus [Presence] in Urine sediment by Light microscopy"
        },
        "text": {
          "status": "generated",
          "div": "<div xmlns=\"http://www.w3.org/1999/xhtml\"><table class=\"hl7__eu__lab__report\"><tr><th>Test</th><th>19-Nov-2024</th><th>Reference&#xA0;Range</th><th>Unit</th></tr><tr><td>Mucus [Presence] in Urine sediment by Light microscopy</td></tr></table></div>"
        },
        "status": "final",
        "subject": {
          "reference": "urn:uuid:25c05be0-4118-4c41-b241-c6c3f6c3a0d5",
          "display": "Leonhard Köhler"
        },
        "effectiveDateTime": "2024-11-19T12:32:46Z",
        "specimen": {
          "reference": "urn:uuid:d9477da5-6876-49c3-816e-64c29f3a1a3e"
        }
      }
    },
    {
      "fullUrl": "urn:uuid:34bdcb79-48da-49d7-a5aa-6a76f246e6cc",
      "resource": {
        "resourceType": "Observation",
        "id": "34bdcb79-48da-49d7-a5aa-6a76f246e6cc",
        "meta": {
          "profile": [
            "http://hl7.eu/fhir/laboratory/StructureDefinition/Observation-resultslab-eu-lab"
          ]
        },
        "performer": [
          {
            "display": "The Central European Lab"
          }
        ],
        "category": [
          {
            "coding": [
              {
                "system": "http://terminology.hl7.org/CodeSystem/observation-category",
                "code": "laboratory"
              }
            ]
          }
        ],
        "code": {
          "coding": [
            {
              "code": "5769-5",
              "system": "http://loinc.org",
              "display": "Bacteria [#/area] in Urine sediment by Microscopy high power field"
            }
          ],
          "text": "Bacteria [#/area] in Urine sediment by Microscopy high power field"
        },
        "text": {
          "status": "generated",
          "div": "<div xmlns=\"http://www.w3.org/1999/xhtml\"><table class=\"hl7__eu__lab__report\"><tr><th>Test</th><th>19-Nov-2024</th><th>Reference&#xA0;Range</th><th>Unit</th></tr><tr><td>Bacteria [#/area] in Urine sediment by Microscopy high power field</td></tr></table></div>"
        },
        "status": "final",
        "subject": {
          "reference": "urn:uuid:25c05be0-4118-4c41-b241-c6c3f6c3a0d5",
          "display": "Leonhard Köhler"
        },
        "effectiveDateTime": "2024-11-19T12:32:46Z",
        "specimen": {
          "reference": "urn:uuid:d9477da5-6876-49c3-816e-64c29f3a1a3e"
        }
      }
    },
    {
      "fullUrl": "urn:uuid:700ffc12-fcc8-4bab-bfef-c204f3df0e44",
      "resource": {
        "resourceType": "Observation",
        "id": "700ffc12-fcc8-4bab-bfef-c204f3df0e44",
        "meta": {
          "profile": [
            "http://hl7.eu/fhir/laboratory/StructureDefinition/Observation-resultslab-eu-lab"
          ]
        },
        "performer": [
          {
            "display": "The Central European Lab"
          }
        ],
        "category": [
          {
            "coding": [
              {
                "system": "http://terminology.hl7.org/CodeSystem/observation-category",
                "code": "laboratory"
              }
            ]
          }
        ],
        "code": {
          "coding": [
            {
              "code": "630-4",
              "system": "http://loinc.org",
              "display": "Bacteria identified in Urine by Culture"
            }
          ],
          "text": "Bacteria identified in Urine by Culture"
        },
        "text": {
          "status": "generated",
          "div": "<div xmlns=\"http://www.w3.org/1999/xhtml\"><table class=\"hl7__eu__lab__report\"><tr><th>Test</th><th>19-Nov-2024</th><th>Reference&#xA0;Range</th><th>Unit</th></tr><tr><td>Bacteria identified in Urine by Culture</td></tr></table></div>"
        },
        "status": "final",
        "subject": {
          "reference": "urn:uuid:25c05be0-4118-4c41-b241-c6c3f6c3a0d5",
          "display": "Leonhard Köhler"
        },
        "effectiveDateTime": "2024-11-19T12:32:46Z",
        "specimen": {
          "reference": "urn:uuid:d278d688-ab15-4467-9298-b78f3fc679d4"
        }
      }
    },
    {
      "fullUrl": "urn:uuid:62376b91-4107-464c-8732-4d708df5a060",
      "resource": {
        "resourceType": "Device",
        "id": "62376b91-4107-464c-8732-4d708df5a060",
        "deviceName": [
          {
            "name": "SYNDERAI Synthetic Generator",
            "type": "manufacturer-name"
          }
        ],
        "version": [
          {
            "value": "5.0"
          }
        ],
        "text": {
          "status": "generated",
          "div": "<div xmlns=\"http://www.w3.org/1999/xhtml\">SYNDERAI Synthetic Generator v5.0</div>"
        },
        "status": "active\"",
        "distinctIdentifier": "synderai-generator-50",
        "manufacturer": "SYNDERAI Project"
      }
    },
    {
      "fullUrl": "urn:uuid:8ccea6f6-41d4-4a15-ac0b-8e4d870c8172",
      "resource": {
        "resourceType": "Provenance",
        "id": "8ccea6f6-41d4-4a15-ac0b-8e4d870c8172",
        "target": [
          {
            "reference": "Patient/25c05be0-4118-4c41-b241-c6c3f6c3a0d5"
          },
          {
            "reference": "Bundle/510b7e05-4bc7-4a47-94ec-e882bd67f860"
          },
          {
            "reference": "Composition/f5740929-9060-443f-9962-ef862010bc5d"
          },
          {
            "reference": "PractitionerRole/ce85b130-bfed-4483-8223-7b926e9e8d07"
          },
          {
            "reference": "Practitioner/be6984d5-efc5-4608-a719-0958c383a198"
          },
          {
            "reference": "PractitionerRole/11ad70e9-a028-4d0b-8499-99e10d9c2195"
          },
          {
            "reference": "Organization/92d3ab8a-cf72-40df-93ea-5de7420a7fd7"
          }
        ],
        "activity": {
          "text": "Synthetic Example Data Generation"
        },
        "policy": [
          "https://synderai.net/synderai-synthetic-data-policy"
        ],
        "agent": [
          {
            "type": {
              "text": "author"
            },
            "who": {
              "reference": "Device/62376b91-4107-464c-8732-4d708df5a060"
            }
          }
        ],
        "reason": [
          {
            "text": "Interoperability Testing and Training (non-clinical use)"
          }
        ],
        "text": {
          "status": "generated",
          "div": "<div xmlns=\"http://www.w3.org/1999/xhtml\">Provenance for SYNDERAI Synthetic Example Data Resource</div>"
        },
        "recorded": "2024-11-19T13:32:46Z"
      }
    },
    {
      "fullUrl": "urn:uuid:ce85b130-bfed-4483-8223-7b926e9e8d07",
      "resource": {
        "resourceType": "PractitionerRole",
        "id": "ce85b130-bfed-4483-8223-7b926e9e8d07",
        "meta": {
          "profile": [
            "http://hl7.eu/fhir/base/StructureDefinition/practitionerRole-eu"
          ]
        },
        "text": {
          "status": "generated",
          "div": "<div xmlns=\"http://www.w3.org/1999/xhtml\">Laboratory Role Id: ce85b130-bfed-4483-8223-7b926e9e8d07</div>"
        },
        "practitioner": {
          "reference": "urn:uuid:be6984d5-efc5-4608-a719-0958c383a198"
        }
      }
    },
    {
      "fullUrl": "urn:uuid:be6984d5-efc5-4608-a719-0958c383a198",
      "resource": {
        "resourceType": "Practitioner",
        "id": "be6984d5-efc5-4608-a719-0958c383a198",
        "meta": {
          "profile": [
            "http://hl7.eu/fhir/base/StructureDefinition/practitioner-eu"
          ]
        },
        "identifier": [
          {
            "assigner": {
              "display": "HL7 Europe"
            },
            "system": "urn:oid:2.16.840.1.113883.2.51.999",
            "value": "bc53236c-0fb5-45d7-964c-e9f2ad60c65d"
          }
        ],
        "name": [
          {
            "prefix": [
              "dr"
            ],
            "given": [
              "Ex"
            ],
            "family": "Ample"
          }
        ],
        "address": [
          {
            "line": [
              "Laboratoire Central Européenne",
              "Boulevard du Jardin Botanique 32"
            ],
            "postalCode": "1000",
            "city": "Brussels",
            "country": "Belgium"
          }
        ],
        "text": {
          "status": "generated",
          "div": "<div xmlns=\"http://www.w3.org/1999/xhtml\">Laboratory: Laboratoire Central Européenne, 1000 Brussels, Belgium</div>"
        }
      }
    }
  ],
  "type": "document",
  "timestamp": "2024-11-19T13:32:46Z"
}
