<Bundle xmlns="http://hl7.org/fhir">
   <id value="1dd09c0d-b7d1-4c6c-81ad-a9dc4bf4bbc4"/>
   <meta>
      <profile value="http://hl7.eu/fhir/laboratory/StructureDefinition/Bundle-eu-lab"/>
   </meta>
   <identifier>
      <system value="urn:oid:2.16.840.1.113883.2.51.999"/>
      <value value="9df7540f-4235-4793-bdf1-99f52630cd64"/>
      <assigner>
         <display value="HL7 Europe"/>
      </assigner>
   </identifier>
   <type value="document"/>
   <timestamp value="2020-10-29T00:15:05Z"/>
   <entry>
      <fullUrl value="urn:uuid:aaa68cb7-1362-4ca7-bfc2-0133d80e84d7"/>
      <resource>
         <Composition>
            <id value="aaa68cb7-1362-4ca7-bfc2-0133d80e84d7"/>
            <meta>
               <profile value="http://hl7.eu/fhir/laboratory/StructureDefinition/Composition-eu-lab"/>
            </meta>
            <identifier>
               <system value="urn:oid:2.16.840.1.113883.2.51.999"/>
               <value value="185c4a3f-5741-4623-bcf9-eb5eb123d365"/>
               <assigner>
                  <display value="HL7 Europe"/>
               </assigner>
            </identifier>
            <status value="final"/>
            <type>
               <coding>
                  <system value="http://loinc.org"/>
                  <code value="11502-2"/>
                  <display value="Laboratory report"/>
               </coding>
               <text value="Laboratory Report"/>
            </type>
            <category>
               <coding>
                  <system value="http://loinc.org"/>
                  <code value="26436-6"/>
                  <display value="Laboratory studies (set)"/>
               </coding>
            </category>
            <subject>
               <reference value="urn:uuid:9ae3343f-28cc-4ddd-ab2b-b35a59cc19d7"/>
               <display value="Khalid Nilsson"/>
            </subject>
            <date value="2020-10-29T00:15:05Z"/>
            <author>
               <reference value="urn:uuid:9a7e60dc-f796-4c0c-ba78-dc742fc3a25e"/>
            </author>
            <title value="Laboratory Report"/>
            <confidentiality value="N"/>
            <section>
               <title value="Laboratory Report"/>
               <code>
                  <coding>
                     <system value="http://loinc.org"/>
                     <code value="26436-6"/>
                     <display value="Laboratory studies (set)"/>
                  </coding>
                  <text value="Laboratory studies"/>
               </code>
               <section>
                  <title value="Microbiology"/>
                  <code>
                     <coding>
                        <system value="http://loinc.org"/>
                        <code value="$18725-2"/>
                        <display value="Microbiology studies"/>
                     </coding>
                     <text value="Microbiology"/>
                  </code>
                  <text>
                     <status value="generated"/>
                     <div xmlns="http://www.w3.org/1999/xhtml">
                        <h3>Microbiology</h3>
                        <table class="hl7__eu__lab__report">
                           <thead>
                              <tr>
                                 <th>Test</th>
                                 <th>29-OCT-2020</th>
                                 <th>Reference Range</th>
                                 <th>Unit</th>
                              </tr>
                           </thead>
                           <tbody>
                              <tr>
                                 <td>Influenza virus A Ag [Presence] in Upper respiratory specimen by Rapid immunoassay</td>
                                 <td>Not detected</td>
                                 <td/>
                                 <td/>
                              </tr>
                              <tr>
                                 <td>Influenza virus B Ag [Presence] in Upper respiratory specimen by Rapid immunoassay</td>
                                 <td>Not detected</td>
                                 <td/>
                                 <td/>
                              </tr>
                           </tbody>
                        </table>
                     </div>
                  </text>
                  <entry>
                     <reference value="urn:uuid:b87993bb-b331-48ec-a3c3-612ceafc6222"/>
                  </entry>
                  <entry>
                     <reference value="urn:uuid:4326b76a-65d5-4f50-85f0-23b00681e76f"/>
                  </entry>
               </section>
            </section>
            <section>
               <title value="Annotation comment"/>
               <code>
                  <coding>
                     <system value="http://loinc.org"/>
                     <code value="48767-8"/>
                     <display value="Annotation comment"/>
                  </coding>
               </code>
               <text>
                  <status value="generated"/>
                  <div xmlns="http://www.w3.org/1999/xhtml">
                     <h3>Annotation</h3>
                     <table class="hl7__eu__lab__report">
                        <tr>
                           <th>Conclusion and Recommendations based on this report and previous findings known to us</th>
                        </tr>
                        <tr>
                           <td>No evidence of Influenza A or B infection detected by rapid immunoassay in the upper respiratory specimen. Results are within normal limits and do not indicate acute influenza infection at the time of testing.</td>
                        </tr>
                     </table>
                  </div>
               </text>
            </section>
         </Composition>
      </resource>
   </entry>
   <entry>
      <fullUrl value="urn:uuid:f405c45e-fb1e-4661-826c-99ead800ad57"/>
      <resource>
         <DiagnosticReport>
            <id value="f405c45e-fb1e-4661-826c-99ead800ad57"/>
            <meta>
               <profile value="http://hl7.eu/fhir/laboratory/StructureDefinition/DiagnosticReport-eu-lab"/>
            </meta>
            <extension url="http://hl7.org/fhir/5.0/StructureDefinition/extension-DiagnosticReport.composition">
               <valueReference>
                  <reference value="urn:uuid:185c4a3f-5741-4623-bcf9-eb5eb123d365"/>
               </valueReference>
            </extension>
            <identifier>
               <system value="urn:oid:2.16.840.1.113883.2.51.999"/>
               <value value="82626d9a-8717-4b3b-bcc3-3b3d3bd021a5"/>
               <assigner>
                  <display value="HL7 Europe"/>
               </assigner>
            </identifier>
            <status value="registered"/>
            <category>
               <coding>
                  <system value="http://loinc.org"/>
                  <code value="26436-6"/>
                  <display value="Laboratory studies (set)"/>
               </coding>
            </category>
            <code>
               <coding>
                  <system value="http://loinc.org"/>
                  <code value="11502-2"/>
                  <display value="Laboratory report"/>
               </coding>
            </code>
            <subject>
               <reference value="urn:uuid:9ae3343f-28cc-4ddd-ab2b-b35a59cc19d7"/>
               <display value="Khalid Nilsson"/>
            </subject>
            <specimen>
               <reference value="urn:uuid:520ca65d-c496-4f47-8292-7461f8f1abe6"/>
            </specimen>
            <result>
               <reference value="urn:uuid:b87993bb-b331-48ec-a3c3-612ceafc6222"/>
            </result>
            <result>
               <reference value="urn:uuid:4326b76a-65d5-4f50-85f0-23b00681e76f"/>
            </result>
         </DiagnosticReport>
      </resource>
   </entry>
   <entry>
      <fullUrl value="urn:uuid:9ae3343f-28cc-4ddd-ab2b-b35a59cc19d7"/>
      <resource>
         <Patient>
            <id value="9ae3343f-28cc-4ddd-ab2b-b35a59cc19d7"/>
            <meta>
               <profile value="http://hl7.eu/fhir/base/StructureDefinition/patient-eu-core"/>
               <security>
                  <system value="http://terminology.hl7.org/CodeSystem/v3-ActReason"/>
                  <code value="HTEST"/>
               </security>
               <security>
                  <system value="http://terminology.hl7.org/CodeSystem/v3-ActReason"/>
                  <code value="TRAIN"/>
               </security>
               <tag>
                  <system value="https://synderai.net/fhir/CodeSystem/tags"/>
                  <code value="synthetic"/>
                  <display value="SYNDERAI Synthetic data"/>
               </tag>
            </meta>
            <text>
               <status value="generated"/>
               <div xmlns="http://www.w3.org/1999/xhtml">
                  <table class="hl7__ips">
                     <tr>
                        <td>Khalid Nilsson</td>
                        <td>male</td>
                        <td>10-Apr-1952</td>
                     </tr>
                  </table>
               </div>
            </text>
            <extension url="http://hl7.org/fhir/StructureDefinition/patient-nationality">
               <valueCodeableConcept>
                  <coding>
                     <system value="http://hl7.org/fhir/ValueSet/country"/>
                     <code value="SE"/>
                  </coding>
               </valueCodeableConcept>
            </extension>
            <identifier>
               <type>
                  <coding>
                     <system value="http://terminology.hl7.org/CodeSystem/v2-0203"/>
                     <code value="PT"/>
                  </coding>
               </type>
               <system value="http://ec.europa.eu/identifier/eci"/>
               <value value="8339-594203-6"/>
            </identifier>
            <identifier>
               <type>
                  <coding>
                     <system value="http://terminology.hl7.org/CodeSystem/v2-0203"/>
                     <code value="MR"/>
                  </coding>
               </type>
               <system value="http://local.setting.eu/identifier"/>
               <value value="db9680f4-3d2c-0551-cb1c-61573f88f405"/>
            </identifier>
            <name>
               <family value="Nilsson"/>
            </name>
            <name>
               <given value="Khalid"/>
            </name>
            <name>
               <text value="Khalid Nilsson"/>
            </name>
            <telecom>
               <system value="phone"/>
               <value value="+46 (0)8 888 657 95"/>
            </telecom>
            <gender value="male"/>
            <birthDate value="1952-04-10"/>
            <address>
               <use value="home"/>
               <type value="physical"/>
               <line value="Gengränd 482"/>
               <city value="Karlskoga"/>
               <postalCode value="691 31"/>
               <country value="Sweden"/>
            </address>
         </Patient>
      </resource>
   </entry>
   <entry>
      <fullUrl value="urn:uuid:08ef847b-741f-44c0-b4b5-a703da84f97a"/>
      <resource>
         <ServiceRequest>
            <id value="08ef847b-741f-44c0-b4b5-a703da84f97a"/>
            <meta>
               <profile value="http://hl7.eu/fhir/laboratory/StructureDefinition/ServiceRequest-eu-lab"/>
            </meta>
            <identifier>
               <system value="http://example.org"/>
               <value value="da410f23-02af-4ea9-a918-8ed7492704cd"/>
            </identifier>
            <status value="active"/>
            <intent value="order"/>
            <code>
               <coding>
                  <system value="http://snomed.info/sct"/>
                  <code value="108252007"/>
                  <display value="Laboratory procedure"/>
               </coding>
            </code>
            <subject>
               <reference value="urn:uuid:9ae3343f-28cc-4ddd-ab2b-b35a59cc19d7"/>
               <display value="Khalid Nilsson"/>
            </subject>
            <requester>
               <reference value="urn:uuid:ff2d3671-e5ef-4740-9c65-42543639c021"/>
            </requester>
            <reasonCode>
               <coding>
                  <system value="http://snomed.info/sct"/>
                  <code value="64859006"/>
                  <display value="Osteoporosis"/>
               </coding>
            </reasonCode>
            <reasonCode>
               <coding>
                  <system value="http://snomed.info/sct"/>
                  <code value="196416002"/>
                  <display value="Impacted molars"/>
               </coding>
            </reasonCode>
            <reasonCode>
               <coding>
                  <system value="http://snomed.info/sct"/>
                  <code value="414545008"/>
                  <display value="Ischemic heart disease"/>
               </coding>
            </reasonCode>
            <reasonCode>
               <coding>
                  <system value="http://snomed.info/sct"/>
                  <code value="40055000"/>
                  <display value="Chronic sinusitis"/>
               </coding>
            </reasonCode>
            <reasonCode>
               <coding>
                  <system value="http://snomed.info/sct"/>
                  <code value="197927001"/>
                  <display value="Recurrent urinary tract infection"/>
               </coding>
            </reasonCode>
            <reasonCode>
               <coding>
                  <system value="http://snomed.info/sct"/>
                  <code value="15777000"/>
                  <display value="Prediabetes"/>
               </coding>
            </reasonCode>
            <reasonCode>
               <coding>
                  <system value="http://snomed.info/sct"/>
                  <code value="271737000"/>
                  <display value="Anemia"/>
               </coding>
            </reasonCode>
            <specimen>
               <reference value="urn:uuid:520ca65d-c496-4f47-8292-7461f8f1abe6"/>
            </specimen>
         </ServiceRequest>
      </resource>
   </entry>
   <entry>
      <fullUrl value="urn:uuid:ff2d3671-e5ef-4740-9c65-42543639c021"/>
      <resource>
         <PractitionerRole>
            <id value="ff2d3671-e5ef-4740-9c65-42543639c021"/>
            <meta>
               <profile value="http://hl7.eu/fhir/base/StructureDefinition/practitionerRole-eu"/>
            </meta>
            <text>
               <status value="generated"/>
               <div xmlns="http://www.w3.org/1999/xhtml">Provider Role Id: ff2d3671-e5ef-4740-9c65-42543639c021</div>
            </text>
            <organization>
               <reference value="urn:uuid:ee893878-7c1e-4767-9f83-0d1f67d9ebc9"/>
            </organization>
         </PractitionerRole>
      </resource>
   </entry>
   <entry>
      <fullUrl value="urn:uuid:ee893878-7c1e-4767-9f83-0d1f67d9ebc9"/>
      <resource>
         <Organization>
            <id value="ee893878-7c1e-4767-9f83-0d1f67d9ebc9"/>
            <meta>
               <profile value="http://hl7.eu/fhir/base/StructureDefinition/organization-eu"/>
            </meta>
            <text>
               <status value="generated"/>
               <div xmlns="http://www.w3.org/1999/xhtml">Provider Organization: Karlskoga Lasarett</div>
            </text>
            <identifier>
               <system value="urn:oid:2.16.840.1.113883.2.51.999"/>
               <value value="c5a7c78f-2680-4e7b-84a5-1e64d043f903"/>
               <assigner>
                  <display value="HL7 Europe"/>
               </assigner>
            </identifier>
            <name value="Karlskoga Lasarett"/>
            <address>
               <city value="Karlskoga"/>
               <postalCode value="691 31"/>
               <country value="Sweden"/>
            </address>
         </Organization>
      </resource>
   </entry>
   <entry>
      <fullUrl value="urn:uuid:520ca65d-c496-4f47-8292-7461f8f1abe6"/>
      <resource>
         <Specimen>
            <id value="520ca65d-c496-4f47-8292-7461f8f1abe6"/>
            <meta>
               <profile value="http://hl7.eu/fhir/laboratory/StructureDefinition/Specimen-eu-lab"/>
            </meta>
            <text>
               <status value="generated"/>
               <div xmlns="http://www.w3.org/1999/xhtml">
                  <table class="hl7__eu__lab__report">
                     <tr>
                        <th>Specimen</th>
                        <th>Collection Date</th>
                     </tr>
                     <tr>
                        <td>Upper respiratory specimen (specimen)</td>
                        <td>
                           <span class="nb">28-Oct-2020</span>
                        </td>
                     </tr>
                  </table>
               </div>
            </text>
            <type>
               <coding>
                  <system value="http://snomed.info/sct"/>
                  <code value="258604001"/>
                  <display value="Upper respiratory specimen (specimen)"/>
               </coding>
            </type>
            <collection>
               <collectedDateTime value="2020-10-28"/>
            </collection>
         </Specimen>
      </resource>
   </entry>
   <entry>
      <fullUrl value="urn:uuid:b87993bb-b331-48ec-a3c3-612ceafc6222"/>
      <resource>
         <Observation>
            <id value="b87993bb-b331-48ec-a3c3-612ceafc6222"/>
            <meta>
               <profile value="http://hl7.eu/fhir/laboratory/StructureDefinition/Observation-resultslab-eu-lab"/>
            </meta>
            <text>
               <status value="generated"/>
               <div xmlns="http://www.w3.org/1999/xhtml">
                  <table class="hl7__eu__lab__report">
                     <tr>
                        <th>Test</th>
                        <th>29-Oct-2020</th>
                        <th>Reference Range</th>
                        <th>Unit</th>
                     </tr>
                     <tr>
                        <td>Influenza virus A Ag [Presence] in Upper respiratory specimen by Rapid immunoassay</td>
                     </tr>
                  </table>
               </div>
            </text>
            <status value="final"/>
            <category>
               <coding>
                  <system value="http://terminology.hl7.org/CodeSystem/observation-category"/>
                  <code value="laboratory"/>
               </coding>
            </category>
            <code>
               <coding>
                  <system value="http://loinc.org"/>
                  <code value="80382-5"/>
                  <display value="Influenza virus A Ag [Presence] in Upper respiratory specimen by Rapid immunoassay"/>
               </coding>
               <text value="Influenza virus A Ag [Presence] in Upper respiratory specimen by Rapid immunoassay"/>
            </code>
            <subject>
               <reference value="urn:uuid:9ae3343f-28cc-4ddd-ab2b-b35a59cc19d7"/>
               <display value="Khalid Nilsson"/>
            </subject>
            <effectiveDateTime value="2020-10-28T23:15:05Z"/>
            <performer>
               <display value="The Central European Lab"/>
            </performer>
            <specimen>
               <reference value="urn:uuid:520ca65d-c496-4f47-8292-7461f8f1abe6"/>
            </specimen>
         </Observation>
      </resource>
   </entry>
   <entry>
      <fullUrl value="urn:uuid:4326b76a-65d5-4f50-85f0-23b00681e76f"/>
      <resource>
         <Observation>
            <id value="4326b76a-65d5-4f50-85f0-23b00681e76f"/>
            <meta>
               <profile value="http://hl7.eu/fhir/laboratory/StructureDefinition/Observation-resultslab-eu-lab"/>
            </meta>
            <text>
               <status value="generated"/>
               <div xmlns="http://www.w3.org/1999/xhtml">
                  <table class="hl7__eu__lab__report">
                     <tr>
                        <th>Test</th>
                        <th>29-Oct-2020</th>
                        <th>Reference Range</th>
                        <th>Unit</th>
                     </tr>
                     <tr>
                        <td>Influenza virus B Ag [Presence] in Upper respiratory specimen by Rapid immunoassay</td>
                     </tr>
                  </table>
               </div>
            </text>
            <status value="final"/>
            <category>
               <coding>
                  <system value="http://terminology.hl7.org/CodeSystem/observation-category"/>
                  <code value="laboratory"/>
               </coding>
            </category>
            <code>
               <coding>
                  <system value="http://loinc.org"/>
                  <code value="80383-3"/>
                  <display value="Influenza virus B Ag [Presence] in Upper respiratory specimen by Rapid immunoassay"/>
               </coding>
               <text value="Influenza virus B Ag [Presence] in Upper respiratory specimen by Rapid immunoassay"/>
            </code>
            <subject>
               <reference value="urn:uuid:9ae3343f-28cc-4ddd-ab2b-b35a59cc19d7"/>
               <display value="Khalid Nilsson"/>
            </subject>
            <effectiveDateTime value="2020-10-28T23:15:05Z"/>
            <performer>
               <display value="The Central European Lab"/>
            </performer>
            <specimen>
               <reference value="urn:uuid:520ca65d-c496-4f47-8292-7461f8f1abe6"/>
            </specimen>
         </Observation>
      </resource>
   </entry>
   <entry>
      <fullUrl value="urn:uuid:e44ff08d-4d61-4cce-ba13-e34157ce082e"/>
      <resource>
         <Device>
            <id value="e44ff08d-4d61-4cce-ba13-e34157ce082e"/>
            <text>
               <status value="generated"/>
               <div xmlns="http://www.w3.org/1999/xhtml">SYNDERAI Synthetic Generator v5.0</div>
            </text>
            <status value="active&#34;"/>
            <distinctIdentifier value="synderai-generator-50"/>
            <manufacturer value="SYNDERAI Project"/>
            <deviceName>
               <name value="SYNDERAI Synthetic Generator"/>
               <type value="manufacturer-name"/>
            </deviceName>
            <version>
               <value value="5.0"/>
            </version>
         </Device>
      </resource>
   </entry>
   <entry>
      <fullUrl value="urn:uuid:aef39230-a4c1-4159-831c-c82bade49639"/>
      <resource>
         <Provenance>
            <id value="aef39230-a4c1-4159-831c-c82bade49639"/>
            <text>
               <status value="generated"/>
               <div xmlns="http://www.w3.org/1999/xhtml">Provenance for SYNDERAI Synthetic Example Data Resource</div>
            </text>
            <target>
               <reference value="Patient/9ae3343f-28cc-4ddd-ab2b-b35a59cc19d7"/>
            </target>
            <target>
               <reference value="Bundle/1dd09c0d-b7d1-4c6c-81ad-a9dc4bf4bbc4"/>
            </target>
            <target>
               <reference value="Composition/aaa68cb7-1362-4ca7-bfc2-0133d80e84d7"/>
            </target>
            <target>
               <reference value="PractitionerRole/9a7e60dc-f796-4c0c-ba78-dc742fc3a25e"/>
            </target>
            <target>
               <reference value="Practitioner/3a833673-1966-4cd3-bd80-12374e877672"/>
            </target>
            <target>
               <reference value="PractitionerRole/ff2d3671-e5ef-4740-9c65-42543639c021"/>
            </target>
            <target>
               <reference value="Organization/ee893878-7c1e-4767-9f83-0d1f67d9ebc9"/>
            </target>
            <recorded value="2020-10-29T00:15:05Z"/>
            <policy value="https://synderai.net/synderai-synthetic-data-policy"/>
            <reason>
               <text value="Interoperability Testing and Training (non-clinical use)"/>
            </reason>
            <activity>
               <text value="Synthetic Example Data Generation"/>
            </activity>
            <agent>
               <type>
                  <text value="author"/>
               </type>
               <who>
                  <reference value="Device/e44ff08d-4d61-4cce-ba13-e34157ce082e"/>
               </who>
            </agent>
         </Provenance>
      </resource>
   </entry>
   <entry>
      <fullUrl value="urn:uuid:9a7e60dc-f796-4c0c-ba78-dc742fc3a25e"/>
      <resource>
         <PractitionerRole>
            <id value="9a7e60dc-f796-4c0c-ba78-dc742fc3a25e"/>
            <meta>
               <profile value="http://hl7.eu/fhir/base/StructureDefinition/practitionerRole-eu"/>
            </meta>
            <text>
               <status value="generated"/>
               <div xmlns="http://www.w3.org/1999/xhtml">Laboratory Role Id: 9a7e60dc-f796-4c0c-ba78-dc742fc3a25e</div>
            </text>
            <practitioner>
               <reference value="urn:uuid:3a833673-1966-4cd3-bd80-12374e877672"/>
            </practitioner>
         </PractitionerRole>
      </resource>
   </entry>
   <entry>
      <fullUrl value="urn:uuid:3a833673-1966-4cd3-bd80-12374e877672"/>
      <resource>
         <Practitioner>
            <id value="3a833673-1966-4cd3-bd80-12374e877672"/>
            <meta>
               <profile value="http://hl7.eu/fhir/base/StructureDefinition/practitioner-eu"/>
            </meta>
            <text>
               <status value="generated"/>
               <div xmlns="http://www.w3.org/1999/xhtml">Laboratory: Laboratoire Central Européenne, 1000 Brussels, Belgium</div>
            </text>
            <identifier>
               <system value="urn:oid:2.16.840.1.113883.2.51.999"/>
               <value value="0d8138f4-5c80-41e5-8e34-c9aa5c351221"/>
               <assigner>
                  <display value="HL7 Europe"/>
               </assigner>
            </identifier>
            <name>
               <family value="Ample"/>
               <given value="Ex"/>
               <prefix value="dr"/>
            </name>
            <address>
               <line value="Laboratoire Central Européenne"/>
               <line value="Boulevard du Jardin Botanique 32"/>
               <city value="Brussels"/>
               <postalCode value="1000"/>
               <country value="Belgium"/>
            </address>
         </Practitioner>
      </resource>
   </entry>
</Bundle>