{
  "resourceType": "Bundle",
  "id": "c9407023-36d9-49fa-a662-cbf8e70ed578",
  "meta": {
    "profile": [
      "http://hl7.eu/fhir/laboratory/StructureDefinition/Bundle-eu-lab"
    ]
  },
  "identifier": {
    "assigner": {
      "display": "HL7 Europe"
    },
    "system": "urn:oid:2.16.840.1.113883.2.51.999",
    "value": "63628378-3bb1-4c46-94f2-8cfbb84083a8"
  },
  "entry": [
    {
      "fullUrl": "urn:uuid:1c16d015-f179-4bf7-9219-d501f4783e20",
      "resource": {
        "resourceType": "Composition",
        "id": "1c16d015-f179-4bf7-9219-d501f4783e20",
        "meta": {
          "profile": [
            "http://hl7.eu/fhir/laboratory/StructureDefinition/Composition-eu-lab"
          ]
        },
        "identifier": {
          "assigner": {
            "display": "HL7 Europe"
          },
          "system": "urn:oid:2.16.840.1.113883.2.51.999",
          "value": "1cccb59d-6a1a-4bc7-b9d6-b68ac6384be1"
        },
        "author": [
          {
            "reference": "urn:uuid:361a7ce6-e4ea-4ca8-90f5-7c0048a45a11"
          }
        ],
        "category": [
          {
            "coding": [
              {
                "code": "26436-6",
                "system": "http://loinc.org",
                "display": "Laboratory studies (set)"
              }
            ]
          }
        ],
        "type": {
          "coding": [
            {
              "code": "11502-2",
              "system": "http://loinc.org",
              "display": "Laboratory report"
            }
          ],
          "text": "Laboratory Report"
        },
        "section": [
          {
            "code": {
              "coding": [
                {
                  "code": "26436-6",
                  "system": "http://loinc.org",
                  "display": "Laboratory studies (set)"
                }
              ],
              "text": "Laboratory studies"
            },
            "section": [
              {
                "code": {
                  "coding": [
                    {
                      "code": "$18723-7",
                      "system": "http://loinc.org",
                      "display": "Hematology studies (set)"
                    }
                  ],
                  "text": "Hematology"
                },
                "entry": [
                  {
                    "reference": "urn:uuid:f0b68da1-d1dd-4819-97bc-86cd8cdb2607"
                  },
                  {
                    "reference": "urn:uuid:52730421-a7aa-49d9-b0f4-6319caf226db"
                  },
                  {
                    "reference": "urn:uuid:1ceed1b4-e2fe-4d02-bdd4-d183c635d9fd"
                  },
                  {
                    "reference": "urn:uuid:dffe1133-570c-4bd9-8413-25fd5de32f74"
                  },
                  {
                    "reference": "urn:uuid:df9b5742-83f0-4852-b542-396f2906c91b"
                  },
                  {
                    "reference": "urn:uuid:f216f99a-c055-4fd5-a780-ee38263248e9"
                  },
                  {
                    "reference": "urn:uuid:8e35a574-3d4e-40ac-8b90-3ebfe1dbd2e3"
                  },
                  {
                    "reference": "urn:uuid:a748ff2c-af0e-4e5d-add4-cde1bdb47f3d"
                  },
                  {
                    "reference": "urn:uuid:d33d76f2-8e37-4a51-b713-981d0e01c74b"
                  },
                  {
                    "reference": "urn:uuid:6dd1efb8-f50d-4d8a-9690-e5904b82d2ef"
                  },
                  {
                    "reference": "urn:uuid:a7dc34cc-f8f4-4223-bddf-8a37131c1abe"
                  }
                ],
                "text": {
                  "status": "generated",
                  "div": "<div xmlns=\"http://www.w3.org/1999/xhtml\"><h3>Hematology</h3><table class=\"hl7__eu__lab__report\"><thead><tr><th>Test</th><th>24-AUG-2024</th><th>Reference&#xA0;Range</th><th>Unit</th></tr></thead><tbody><tr><td>Leukocytes [#/volume] in Blood by Automated count</td><td>4.4</td><td>3.5 - 10.5</td><td>10*3/uL</td></tr><tr><td>Erythrocytes [#/volume] in Blood by Automated count</td><td><strong>3.9 L</strong></td><td>4.5 - 6.2</td><td>10*6/uL</td></tr><tr><td>Hemoglobin [Mass/volume] in Blood</td><td><strong>13.3 L</strong></td><td>14 - 18</td><td>g/dL</td></tr><tr><td>Hematocrit [Volume Fraction] of Blood by Automated count</td><td>48.7</td><td>42 - 52</td><td>%</td></tr><tr><td>MCV [Entitic volume] by Automated count</td><td>87.1</td><td>82 - 98</td><td>fL</td></tr><tr><td>MCH [Entitic mass] by Automated count</td><td>27.3</td><td>27 - 33.4</td><td>pg</td></tr><tr><td>MCHC [Mass/volume] by Automated count</td><td>34.0</td><td>31 - 37</td><td>g/dL</td></tr><tr><td>Erythrocyte distribution width [Entitic volume] by Automated count</td><td>40.2</td><td>35 - 55</td><td>fL</td></tr><tr><td>Platelets [#/volume] in Blood by Automated count</td><td>419.9</td><td>150 - 450</td><td>10*3/uL</td></tr><tr><td>Platelet distribution width [Entitic volume] in Blood by Automated count</td><td><strong>317.9 H</strong></td><td>13.4 - 17.4</td><td>fL</td></tr><tr><td>Platelet mean volume [Entitic volume] in Blood by Automated count</td><td>11.4</td><td>7.2 - 13.8</td><td>fL</td></tr></tbody></table></div>"
                },
                "title": "Hematology"
              }
            ],
            "title": "Laboratory Report"
          },
          {
            "text": {
              "status": "generated",
              "div": "<div xmlns=\"http://www.w3.org/1999/xhtml\"><h3>Annotation</h3><table class=\"hl7__eu__lab__report\"><tr><th>Conclusion and Recommendations based on this report and previous findings known to us</th></tr><tr><td>The patient shows mild normocytic, normochromic anemia (low erythrocytes and hemoglobin, normal MCV/MCH), with normal leukocyte and platelet counts. Platelet distribution width is elevated, which may indicate increased platelet size variability, possibly due to reactive or regenerative processes. Correlation with clinical context and further evaluation for anemia etiology is recommended.</td></tr></table></div>"
            },
            "code": {
              "coding": [
                {
                  "system": "http://loinc.org",
                  "code": "48767-8",
                  "display": "Annotation comment"
                }
              ]
            },
            "title": "Annotation comment"
          }
        ],
        "status": "final",
        "subject": {
          "reference": "urn:uuid:94fd677b-cda5-448f-aab4-fc2a9cee7675",
          "display": "Ondrej Machová"
        },
        "date": "2024-08-24T14:49:06Z",
        "title": "Laboratory Report",
        "confidentiality": "N"
      }
    },
    {
      "fullUrl": "urn:uuid:96c7ffe3-1394-42a3-9373-32902897494a",
      "resource": {
        "resourceType": "DiagnosticReport",
        "id": "96c7ffe3-1394-42a3-9373-32902897494a",
        "meta": {
          "profile": [
            "http://hl7.eu/fhir/laboratory/StructureDefinition/DiagnosticReport-eu-lab"
          ]
        },
        "identifier": [
          {
            "assigner": {
              "display": "HL7 Europe"
            },
            "system": "urn:oid:2.16.840.1.113883.2.51.999",
            "value": "47bf809d-0adc-4e90-a572-cb7455a3bf8d"
          }
        ],
        "extension": [
          {
            "url": "http://hl7.org/fhir/5.0/StructureDefinition/extension-DiagnosticReport.composition",
            "valueReference": {
              "reference": "urn:uuid:1cccb59d-6a1a-4bc7-b9d6-b68ac6384be1"
            }
          }
        ],
        "category": [
          {
            "coding": [
              {
                "code": "26436-6",
                "system": "http://loinc.org",
                "display": "Laboratory studies (set)"
              }
            ]
          }
        ],
        "specimen": [
          {
            "reference": "urn:uuid:4ae0f05a-a6b3-4454-b8a1-70f9258d2146"
          },
          {
            "reference": "urn:uuid:4ae0f05a-a6b3-4454-b8a1-70f9258d2146"
          }
        ],
        "result": [
          {
            "reference": "urn:uuid:f0b68da1-d1dd-4819-97bc-86cd8cdb2607"
          },
          {
            "reference": "urn:uuid:52730421-a7aa-49d9-b0f4-6319caf226db"
          },
          {
            "reference": "urn:uuid:1ceed1b4-e2fe-4d02-bdd4-d183c635d9fd"
          },
          {
            "reference": "urn:uuid:dffe1133-570c-4bd9-8413-25fd5de32f74"
          },
          {
            "reference": "urn:uuid:df9b5742-83f0-4852-b542-396f2906c91b"
          },
          {
            "reference": "urn:uuid:f216f99a-c055-4fd5-a780-ee38263248e9"
          },
          {
            "reference": "urn:uuid:8e35a574-3d4e-40ac-8b90-3ebfe1dbd2e3"
          },
          {
            "reference": "urn:uuid:a748ff2c-af0e-4e5d-add4-cde1bdb47f3d"
          },
          {
            "reference": "urn:uuid:d33d76f2-8e37-4a51-b713-981d0e01c74b"
          },
          {
            "reference": "urn:uuid:6dd1efb8-f50d-4d8a-9690-e5904b82d2ef"
          },
          {
            "reference": "urn:uuid:a7dc34cc-f8f4-4223-bddf-8a37131c1abe"
          }
        ],
        "status": "registered",
        "code": {
          "coding": [
            {
              "code": "11502-2",
              "system": "http://loinc.org",
              "display": "Laboratory report"
            }
          ]
        },
        "subject": {
          "reference": "urn:uuid:94fd677b-cda5-448f-aab4-fc2a9cee7675",
          "display": "Ondrej Machová"
        }
      }
    },
    {
      "fullUrl": "urn:uuid:94fd677b-cda5-448f-aab4-fc2a9cee7675",
      "resource": {
        "resourceType": "Patient",
        "id": "94fd677b-cda5-448f-aab4-fc2a9cee7675",
        "meta": {
          "security": [
            {
              "system": "http://terminology.hl7.org/CodeSystem/v3-ActReason",
              "code": "HTEST"
            },
            {
              "system": "http://terminology.hl7.org/CodeSystem/v3-ActReason",
              "code": "TRAIN"
            }
          ],
          "tag": [
            {
              "system": "https://synderai.net/fhir/CodeSystem/tags",
              "code": "synthetic",
              "display": "SYNDERAI Synthetic data"
            }
          ],
          "profile": [
            "http://hl7.eu/fhir/base/StructureDefinition/patient-eu-core"
          ]
        },
        "identifier": [
          {
            "type": {
              "coding": [
                {
                  "code": "PT",
                  "system": "http://terminology.hl7.org/CodeSystem/v2-0203"
                }
              ]
            },
            "system": "http://ec.europa.eu/identifier/eci",
            "value": "8798-429370-1"
          },
          {
            "type": {
              "coding": [
                {
                  "code": "MR",
                  "system": "http://terminology.hl7.org/CodeSystem/v2-0203"
                }
              ]
            },
            "system": "http://local.setting.eu/identifier",
            "value": "2b8bf475-e001-39fc-9880-7b5894bf6991"
          }
        ],
        "name": [
          {
            "family": "Machová"
          },
          {
            "given": [
              "Ondrej"
            ]
          },
          {
            "text": "Ondrej Machová"
          }
        ],
        "address": [
          {
            "line": [
              "Staromestská 5"
            ],
            "use": "home",
            "type": "physical",
            "postalCode": "95103",
            "city": "Hrušov",
            "country": "Slovakia"
          }
        ],
        "telecom": [
          {
            "system": "phone",
            "value": "00421 944 296 102"
          }
        ],
        "extension": [
          {
            "url": "http://hl7.org/fhir/StructureDefinition/patient-nationality",
            "valueCodeableConcept": {
              "coding": [
                {
                  "code": "SK",
                  "system": "http://hl7.org/fhir/ValueSet/country"
                }
              ]
            }
          }
        ],
        "text": {
          "status": "generated",
          "div": "<div xmlns=\"http://www.w3.org/1999/xhtml\"><table class=\"hl7__ips\"><tr><td>Ondrej Machová</td><td>male</td><td>31-Jul-1997</td></tr></table></div>"
        },
        "gender": "male",
        "birthDate": "1997-07-31"
      }
    },
    {
      "fullUrl": "urn:uuid:799309e8-7084-4610-998c-ca15ea9b01ab",
      "resource": {
        "resourceType": "ServiceRequest",
        "id": "799309e8-7084-4610-998c-ca15ea9b01ab",
        "meta": {
          "profile": [
            "http://hl7.eu/fhir/laboratory/StructureDefinition/ServiceRequest-eu-lab"
          ]
        },
        "identifier": [
          {
            "system": "http://example.org",
            "value": "3051098e-f845-4a2a-b682-ac06e70a2ddb"
          }
        ],
        "specimen": [
          {
            "reference": "urn:uuid:4ae0f05a-a6b3-4454-b8a1-70f9258d2146"
          }
        ],
        "reasonCode": [
          {
            "coding": [
              {
                "code": "40055000",
                "system": "http://snomed.info/sct",
                "display": "Chronic sinusitis"
              }
            ]
          }
        ],
        "status": "active",
        "intent": "order",
        "code": {
          "coding": [
            {
              "code": "108252007",
              "system": "http://snomed.info/sct",
              "display": "Laboratory procedure"
            }
          ]
        },
        "subject": {
          "reference": "urn:uuid:94fd677b-cda5-448f-aab4-fc2a9cee7675",
          "display": "Ondrej Machová"
        },
        "requester": {
          "reference": "urn:uuid:e998d569-9dc9-4906-a378-d77932398761"
        }
      }
    },
    {
      "fullUrl": "urn:uuid:e998d569-9dc9-4906-a378-d77932398761",
      "resource": {
        "resourceType": "PractitionerRole",
        "id": "e998d569-9dc9-4906-a378-d77932398761",
        "meta": {
          "profile": [
            "http://hl7.eu/fhir/base/StructureDefinition/practitionerRole-eu"
          ]
        },
        "text": {
          "status": "generated",
          "div": "<div xmlns=\"http://www.w3.org/1999/xhtml\">Provider Role Id: e998d569-9dc9-4906-a378-d77932398761</div>"
        },
        "organization": {
          "reference": "urn:uuid:a222b387-fdd5-43c7-b682-28791d650488"
        }
      }
    },
    {
      "fullUrl": "urn:uuid:a222b387-fdd5-43c7-b682-28791d650488",
      "resource": {
        "resourceType": "Organization",
        "id": "a222b387-fdd5-43c7-b682-28791d650488",
        "meta": {
          "profile": [
            "http://hl7.eu/fhir/base/StructureDefinition/organization-eu"
          ]
        },
        "identifier": [
          {
            "assigner": {
              "display": "HL7 Europe"
            },
            "system": "urn:oid:2.16.840.1.113883.2.51.999",
            "value": "b468f222-a50c-40e2-ab64-7fc7a261b3c7"
          }
        ],
        "address": [
          {
            "city": "Kremnica",
            "postalCode": "967 01",
            "country": "Slovakia"
          }
        ],
        "text": {
          "status": "generated",
          "div": "<div xmlns=\"http://www.w3.org/1999/xhtml\">Provider Organization: Územná poliklinika</div>"
        },
        "name": "Územná poliklinika"
      }
    },
    {
      "fullUrl": "urn:uuid:4ae0f05a-a6b3-4454-b8a1-70f9258d2146",
      "resource": {
        "resourceType": "Specimen",
        "id": "4ae0f05a-a6b3-4454-b8a1-70f9258d2146",
        "meta": {
          "profile": [
            "http://hl7.eu/fhir/laboratory/StructureDefinition/Specimen-eu-lab"
          ]
        },
        "collection": {
          "collectedDateTime": "2024-08-24"
        },
        "text": {
          "status": "generated",
          "div": "<div xmlns=\"http://www.w3.org/1999/xhtml\"><table class=\"hl7__eu__lab__report\"><tr><th>Specimen</th><th>Collection Date</th></tr><tr><td>Whole blood specimen (specimen)</td><td><span class=\"nb\">24-Aug-2024</span></td></tr></table></div>"
        },
        "type": {
          "coding": [
            {
              "code": "258580003",
              "system": "http://snomed.info/sct",
              "display": "Whole blood specimen (specimen)"
            }
          ]
        }
      }
    },
    {
      "fullUrl": "urn:uuid:4ae0f05a-a6b3-4454-b8a1-70f9258d2146",
      "resource": {
        "resourceType": "Specimen",
        "id": "4ae0f05a-a6b3-4454-b8a1-70f9258d2146",
        "meta": {
          "profile": [
            "http://hl7.eu/fhir/laboratory/StructureDefinition/Specimen-eu-lab"
          ]
        },
        "collection": {
          "collectedDateTime": "2024-08-24"
        },
        "text": {
          "status": "generated",
          "div": "<div xmlns=\"http://www.w3.org/1999/xhtml\"><table class=\"hl7__eu__lab__report\"><tr><th>Specimen</th><th>Collection Date</th></tr><tr><td>Whole blood specimen (specimen)</td><td><span class=\"nb\">24-Aug-2024</span></td></tr></table></div>"
        },
        "type": {
          "coding": [
            {
              "code": "258580003",
              "system": "http://snomed.info/sct",
              "display": "Whole blood specimen (specimen)"
            }
          ]
        }
      }
    },
    {
      "fullUrl": "urn:uuid:f0b68da1-d1dd-4819-97bc-86cd8cdb2607",
      "resource": {
        "resourceType": "Observation",
        "id": "f0b68da1-d1dd-4819-97bc-86cd8cdb2607",
        "meta": {
          "profile": [
            "http://hl7.eu/fhir/laboratory/StructureDefinition/Observation-resultslab-eu-lab"
          ]
        },
        "performer": [
          {
            "display": "The Central European Lab"
          }
        ],
        "category": [
          {
            "coding": [
              {
                "system": "http://terminology.hl7.org/CodeSystem/observation-category",
                "code": "laboratory"
              }
            ]
          }
        ],
        "code": {
          "coding": [
            {
              "code": "6690-2",
              "system": "http://loinc.org",
              "display": "Leukocytes [#/volume] in Blood by Automated count"
            }
          ],
          "text": "Leukocytes [#/volume] in Blood by Automated count"
        },
        "valueQuantity": {
          "system": "http://unitsofmeasure.org",
          "value": 4.4,
          "unit": "10*3/uL",
          "code": "10*3/uL"
        },
        "referenceRange": [
          {
            "low": {
              "value": 3.5,
              "code": "10*3/uL",
              "system": "http://unitsofmeasure.org"
            }
          },
          {
            "high": {
              "value": 10.5,
              "code": "10*3/uL",
              "system": "http://unitsofmeasure.org"
            }
          }
        ],
        "text": {
          "status": "generated",
          "div": "<div xmlns=\"http://www.w3.org/1999/xhtml\"><table class=\"hl7__eu__lab__report\"><tr><th>Test</th><th>24-Aug-2024</th><th>Reference&#xA0;Range</th><th>Unit</th></tr><tr><td>Leukocytes [#/volume] in Blood by Automated count</td><td>4.4</td><td>3.5 - 10.5</td><td></td><td>10*3/uL</td></tr></table></div>"
        },
        "status": "final",
        "subject": {
          "reference": "urn:uuid:94fd677b-cda5-448f-aab4-fc2a9cee7675",
          "display": "Ondrej Machová"
        },
        "effectiveDateTime": "2024-08-24T12:49:06Z",
        "specimen": {
          "reference": "urn:uuid:4ae0f05a-a6b3-4454-b8a1-70f9258d2146"
        }
      }
    },
    {
      "fullUrl": "urn:uuid:52730421-a7aa-49d9-b0f4-6319caf226db",
      "resource": {
        "resourceType": "Observation",
        "id": "52730421-a7aa-49d9-b0f4-6319caf226db",
        "meta": {
          "profile": [
            "http://hl7.eu/fhir/laboratory/StructureDefinition/Observation-resultslab-eu-lab"
          ]
        },
        "performer": [
          {
            "display": "The Central European Lab"
          }
        ],
        "category": [
          {
            "coding": [
              {
                "system": "http://terminology.hl7.org/CodeSystem/observation-category",
                "code": "laboratory"
              }
            ]
          }
        ],
        "code": {
          "coding": [
            {
              "code": "789-8",
              "system": "http://loinc.org",
              "display": "Erythrocytes [#/volume] in Blood by Automated count"
            }
          ],
          "text": "Erythrocytes [#/volume] in Blood by Automated count"
        },
        "valueQuantity": {
          "system": "http://unitsofmeasure.org",
          "value": 3.9,
          "unit": "10*6/uL",
          "code": "10*6/uL"
        },
        "referenceRange": [
          {
            "low": {
              "value": 4.5,
              "code": "10*6/uL",
              "system": "http://unitsofmeasure.org"
            }
          },
          {
            "high": {
              "value": 6.2,
              "code": "10*6/uL",
              "system": "http://unitsofmeasure.org"
            }
          }
        ],
        "interpretation": [
          {
            "coding": [
              {
                "code": "L",
                "system": "http://terminology.hl7.org/CodeSystem/v3-ObservationInterpretation",
                "display": "Low"
              }
            ]
          }
        ],
        "text": {
          "status": "generated",
          "div": "<div xmlns=\"http://www.w3.org/1999/xhtml\"><table class=\"hl7__eu__lab__report\"><tr><th>Test</th><th>24-Aug-2024</th><th>Reference&#xA0;Range</th><th>Unit</th></tr><tr><td>Erythrocytes [#/volume] in Blood by Automated count</td><td>3.9</td><td>4.5 - 6.2</td><td>L</td><td>10*6/uL</td></tr></table></div>"
        },
        "status": "final",
        "subject": {
          "reference": "urn:uuid:94fd677b-cda5-448f-aab4-fc2a9cee7675",
          "display": "Ondrej Machová"
        },
        "effectiveDateTime": "2024-08-24T12:49:06Z",
        "specimen": {
          "reference": "urn:uuid:4ae0f05a-a6b3-4454-b8a1-70f9258d2146"
        }
      }
    },
    {
      "fullUrl": "urn:uuid:1ceed1b4-e2fe-4d02-bdd4-d183c635d9fd",
      "resource": {
        "resourceType": "Observation",
        "id": "1ceed1b4-e2fe-4d02-bdd4-d183c635d9fd",
        "meta": {
          "profile": [
            "http://hl7.eu/fhir/laboratory/StructureDefinition/Observation-resultslab-eu-lab"
          ]
        },
        "performer": [
          {
            "display": "The Central European Lab"
          }
        ],
        "category": [
          {
            "coding": [
              {
                "system": "http://terminology.hl7.org/CodeSystem/observation-category",
                "code": "laboratory"
              }
            ]
          }
        ],
        "code": {
          "coding": [
            {
              "code": "718-7",
              "system": "http://loinc.org",
              "display": "Hemoglobin [Mass/volume] in Blood"
            }
          ],
          "text": "Hemoglobin [Mass/volume] in Blood"
        },
        "valueQuantity": {
          "system": "http://unitsofmeasure.org",
          "value": 13.3,
          "unit": "g/dL",
          "code": "g/dL"
        },
        "referenceRange": [
          {
            "low": {
              "value": 14,
              "code": "g/dL",
              "system": "http://unitsofmeasure.org"
            }
          },
          {
            "high": {
              "value": 18,
              "code": "g/dL",
              "system": "http://unitsofmeasure.org"
            }
          }
        ],
        "interpretation": [
          {
            "coding": [
              {
                "code": "L",
                "system": "http://terminology.hl7.org/CodeSystem/v3-ObservationInterpretation",
                "display": "Low"
              }
            ]
          }
        ],
        "text": {
          "status": "generated",
          "div": "<div xmlns=\"http://www.w3.org/1999/xhtml\"><table class=\"hl7__eu__lab__report\"><tr><th>Test</th><th>24-Aug-2024</th><th>Reference&#xA0;Range</th><th>Unit</th></tr><tr><td>Hemoglobin [Mass/volume] in Blood</td><td>13.3</td><td>14 - 18</td><td>L</td><td>g/dL</td></tr></table></div>"
        },
        "status": "final",
        "subject": {
          "reference": "urn:uuid:94fd677b-cda5-448f-aab4-fc2a9cee7675",
          "display": "Ondrej Machová"
        },
        "effectiveDateTime": "2024-08-24T12:49:06Z",
        "specimen": {
          "reference": "urn:uuid:4ae0f05a-a6b3-4454-b8a1-70f9258d2146"
        }
      }
    },
    {
      "fullUrl": "urn:uuid:dffe1133-570c-4bd9-8413-25fd5de32f74",
      "resource": {
        "resourceType": "Observation",
        "id": "dffe1133-570c-4bd9-8413-25fd5de32f74",
        "meta": {
          "profile": [
            "http://hl7.eu/fhir/laboratory/StructureDefinition/Observation-resultslab-eu-lab"
          ]
        },
        "performer": [
          {
            "display": "The Central European Lab"
          }
        ],
        "category": [
          {
            "coding": [
              {
                "system": "http://terminology.hl7.org/CodeSystem/observation-category",
                "code": "laboratory"
              }
            ]
          }
        ],
        "code": {
          "coding": [
            {
              "code": "4544-3",
              "system": "http://loinc.org",
              "display": "Hematocrit [Volume Fraction] of Blood by Automated count"
            }
          ],
          "text": "Hematocrit [Volume Fraction] of Blood by Automated count"
        },
        "valueQuantity": {
          "system": "http://unitsofmeasure.org",
          "value": 48.7,
          "unit": "%",
          "code": "%"
        },
        "referenceRange": [
          {
            "low": {
              "value": 42,
              "code": "%",
              "system": "http://unitsofmeasure.org"
            }
          },
          {
            "high": {
              "value": 52,
              "code": "%",
              "system": "http://unitsofmeasure.org"
            }
          }
        ],
        "text": {
          "status": "generated",
          "div": "<div xmlns=\"http://www.w3.org/1999/xhtml\"><table class=\"hl7__eu__lab__report\"><tr><th>Test</th><th>24-Aug-2024</th><th>Reference&#xA0;Range</th><th>Unit</th></tr><tr><td>Hematocrit [Volume Fraction] of Blood by Automated count</td><td>48.7</td><td>42 - 52</td><td></td><td>%</td></tr></table></div>"
        },
        "status": "final",
        "subject": {
          "reference": "urn:uuid:94fd677b-cda5-448f-aab4-fc2a9cee7675",
          "display": "Ondrej Machová"
        },
        "effectiveDateTime": "2024-08-24T12:49:06Z",
        "specimen": {
          "reference": "urn:uuid:4ae0f05a-a6b3-4454-b8a1-70f9258d2146"
        }
      }
    },
    {
      "fullUrl": "urn:uuid:df9b5742-83f0-4852-b542-396f2906c91b",
      "resource": {
        "resourceType": "Observation",
        "id": "df9b5742-83f0-4852-b542-396f2906c91b",
        "meta": {
          "profile": [
            "http://hl7.eu/fhir/laboratory/StructureDefinition/Observation-resultslab-eu-lab"
          ]
        },
        "performer": [
          {
            "display": "The Central European Lab"
          }
        ],
        "category": [
          {
            "coding": [
              {
                "system": "http://terminology.hl7.org/CodeSystem/observation-category",
                "code": "laboratory"
              }
            ]
          }
        ],
        "code": {
          "coding": [
            {
              "code": "787-2",
              "system": "http://loinc.org",
              "display": "MCV [Entitic volume] by Automated count"
            }
          ],
          "text": "MCV [Entitic volume] by Automated count"
        },
        "valueQuantity": {
          "system": "http://unitsofmeasure.org",
          "value": 87.1,
          "unit": "fL",
          "code": "fL"
        },
        "referenceRange": [
          {
            "low": {
              "value": 82,
              "code": "fL",
              "system": "http://unitsofmeasure.org"
            }
          },
          {
            "high": {
              "value": 98,
              "code": "fL",
              "system": "http://unitsofmeasure.org"
            }
          }
        ],
        "text": {
          "status": "generated",
          "div": "<div xmlns=\"http://www.w3.org/1999/xhtml\"><table class=\"hl7__eu__lab__report\"><tr><th>Test</th><th>24-Aug-2024</th><th>Reference&#xA0;Range</th><th>Unit</th></tr><tr><td>MCV [Entitic volume] by Automated count</td><td>87.1</td><td>82 - 98</td><td></td><td>fL</td></tr></table></div>"
        },
        "status": "final",
        "subject": {
          "reference": "urn:uuid:94fd677b-cda5-448f-aab4-fc2a9cee7675",
          "display": "Ondrej Machová"
        },
        "effectiveDateTime": "2024-08-24T12:49:06Z",
        "specimen": {
          "reference": "urn:uuid:4ae0f05a-a6b3-4454-b8a1-70f9258d2146"
        }
      }
    },
    {
      "fullUrl": "urn:uuid:f216f99a-c055-4fd5-a780-ee38263248e9",
      "resource": {
        "resourceType": "Observation",
        "id": "f216f99a-c055-4fd5-a780-ee38263248e9",
        "meta": {
          "profile": [
            "http://hl7.eu/fhir/laboratory/StructureDefinition/Observation-resultslab-eu-lab"
          ]
        },
        "performer": [
          {
            "display": "The Central European Lab"
          }
        ],
        "category": [
          {
            "coding": [
              {
                "system": "http://terminology.hl7.org/CodeSystem/observation-category",
                "code": "laboratory"
              }
            ]
          }
        ],
        "code": {
          "coding": [
            {
              "code": "785-6",
              "system": "http://loinc.org",
              "display": "MCH [Entitic mass] by Automated count"
            }
          ],
          "text": "MCH [Entitic mass] by Automated count"
        },
        "valueQuantity": {
          "system": "http://unitsofmeasure.org",
          "value": 27.3,
          "unit": "pg",
          "code": "pg"
        },
        "referenceRange": [
          {
            "low": {
              "value": 27,
              "code": "pg",
              "system": "http://unitsofmeasure.org"
            }
          },
          {
            "high": {
              "value": 33.4,
              "code": "pg",
              "system": "http://unitsofmeasure.org"
            }
          }
        ],
        "text": {
          "status": "generated",
          "div": "<div xmlns=\"http://www.w3.org/1999/xhtml\"><table class=\"hl7__eu__lab__report\"><tr><th>Test</th><th>24-Aug-2024</th><th>Reference&#xA0;Range</th><th>Unit</th></tr><tr><td>MCH [Entitic mass] by Automated count</td><td>27.3</td><td>27 - 33.4</td><td></td><td>pg</td></tr></table></div>"
        },
        "status": "final",
        "subject": {
          "reference": "urn:uuid:94fd677b-cda5-448f-aab4-fc2a9cee7675",
          "display": "Ondrej Machová"
        },
        "effectiveDateTime": "2024-08-24T12:49:06Z",
        "specimen": {
          "reference": "urn:uuid:4ae0f05a-a6b3-4454-b8a1-70f9258d2146"
        }
      }
    },
    {
      "fullUrl": "urn:uuid:8e35a574-3d4e-40ac-8b90-3ebfe1dbd2e3",
      "resource": {
        "resourceType": "Observation",
        "id": "8e35a574-3d4e-40ac-8b90-3ebfe1dbd2e3",
        "meta": {
          "profile": [
            "http://hl7.eu/fhir/laboratory/StructureDefinition/Observation-resultslab-eu-lab"
          ]
        },
        "performer": [
          {
            "display": "The Central European Lab"
          }
        ],
        "category": [
          {
            "coding": [
              {
                "system": "http://terminology.hl7.org/CodeSystem/observation-category",
                "code": "laboratory"
              }
            ]
          }
        ],
        "code": {
          "coding": [
            {
              "code": "786-4",
              "system": "http://loinc.org",
              "display": "MCHC [Mass/volume] by Automated count"
            }
          ],
          "text": "MCHC [Mass/volume] by Automated count"
        },
        "valueQuantity": {
          "system": "http://unitsofmeasure.org",
          "value": 34,
          "unit": "g/dL",
          "code": "g/dL"
        },
        "referenceRange": [
          {
            "low": {
              "value": 31,
              "code": "g/dL",
              "system": "http://unitsofmeasure.org"
            }
          },
          {
            "high": {
              "value": 37,
              "code": "g/dL",
              "system": "http://unitsofmeasure.org"
            }
          }
        ],
        "text": {
          "status": "generated",
          "div": "<div xmlns=\"http://www.w3.org/1999/xhtml\"><table class=\"hl7__eu__lab__report\"><tr><th>Test</th><th>24-Aug-2024</th><th>Reference&#xA0;Range</th><th>Unit</th></tr><tr><td>MCHC [Mass/volume] by Automated count</td><td>34.0</td><td>31 - 37</td><td></td><td>g/dL</td></tr></table></div>"
        },
        "status": "final",
        "subject": {
          "reference": "urn:uuid:94fd677b-cda5-448f-aab4-fc2a9cee7675",
          "display": "Ondrej Machová"
        },
        "effectiveDateTime": "2024-08-24T12:49:06Z",
        "specimen": {
          "reference": "urn:uuid:4ae0f05a-a6b3-4454-b8a1-70f9258d2146"
        }
      }
    },
    {
      "fullUrl": "urn:uuid:a748ff2c-af0e-4e5d-add4-cde1bdb47f3d",
      "resource": {
        "resourceType": "Observation",
        "id": "a748ff2c-af0e-4e5d-add4-cde1bdb47f3d",
        "meta": {
          "profile": [
            "http://hl7.eu/fhir/laboratory/StructureDefinition/Observation-resultslab-eu-lab"
          ]
        },
        "performer": [
          {
            "display": "The Central European Lab"
          }
        ],
        "category": [
          {
            "coding": [
              {
                "system": "http://terminology.hl7.org/CodeSystem/observation-category",
                "code": "laboratory"
              }
            ]
          }
        ],
        "code": {
          "coding": [
            {
              "code": "21000-5",
              "system": "http://loinc.org",
              "display": "Erythrocyte distribution width [Entitic volume] by Automated count"
            }
          ],
          "text": "Erythrocyte distribution width [Entitic volume] by Automated count"
        },
        "valueQuantity": {
          "system": "http://unitsofmeasure.org",
          "value": 40.2,
          "unit": "fL",
          "code": "fL"
        },
        "referenceRange": [
          {
            "low": {
              "value": 35,
              "code": "fL",
              "system": "http://unitsofmeasure.org"
            }
          },
          {
            "high": {
              "value": 55,
              "code": "fL",
              "system": "http://unitsofmeasure.org"
            }
          }
        ],
        "text": {
          "status": "generated",
          "div": "<div xmlns=\"http://www.w3.org/1999/xhtml\"><table class=\"hl7__eu__lab__report\"><tr><th>Test</th><th>24-Aug-2024</th><th>Reference&#xA0;Range</th><th>Unit</th></tr><tr><td>Erythrocyte distribution width [Entitic volume] by Automated count</td><td>40.2</td><td>35 - 55</td><td></td><td>fL</td></tr></table></div>"
        },
        "status": "final",
        "subject": {
          "reference": "urn:uuid:94fd677b-cda5-448f-aab4-fc2a9cee7675",
          "display": "Ondrej Machová"
        },
        "effectiveDateTime": "2024-08-24T12:49:06Z",
        "specimen": {
          "reference": "urn:uuid:4ae0f05a-a6b3-4454-b8a1-70f9258d2146"
        }
      }
    },
    {
      "fullUrl": "urn:uuid:d33d76f2-8e37-4a51-b713-981d0e01c74b",
      "resource": {
        "resourceType": "Observation",
        "id": "d33d76f2-8e37-4a51-b713-981d0e01c74b",
        "meta": {
          "profile": [
            "http://hl7.eu/fhir/laboratory/StructureDefinition/Observation-resultslab-eu-lab"
          ]
        },
        "performer": [
          {
            "display": "The Central European Lab"
          }
        ],
        "category": [
          {
            "coding": [
              {
                "system": "http://terminology.hl7.org/CodeSystem/observation-category",
                "code": "laboratory"
              }
            ]
          }
        ],
        "code": {
          "coding": [
            {
              "code": "777-3",
              "system": "http://loinc.org",
              "display": "Platelets [#/volume] in Blood by Automated count"
            }
          ],
          "text": "Platelets [#/volume] in Blood by Automated count"
        },
        "valueQuantity": {
          "system": "http://unitsofmeasure.org",
          "value": 419.9,
          "unit": "10*3/uL",
          "code": "10*3/uL"
        },
        "referenceRange": [
          {
            "low": {
              "value": 150,
              "code": "10*3/uL",
              "system": "http://unitsofmeasure.org"
            }
          },
          {
            "high": {
              "value": 450,
              "code": "10*3/uL",
              "system": "http://unitsofmeasure.org"
            }
          }
        ],
        "text": {
          "status": "generated",
          "div": "<div xmlns=\"http://www.w3.org/1999/xhtml\"><table class=\"hl7__eu__lab__report\"><tr><th>Test</th><th>24-Aug-2024</th><th>Reference&#xA0;Range</th><th>Unit</th></tr><tr><td>Platelets [#/volume] in Blood by Automated count</td><td>419.9</td><td>150 - 450</td><td></td><td>10*3/uL</td></tr></table></div>"
        },
        "status": "final",
        "subject": {
          "reference": "urn:uuid:94fd677b-cda5-448f-aab4-fc2a9cee7675",
          "display": "Ondrej Machová"
        },
        "effectiveDateTime": "2024-08-24T12:49:06Z",
        "specimen": {
          "reference": "urn:uuid:4ae0f05a-a6b3-4454-b8a1-70f9258d2146"
        }
      }
    },
    {
      "fullUrl": "urn:uuid:6dd1efb8-f50d-4d8a-9690-e5904b82d2ef",
      "resource": {
        "resourceType": "Observation",
        "id": "6dd1efb8-f50d-4d8a-9690-e5904b82d2ef",
        "meta": {
          "profile": [
            "http://hl7.eu/fhir/laboratory/StructureDefinition/Observation-resultslab-eu-lab"
          ]
        },
        "performer": [
          {
            "display": "The Central European Lab"
          }
        ],
        "category": [
          {
            "coding": [
              {
                "system": "http://terminology.hl7.org/CodeSystem/observation-category",
                "code": "laboratory"
              }
            ]
          }
        ],
        "code": {
          "coding": [
            {
              "code": "32207-3",
              "system": "http://loinc.org",
              "display": "Platelet distribution width [Entitic volume] in Blood by Automated count"
            }
          ],
          "text": "Platelet distribution width [Entitic volume] in Blood by Automated count"
        },
        "valueQuantity": {
          "system": "http://unitsofmeasure.org",
          "value": 317.9,
          "unit": "fL",
          "code": "fL"
        },
        "referenceRange": [
          {
            "low": {
              "value": 13.4,
              "code": "fL",
              "system": "http://unitsofmeasure.org"
            }
          },
          {
            "high": {
              "value": 17.4,
              "code": "fL",
              "system": "http://unitsofmeasure.org"
            }
          }
        ],
        "interpretation": [
          {
            "coding": [
              {
                "code": "H",
                "system": "http://terminology.hl7.org/CodeSystem/v3-ObservationInterpretation",
                "display": "High"
              }
            ]
          }
        ],
        "text": {
          "status": "generated",
          "div": "<div xmlns=\"http://www.w3.org/1999/xhtml\"><table class=\"hl7__eu__lab__report\"><tr><th>Test</th><th>24-Aug-2024</th><th>Reference&#xA0;Range</th><th>Unit</th></tr><tr><td>Platelet distribution width [Entitic volume] in Blood by Automated count</td><td>317.9</td><td>13.4 - 17.4</td><td>H</td><td>fL</td></tr></table></div>"
        },
        "status": "final",
        "subject": {
          "reference": "urn:uuid:94fd677b-cda5-448f-aab4-fc2a9cee7675",
          "display": "Ondrej Machová"
        },
        "effectiveDateTime": "2024-08-24T12:49:06Z",
        "specimen": {
          "reference": "urn:uuid:4ae0f05a-a6b3-4454-b8a1-70f9258d2146"
        }
      }
    },
    {
      "fullUrl": "urn:uuid:a7dc34cc-f8f4-4223-bddf-8a37131c1abe",
      "resource": {
        "resourceType": "Observation",
        "id": "a7dc34cc-f8f4-4223-bddf-8a37131c1abe",
        "meta": {
          "profile": [
            "http://hl7.eu/fhir/laboratory/StructureDefinition/Observation-resultslab-eu-lab"
          ]
        },
        "performer": [
          {
            "display": "The Central European Lab"
          }
        ],
        "category": [
          {
            "coding": [
              {
                "system": "http://terminology.hl7.org/CodeSystem/observation-category",
                "code": "laboratory"
              }
            ]
          }
        ],
        "code": {
          "coding": [
            {
              "code": "32623-1",
              "system": "http://loinc.org",
              "display": "Platelet mean volume [Entitic volume] in Blood by Automated count"
            }
          ],
          "text": "Platelet mean volume [Entitic volume] in Blood by Automated count"
        },
        "valueQuantity": {
          "system": "http://unitsofmeasure.org",
          "value": 11.4,
          "unit": "fL",
          "code": "fL"
        },
        "referenceRange": [
          {
            "low": {
              "value": 7.2,
              "code": "fL",
              "system": "http://unitsofmeasure.org"
            }
          },
          {
            "high": {
              "value": 13.8,
              "code": "fL",
              "system": "http://unitsofmeasure.org"
            }
          }
        ],
        "text": {
          "status": "generated",
          "div": "<div xmlns=\"http://www.w3.org/1999/xhtml\"><table class=\"hl7__eu__lab__report\"><tr><th>Test</th><th>24-Aug-2024</th><th>Reference&#xA0;Range</th><th>Unit</th></tr><tr><td>Platelet mean volume [Entitic volume] in Blood by Automated count</td><td>11.4</td><td>7.2 - 13.8</td><td></td><td>fL</td></tr></table></div>"
        },
        "status": "final",
        "subject": {
          "reference": "urn:uuid:94fd677b-cda5-448f-aab4-fc2a9cee7675",
          "display": "Ondrej Machová"
        },
        "effectiveDateTime": "2024-08-24T12:49:06Z",
        "specimen": {
          "reference": "urn:uuid:4ae0f05a-a6b3-4454-b8a1-70f9258d2146"
        }
      }
    },
    {
      "fullUrl": "urn:uuid:48163e52-0463-46f0-bc96-d865af5446c7",
      "resource": {
        "resourceType": "Device",
        "id": "48163e52-0463-46f0-bc96-d865af5446c7",
        "deviceName": [
          {
            "name": "SYNDERAI Synthetic Generator",
            "type": "manufacturer-name"
          }
        ],
        "version": [
          {
            "value": "5.0"
          }
        ],
        "text": {
          "status": "generated",
          "div": "<div xmlns=\"http://www.w3.org/1999/xhtml\">SYNDERAI Synthetic Generator v5.0</div>"
        },
        "status": "active\"",
        "distinctIdentifier": "synderai-generator-50",
        "manufacturer": "SYNDERAI Project"
      }
    },
    {
      "fullUrl": "urn:uuid:6391be25-c255-43a7-b1d9-09e47acdc178",
      "resource": {
        "resourceType": "Provenance",
        "id": "6391be25-c255-43a7-b1d9-09e47acdc178",
        "target": [
          {
            "reference": "Patient/94fd677b-cda5-448f-aab4-fc2a9cee7675"
          },
          {
            "reference": "Bundle/c9407023-36d9-49fa-a662-cbf8e70ed578"
          },
          {
            "reference": "Composition/1c16d015-f179-4bf7-9219-d501f4783e20"
          },
          {
            "reference": "PractitionerRole/361a7ce6-e4ea-4ca8-90f5-7c0048a45a11"
          },
          {
            "reference": "Practitioner/b270bad8-6236-4e64-a2e1-57dd1496109f"
          },
          {
            "reference": "PractitionerRole/e998d569-9dc9-4906-a378-d77932398761"
          },
          {
            "reference": "Organization/a222b387-fdd5-43c7-b682-28791d650488"
          }
        ],
        "activity": {
          "text": "Synthetic Example Data Generation"
        },
        "policy": [
          "https://synderai.net/synderai-synthetic-data-policy"
        ],
        "agent": [
          {
            "type": {
              "text": "author"
            },
            "who": {
              "reference": "Device/48163e52-0463-46f0-bc96-d865af5446c7"
            }
          }
        ],
        "reason": [
          {
            "text": "Interoperability Testing and Training (non-clinical use)"
          }
        ],
        "text": {
          "status": "generated",
          "div": "<div xmlns=\"http://www.w3.org/1999/xhtml\">Provenance for SYNDERAI Synthetic Example Data Resource</div>"
        },
        "recorded": "2024-08-24T14:49:06Z"
      }
    },
    {
      "fullUrl": "urn:uuid:361a7ce6-e4ea-4ca8-90f5-7c0048a45a11",
      "resource": {
        "resourceType": "PractitionerRole",
        "id": "361a7ce6-e4ea-4ca8-90f5-7c0048a45a11",
        "meta": {
          "profile": [
            "http://hl7.eu/fhir/base/StructureDefinition/practitionerRole-eu"
          ]
        },
        "text": {
          "status": "generated",
          "div": "<div xmlns=\"http://www.w3.org/1999/xhtml\">Laboratory Role Id: 361a7ce6-e4ea-4ca8-90f5-7c0048a45a11</div>"
        },
        "practitioner": {
          "reference": "urn:uuid:b270bad8-6236-4e64-a2e1-57dd1496109f"
        }
      }
    },
    {
      "fullUrl": "urn:uuid:b270bad8-6236-4e64-a2e1-57dd1496109f",
      "resource": {
        "resourceType": "Practitioner",
        "id": "b270bad8-6236-4e64-a2e1-57dd1496109f",
        "meta": {
          "profile": [
            "http://hl7.eu/fhir/base/StructureDefinition/practitioner-eu"
          ]
        },
        "identifier": [
          {
            "assigner": {
              "display": "HL7 Europe"
            },
            "system": "urn:oid:2.16.840.1.113883.2.51.999",
            "value": "2c0ea386-ae69-4dd1-96e2-0c9cf065837c"
          }
        ],
        "name": [
          {
            "prefix": [
              "dr"
            ],
            "given": [
              "Ex"
            ],
            "family": "Ample"
          }
        ],
        "address": [
          {
            "line": [
              "Laboratoire Central Européenne",
              "Boulevard du Jardin Botanique 32"
            ],
            "postalCode": "1000",
            "city": "Brussels",
            "country": "Belgium"
          }
        ],
        "text": {
          "status": "generated",
          "div": "<div xmlns=\"http://www.w3.org/1999/xhtml\">Laboratory: Laboratoire Central Européenne, 1000 Brussels, Belgium</div>"
        }
      }
    }
  ],
  "type": "document",
  "timestamp": "2024-08-24T14:49:06Z"
}
