{
  "resourceType": "Bundle",
  "id": "8e07fe77-bb52-4204-b530-996d4968e8ab",
  "meta": {
    "profile": [
      "http://hl7.eu/fhir/laboratory/StructureDefinition/Bundle-eu-lab"
    ]
  },
  "identifier": {
    "assigner": {
      "display": "HL7 Europe"
    },
    "system": "urn:oid:2.16.840.1.113883.2.51.999",
    "value": "62d0bca5-d9b0-423b-b830-c693514bb122"
  },
  "entry": [
    {
      "fullUrl": "urn:uuid:a459ff9a-94c7-4cc8-b9ed-535d94ee6d25",
      "resource": {
        "resourceType": "Composition",
        "id": "a459ff9a-94c7-4cc8-b9ed-535d94ee6d25",
        "meta": {
          "profile": [
            "http://hl7.eu/fhir/laboratory/StructureDefinition/Composition-eu-lab"
          ]
        },
        "identifier": {
          "assigner": {
            "display": "HL7 Europe"
          },
          "system": "urn:oid:2.16.840.1.113883.2.51.999",
          "value": "9891e945-2a81-4cab-a1df-ca1eff8e98a6"
        },
        "author": [
          {
            "reference": "urn:uuid:1db7f28d-8d09-491d-85cf-7d9e81362601"
          }
        ],
        "category": [
          {
            "coding": [
              {
                "code": "26436-6",
                "system": "http://loinc.org",
                "display": "Laboratory studies (set)"
              }
            ]
          }
        ],
        "type": {
          "coding": [
            {
              "code": "11502-2",
              "system": "http://loinc.org",
              "display": "Laboratory report"
            }
          ],
          "text": "Laboratory Report"
        },
        "section": [
          {
            "code": {
              "coding": [
                {
                  "code": "26436-6",
                  "system": "http://loinc.org",
                  "display": "Laboratory studies (set)"
                }
              ],
              "text": "Laboratory studies"
            },
            "section": [
              {
                "code": {
                  "coding": [
                    {
                      "code": "$18719-5",
                      "system": "http://loinc.org",
                      "display": "Chemistry studies (set)"
                    }
                  ],
                  "text": "Chemistry"
                },
                "entry": [
                  {
                    "reference": "urn:uuid:81164b50-3b8b-4077-8079-a096621e571d"
                  },
                  {
                    "reference": "urn:uuid:5bc87bf9-f22d-4d72-9818-2f3961dfce17"
                  },
                  {
                    "reference": "urn:uuid:f5ab7929-0c96-4e82-b062-e93d326a5911"
                  },
                  {
                    "reference": "urn:uuid:42011da8-9bb9-42b9-ae54-fc298f37ad00"
                  },
                  {
                    "reference": "urn:uuid:f45bbfb3-c3a2-4485-8859-44b6e3422f1d"
                  },
                  {
                    "reference": "urn:uuid:c52c10d5-0627-4a3f-80b3-ade61c6a9612"
                  },
                  {
                    "reference": "urn:uuid:d6ecae97-ec81-42a2-8218-2c615d0bf16f"
                  },
                  {
                    "reference": "urn:uuid:401b96d0-29c8-4c9e-8248-54b998cc2e36"
                  },
                  {
                    "reference": "urn:uuid:b1da6b45-ccb3-43e2-9028-28c8c68db7bc"
                  },
                  {
                    "reference": "urn:uuid:09d33c01-659e-4dcd-8d0d-7b43314c0c38"
                  },
                  {
                    "reference": "urn:uuid:ae826944-5376-4c69-a1fd-276743fb4079"
                  },
                  {
                    "reference": "urn:uuid:89ee1234-1f67-4410-ae44-159377ff5342"
                  },
                  {
                    "reference": "urn:uuid:c8509d99-f47e-4c98-9858-c29db453e18f"
                  },
                  {
                    "reference": "urn:uuid:a28de06d-e2b7-4c14-b430-1a1d3a2b4677"
                  },
                  {
                    "reference": "urn:uuid:58306f52-003f-4094-a9f0-74dd0d0856be"
                  },
                  {
                    "reference": "urn:uuid:2b9c6ced-6d97-488c-b964-c6fb6ced8cbb"
                  }
                ],
                "text": {
                  "status": "generated",
                  "div": "<div xmlns=\"http://www.w3.org/1999/xhtml\"><h3>Chemistry</h3><table class=\"hl7__eu__lab__report\"><thead><tr><th>Test</th><th>26-JUN-2017</th><th>Reference&#xA0;Range</th><th>Unit</th></tr></thead><tbody><tr><td>Glucose [Mass/volume] in Blood</td><td>92.4</td><td>70 - 140</td><td>mg/dL</td></tr><tr><td>Urea nitrogen [Mass/volume] in Blood</td><td>19.3</td><td>7 - 30</td><td>mg/dL</td></tr><tr><td>Creatinine [Mass/volume] in Blood</td><td><strong>2.9 H</strong></td><td>0.5 - 1.3</td><td>mg/dL</td></tr><tr><td>Calcium [Mass/volume] in Blood</td><td>9.1</td><td>8.6 - 10.2</td><td>mg/dL</td></tr><tr><td>Sodium [Moles/volume] in Blood</td><td>136.4</td><td>135 - 145</td><td>mmol/L</td></tr><tr><td>Potassium [Moles/volume] in Blood</td><td>4.9</td><td>3.5 - 5.1</td><td>mmol/L</td></tr><tr><td>Chloride [Moles/volume] in Blood</td><td>105.5</td><td>98 - 114</td><td>mmol/L</td></tr><tr><td>Carbon dioxide, total [Moles/volume] in Blood</td><td>23.4</td><td>22 - 32</td><td>mmol/L</td></tr><tr><td>Protein [Mass/volume] in Serum or Plasma</td><td>6.9</td><td>6 - 8.3</td><td>g/dL</td></tr><tr><td>Albumin [Mass/volume] in Serum or Plasma</td><td>4.4</td><td>3.5 - 5.5</td><td>g/dL</td></tr><tr><td>Globulin [Mass/volume] in Serum by calculation</td><td>2.7</td><td>2 - 3.5</td><td>g/L</td></tr><tr><td>Bilirubin.total [Mass/volume] in Serum or Plasma</td><td>0.3</td><td>0.3 - 1.2</td><td>mg/dL</td></tr><tr><td>Alkaline phosphatase [Enzymatic activity/volume] in Serum or Plasma</td><td>129.6</td><td>44 - 142</td><td>U/L</td></tr><tr><td>Alanine aminotransferase [Enzymatic activity/volume] in Serum or Plasma</td><td><strong>54.9 H</strong></td><td>7 - 40</td><td>U/L</td></tr><tr><td>Aspartate aminotransferase [Enzymatic activity/volume] in Serum or Plasma</td><td>20.1</td><td>10 - 40</td><td>U/L</td></tr><tr><td>Ketones [Presence] in Urine by Test strip</td><td>Urine ketone test = +++</td><td></td><td></td></tr></tbody></table></div>"
                },
                "title": "Chemistry"
              },
              {
                "code": {
                  "coding": [
                    {
                      "code": "$18729-4",
                      "system": "http://loinc.org",
                      "display": "Urinalysis studies (set)"
                    }
                  ],
                  "text": "Urinalysis"
                },
                "entry": [
                  {
                    "reference": "urn:uuid:e3da4673-d16f-4bed-8857-7c621edd9ebd"
                  },
                  {
                    "reference": "urn:uuid:84f73625-ccff-41ec-9d75-1e9188361b15"
                  },
                  {
                    "reference": "urn:uuid:0e9605c7-2bf7-4c33-9ec9-695f586aa89f"
                  },
                  {
                    "reference": "urn:uuid:2c77a7d4-6008-4c61-aa65-6160700b6f2d"
                  },
                  {
                    "reference": "urn:uuid:5d4da68f-7663-4248-b0a7-9e606fa909c6"
                  },
                  {
                    "reference": "urn:uuid:e3e29b58-edd5-47c5-8b16-c77f2b90a5a6"
                  },
                  {
                    "reference": "urn:uuid:650626fd-62f3-4c05-9987-dc2ba234c7d8"
                  },
                  {
                    "reference": "urn:uuid:17dc0716-d0f3-461d-856a-c549ea7e49d8"
                  },
                  {
                    "reference": "urn:uuid:aa3017b1-2d80-41c6-8c06-ad281cbd6513"
                  },
                  {
                    "reference": "urn:uuid:3c0b2e63-fb1a-4289-a73d-3d825b9fb8aa"
                  },
                  {
                    "reference": "urn:uuid:810cafb3-dd20-4030-9747-b505c04b1c79"
                  },
                  {
                    "reference": "urn:uuid:f6ad5f15-8417-4d38-9b47-211228f1339d"
                  }
                ],
                "text": {
                  "status": "generated",
                  "div": "<div xmlns=\"http://www.w3.org/1999/xhtml\"><h3>Urinalysis</h3><table class=\"hl7__eu__lab__report\"><thead><tr><th>Test</th><th>26-JUN-2017</th><th>Reference&#xA0;Range</th><th>Unit</th></tr></thead><tbody><tr><td>Glucose [Mass/volume] in Urine by Test strip</td><td><strong>1.1 H</strong></td><td>0.8 - 0</td><td>mg/dL</td></tr><tr><td>Glucose [Presence] in Urine by Test strip</td><td>++</td><td></td><td></td></tr><tr><td>Bilirubin.total [Mass/volume] in Urine by Test strip</td><td>0.6</td><td>0 - 1.5</td><td>mg/dL</td></tr><tr><td>Bilirubin.total [Presence] in Urine by Test strip</td><td>Finding of bilirubin in urine</td><td></td><td></td></tr><tr><td>Ketones [Mass/volume] in Urine by Test strip</td><td><strong>10.6 H</strong></td><td>0 - 8</td><td>mg/dL</td></tr><tr><td>Specific gravity of Urine by Test strip</td><td><strong>1.0 L</strong></td><td>1.01 - 1.03</td><td>{nominal}</td></tr><tr><td>pH of Urine by Test strip</td><td>5.6</td><td>4.6 - 7.5</td><td>pH</td></tr><tr><td>Protein [Mass/volume] in Urine by Test strip</td><td><strong>402.8 H</strong></td><td>0 - 14</td><td>mg/dL</td></tr><tr><td>Protein [Presence] in Urine by Test strip</td><td>Urine protein test = +++</td><td></td><td></td></tr><tr><td>Nitrite [Presence] in Urine by Test strip</td><td>Urine nitrite negative</td><td></td><td></td></tr><tr><td>Hemoglobin [Presence] in Urine by Test strip</td><td>Urine blood test = negative</td><td></td><td></td></tr><tr><td>Leukocyte esterase [Presence] in Urine by Test strip</td><td>Urine leukocyte test negative</td><td></td><td></td></tr></tbody></table></div>"
                },
                "title": "Urinalysis"
              },
              {
                "code": {
                  "coding": [
                    {
                      "code": "$LP7846-1",
                      "system": "http://loinc.org",
                      "display": "Specimen information"
                    }
                  ],
                  "text": "Specimen information"
                },
                "entry": [
                  {
                    "reference": "urn:uuid:ee8bdecf-bdf2-4544-b61c-2b2b5e2b1abe"
                  },
                  {
                    "reference": "urn:uuid:c369186c-24a9-4410-afc7-85282a9e9ce0"
                  },
                  {
                    "reference": "urn:uuid:97207f65-ba00-41c7-ab19-948eef5bbc9c"
                  },
                  {
                    "reference": "urn:uuid:e8eeba78-fe47-4484-880c-1fcac15a8425"
                  }
                ],
                "text": {
                  "status": "generated",
                  "div": "<div xmlns=\"http://www.w3.org/1999/xhtml\"><h3>Specimen information</h3><table class=\"hl7__eu__lab__report\"><thead><tr><th>Test</th><th>26-JUN-2017</th><th>Specimen</th><th></th></tr></thead><tbody><tr><td>Appearance of Urine</td><td>Cloudy urine</td><td>Urine</td><td></td></tr><tr><td>Odor of Urine</td><td>Urine smell ammoniacal</td><td>Urine</td><td></td></tr><tr><td>Clarity of Urine</td><td>Translucent</td><td>Urine</td><td></td></tr><tr><td>Color of Urine</td><td>Brown color</td><td>Urine</td><td></td></tr></tbody></table></div>"
                },
                "title": "Specimen information"
              }
            ],
            "title": "Laboratory Report"
          },
          {
            "text": {
              "status": "generated",
              "div": "<div xmlns=\"http://www.w3.org/1999/xhtml\"><h3>Annotation</h3><table class=\"hl7__eu__lab__report\"><tr><th>Conclusion and Recommendations based on this report and previous findings known to us</th></tr><tr><td>The patient shows significant renal impairment (elevated creatinine), mild transaminitis (elevated ALT), and marked proteinuria, glycosuria, and ketonuria, suggesting possible nephrotic syndrome or diabetic nephropathy with poor glycemic control. Urine is cloudy, brown, and dilute, but no evidence of infection (negative nitrites/leukocytes). Further clinical correlation and nephrology evaluation are recommended.</td></tr></table></div>"
            },
            "code": {
              "coding": [
                {
                  "system": "http://loinc.org",
                  "code": "48767-8",
                  "display": "Annotation comment"
                }
              ]
            },
            "title": "Annotation comment"
          }
        ],
        "status": "final",
        "subject": {
          "reference": "urn:uuid:e98737de-92a9-4442-b55e-bab0166ffa30",
          "display": "Maria Nohlmans"
        },
        "date": "2017-06-26T17:13:39Z",
        "title": "Laboratory Report",
        "confidentiality": "N"
      }
    },
    {
      "fullUrl": "urn:uuid:0180b34a-0933-4196-9253-b855db93664c",
      "resource": {
        "resourceType": "DiagnosticReport",
        "id": "0180b34a-0933-4196-9253-b855db93664c",
        "meta": {
          "profile": [
            "http://hl7.eu/fhir/laboratory/StructureDefinition/DiagnosticReport-eu-lab"
          ]
        },
        "identifier": [
          {
            "assigner": {
              "display": "HL7 Europe"
            },
            "system": "urn:oid:2.16.840.1.113883.2.51.999",
            "value": "bf6a7e18-6647-430a-aa9e-af8891cc063c"
          }
        ],
        "extension": [
          {
            "url": "http://hl7.org/fhir/5.0/StructureDefinition/extension-DiagnosticReport.composition",
            "valueReference": {
              "reference": "urn:uuid:9891e945-2a81-4cab-a1df-ca1eff8e98a6"
            }
          }
        ],
        "category": [
          {
            "coding": [
              {
                "code": "26436-6",
                "system": "http://loinc.org",
                "display": "Laboratory studies (set)"
              }
            ]
          }
        ],
        "specimen": [
          {
            "reference": "urn:uuid:522eee41-5868-431a-a1ab-2229415c7370"
          },
          {
            "reference": "urn:uuid:76e6703d-7883-46f1-901a-933526d6f5c2"
          },
          {
            "reference": "urn:uuid:985a3704-871f-4acf-acf3-2b97b44702fc"
          },
          {
            "reference": "urn:uuid:862e8d9c-b117-4992-8dea-d92f81f8b314"
          }
        ],
        "result": [
          {
            "reference": "urn:uuid:81164b50-3b8b-4077-8079-a096621e571d"
          },
          {
            "reference": "urn:uuid:5bc87bf9-f22d-4d72-9818-2f3961dfce17"
          },
          {
            "reference": "urn:uuid:f5ab7929-0c96-4e82-b062-e93d326a5911"
          },
          {
            "reference": "urn:uuid:42011da8-9bb9-42b9-ae54-fc298f37ad00"
          },
          {
            "reference": "urn:uuid:f45bbfb3-c3a2-4485-8859-44b6e3422f1d"
          },
          {
            "reference": "urn:uuid:c52c10d5-0627-4a3f-80b3-ade61c6a9612"
          },
          {
            "reference": "urn:uuid:d6ecae97-ec81-42a2-8218-2c615d0bf16f"
          },
          {
            "reference": "urn:uuid:401b96d0-29c8-4c9e-8248-54b998cc2e36"
          },
          {
            "reference": "urn:uuid:b1da6b45-ccb3-43e2-9028-28c8c68db7bc"
          },
          {
            "reference": "urn:uuid:09d33c01-659e-4dcd-8d0d-7b43314c0c38"
          },
          {
            "reference": "urn:uuid:ae826944-5376-4c69-a1fd-276743fb4079"
          },
          {
            "reference": "urn:uuid:89ee1234-1f67-4410-ae44-159377ff5342"
          },
          {
            "reference": "urn:uuid:c8509d99-f47e-4c98-9858-c29db453e18f"
          },
          {
            "reference": "urn:uuid:a28de06d-e2b7-4c14-b430-1a1d3a2b4677"
          },
          {
            "reference": "urn:uuid:58306f52-003f-4094-a9f0-74dd0d0856be"
          },
          {
            "reference": "urn:uuid:ee8bdecf-bdf2-4544-b61c-2b2b5e2b1abe"
          },
          {
            "reference": "urn:uuid:c369186c-24a9-4410-afc7-85282a9e9ce0"
          },
          {
            "reference": "urn:uuid:97207f65-ba00-41c7-ab19-948eef5bbc9c"
          },
          {
            "reference": "urn:uuid:e8eeba78-fe47-4484-880c-1fcac15a8425"
          },
          {
            "reference": "urn:uuid:e3da4673-d16f-4bed-8857-7c621edd9ebd"
          },
          {
            "reference": "urn:uuid:84f73625-ccff-41ec-9d75-1e9188361b15"
          },
          {
            "reference": "urn:uuid:0e9605c7-2bf7-4c33-9ec9-695f586aa89f"
          },
          {
            "reference": "urn:uuid:2c77a7d4-6008-4c61-aa65-6160700b6f2d"
          },
          {
            "reference": "urn:uuid:5d4da68f-7663-4248-b0a7-9e606fa909c6"
          },
          {
            "reference": "urn:uuid:2b9c6ced-6d97-488c-b964-c6fb6ced8cbb"
          },
          {
            "reference": "urn:uuid:e3e29b58-edd5-47c5-8b16-c77f2b90a5a6"
          },
          {
            "reference": "urn:uuid:650626fd-62f3-4c05-9987-dc2ba234c7d8"
          },
          {
            "reference": "urn:uuid:17dc0716-d0f3-461d-856a-c549ea7e49d8"
          },
          {
            "reference": "urn:uuid:aa3017b1-2d80-41c6-8c06-ad281cbd6513"
          },
          {
            "reference": "urn:uuid:3c0b2e63-fb1a-4289-a73d-3d825b9fb8aa"
          },
          {
            "reference": "urn:uuid:810cafb3-dd20-4030-9747-b505c04b1c79"
          },
          {
            "reference": "urn:uuid:f6ad5f15-8417-4d38-9b47-211228f1339d"
          }
        ],
        "status": "registered",
        "code": {
          "coding": [
            {
              "code": "11502-2",
              "system": "http://loinc.org",
              "display": "Laboratory report"
            }
          ]
        },
        "subject": {
          "reference": "urn:uuid:e98737de-92a9-4442-b55e-bab0166ffa30",
          "display": "Maria Nohlmans"
        }
      }
    },
    {
      "fullUrl": "urn:uuid:e98737de-92a9-4442-b55e-bab0166ffa30",
      "resource": {
        "resourceType": "Patient",
        "id": "e98737de-92a9-4442-b55e-bab0166ffa30",
        "meta": {
          "security": [
            {
              "system": "http://terminology.hl7.org/CodeSystem/v3-ActReason",
              "code": "HTEST"
            },
            {
              "system": "http://terminology.hl7.org/CodeSystem/v3-ActReason",
              "code": "TRAIN"
            }
          ],
          "tag": [
            {
              "system": "https://synderai.net/fhir/CodeSystem/tags",
              "code": "synthetic",
              "display": "SYNDERAI Synthetic data"
            }
          ],
          "profile": [
            "http://hl7.eu/fhir/base/StructureDefinition/patient-eu-core"
          ]
        },
        "identifier": [
          {
            "type": {
              "coding": [
                {
                  "code": "PT",
                  "system": "http://terminology.hl7.org/CodeSystem/v2-0203"
                }
              ]
            },
            "system": "http://ec.europa.eu/identifier/eci",
            "value": "6886-506417-1"
          },
          {
            "type": {
              "coding": [
                {
                  "code": "MR",
                  "system": "http://terminology.hl7.org/CodeSystem/v2-0203"
                }
              ]
            },
            "system": "http://local.setting.eu/identifier",
            "value": "2cb21ed6-b617-b1f3-2290-589a710de5ee"
          }
        ],
        "name": [
          {
            "family": "Nohlmans"
          },
          {
            "given": [
              "Maria"
            ]
          },
          {
            "text": "Maria Nohlmans"
          }
        ],
        "address": [
          {
            "line": [
              "Alfons-Wulff-Weg 1"
            ],
            "use": "home",
            "type": "physical",
            "postalCode": "25813",
            "city": "Husum",
            "country": "Germany"
          }
        ],
        "telecom": [
          {
            "system": "phone",
            "value": "+49(0)1911 105501"
          }
        ],
        "extension": [
          {
            "url": "http://hl7.org/fhir/StructureDefinition/patient-nationality",
            "valueCodeableConcept": {
              "coding": [
                {
                  "code": "DE",
                  "system": "http://hl7.org/fhir/ValueSet/country"
                }
              ]
            }
          }
        ],
        "text": {
          "status": "generated",
          "div": "<div xmlns=\"http://www.w3.org/1999/xhtml\"><table class=\"hl7__ips\"><tr><td>Maria Nohlmans</td><td>female</td><td>11-Jun-1947</td></tr></table></div>"
        },
        "gender": "female",
        "birthDate": "1947-06-11"
      }
    },
    {
      "fullUrl": "urn:uuid:55dd7aa3-71a1-4627-b442-fa9e0f76fcaa",
      "resource": {
        "resourceType": "ServiceRequest",
        "id": "55dd7aa3-71a1-4627-b442-fa9e0f76fcaa",
        "meta": {
          "profile": [
            "http://hl7.eu/fhir/laboratory/StructureDefinition/ServiceRequest-eu-lab"
          ]
        },
        "identifier": [
          {
            "system": "http://example.org",
            "value": "78519690-536e-4bd1-b5c3-f5e83abdda15"
          }
        ],
        "specimen": [
          {
            "reference": "urn:uuid:522eee41-5868-431a-a1ab-2229415c7370"
          },
          {
            "reference": "urn:uuid:76e6703d-7883-46f1-901a-933526d6f5c2"
          },
          {
            "reference": "urn:uuid:985a3704-871f-4acf-acf3-2b97b44702fc"
          },
          {
            "reference": "urn:uuid:862e8d9c-b117-4992-8dea-d92f81f8b314"
          }
        ],
        "reasonCode": [
          {
            "coding": [
              {
                "code": "401314000",
                "system": "http://snomed.info/sct",
                "display": "Acute non-ST segment elevation myocardial infarction"
              }
            ]
          },
          {
            "coding": [
              {
                "code": "157141000119108",
                "system": "http://snomed.info/sct",
                "display": "Proteinuria due to type 2 diabetes mellitus"
              }
            ]
          },
          {
            "coding": [
              {
                "code": "237602007",
                "system": "http://snomed.info/sct",
                "display": "Metabolic syndrome X"
              }
            ]
          },
          {
            "coding": [
              {
                "code": "90781000119102",
                "system": "http://snomed.info/sct",
                "display": "Microalbuminuria due to type 2 diabetes mellitus"
              }
            ]
          },
          {
            "coding": [
              {
                "code": "127013003",
                "system": "http://snomed.info/sct",
                "display": "Disorder of kidney due to diabetes mellitus"
              }
            ]
          },
          {
            "coding": [
              {
                "code": "59621000",
                "system": "http://snomed.info/sct",
                "display": "Essential hypertension"
              }
            ]
          },
          {
            "coding": [
              {
                "code": "271737000",
                "system": "http://snomed.info/sct",
                "display": "Anemia"
              }
            ]
          },
          {
            "coding": [
              {
                "code": "15777000",
                "system": "http://snomed.info/sct",
                "display": "Prediabetes"
              }
            ]
          }
        ],
        "status": "active",
        "intent": "order",
        "code": {
          "coding": [
            {
              "code": "108252007",
              "system": "http://snomed.info/sct",
              "display": "Laboratory procedure"
            }
          ]
        },
        "subject": {
          "reference": "urn:uuid:e98737de-92a9-4442-b55e-bab0166ffa30",
          "display": "Maria Nohlmans"
        },
        "requester": {
          "reference": "urn:uuid:2dcd47d7-bb42-4861-a6b1-68bd786c8d47"
        }
      }
    },
    {
      "fullUrl": "urn:uuid:2dcd47d7-bb42-4861-a6b1-68bd786c8d47",
      "resource": {
        "resourceType": "PractitionerRole",
        "id": "2dcd47d7-bb42-4861-a6b1-68bd786c8d47",
        "meta": {
          "profile": [
            "http://hl7.eu/fhir/base/StructureDefinition/practitionerRole-eu"
          ]
        },
        "text": {
          "status": "generated",
          "div": "<div xmlns=\"http://www.w3.org/1999/xhtml\">Provider Role Id: 2dcd47d7-bb42-4861-a6b1-68bd786c8d47</div>"
        },
        "organization": {
          "reference": "urn:uuid:9aa8c815-1f77-46ae-b54e-6710f698190a"
        }
      }
    },
    {
      "fullUrl": "urn:uuid:9aa8c815-1f77-46ae-b54e-6710f698190a",
      "resource": {
        "resourceType": "Organization",
        "id": "9aa8c815-1f77-46ae-b54e-6710f698190a",
        "meta": {
          "profile": [
            "http://hl7.eu/fhir/base/StructureDefinition/organization-eu"
          ]
        },
        "identifier": [
          {
            "assigner": {
              "display": "HL7 Europe"
            },
            "system": "urn:oid:2.16.840.1.113883.2.51.999",
            "value": "79d81d0e-8e1e-4e1c-b225-0a12db622ee4"
          }
        ],
        "address": [
          {
            "line": [
              "Brinckmannstraße 35"
            ],
            "city": "Husum",
            "postalCode": "25813",
            "country": "Germany"
          }
        ],
        "text": {
          "status": "generated",
          "div": "<div xmlns=\"http://www.w3.org/1999/xhtml\">Provider Organization: Dr. Wolfram Hussels Kieferorthopäde</div>"
        },
        "name": "Dr. Wolfram Hussels Kieferorthopäde"
      }
    },
    {
      "fullUrl": "urn:uuid:522eee41-5868-431a-a1ab-2229415c7370",
      "resource": {
        "resourceType": "Specimen",
        "id": "522eee41-5868-431a-a1ab-2229415c7370",
        "meta": {
          "profile": [
            "http://hl7.eu/fhir/laboratory/StructureDefinition/Specimen-eu-lab"
          ]
        },
        "collection": {
          "collectedDateTime": "2017-06-26"
        },
        "text": {
          "status": "generated",
          "div": "<div xmlns=\"http://www.w3.org/1999/xhtml\"><table class=\"hl7__eu__lab__report\"><tr><th>Specimen</th><th>Collection Date</th></tr><tr><td>Whole blood specimen (specimen)</td><td><span class=\"nb\">26-Jun-2017</span></td></tr></table></div>"
        },
        "type": {
          "coding": [
            {
              "code": "258580003",
              "system": "http://snomed.info/sct",
              "display": "Whole blood specimen (specimen)"
            }
          ]
        }
      }
    },
    {
      "fullUrl": "urn:uuid:76e6703d-7883-46f1-901a-933526d6f5c2",
      "resource": {
        "resourceType": "Specimen",
        "id": "76e6703d-7883-46f1-901a-933526d6f5c2",
        "meta": {
          "profile": [
            "http://hl7.eu/fhir/laboratory/StructureDefinition/Specimen-eu-lab"
          ]
        },
        "collection": {
          "collectedDateTime": "2017-06-26"
        },
        "text": {
          "status": "generated",
          "div": "<div xmlns=\"http://www.w3.org/1999/xhtml\"><table class=\"hl7__eu__lab__report\"><tr><th>Specimen</th><th>Collection Date</th></tr><tr><td>Acellular blood (serum or plasma) specimen</td><td><span class=\"nb\">26-Jun-2017</span></td></tr></table></div>"
        },
        "type": {
          "coding": [
            {
              "code": "122592007",
              "system": "http://snomed.info/sct",
              "display": "Acellular blood (serum or plasma) specimen"
            }
          ]
        }
      }
    },
    {
      "fullUrl": "urn:uuid:985a3704-871f-4acf-acf3-2b97b44702fc",
      "resource": {
        "resourceType": "Specimen",
        "id": "985a3704-871f-4acf-acf3-2b97b44702fc",
        "meta": {
          "profile": [
            "http://hl7.eu/fhir/laboratory/StructureDefinition/Specimen-eu-lab"
          ]
        },
        "collection": {
          "collectedDateTime": "2017-06-26"
        },
        "text": {
          "status": "generated",
          "div": "<div xmlns=\"http://www.w3.org/1999/xhtml\"><table class=\"hl7__eu__lab__report\"><tr><th>Specimen</th><th>Collection Date</th></tr><tr><td>Serum specimen</td><td><span class=\"nb\">26-Jun-2017</span></td></tr></table></div>"
        },
        "type": {
          "coding": [
            {
              "code": "119364003",
              "system": "http://snomed.info/sct",
              "display": "Serum specimen"
            }
          ]
        }
      }
    },
    {
      "fullUrl": "urn:uuid:862e8d9c-b117-4992-8dea-d92f81f8b314",
      "resource": {
        "resourceType": "Specimen",
        "id": "862e8d9c-b117-4992-8dea-d92f81f8b314",
        "meta": {
          "profile": [
            "http://hl7.eu/fhir/laboratory/StructureDefinition/Specimen-eu-lab"
          ]
        },
        "collection": {
          "collectedDateTime": "2017-06-26"
        },
        "text": {
          "status": "generated",
          "div": "<div xmlns=\"http://www.w3.org/1999/xhtml\"><table class=\"hl7__eu__lab__report\"><tr><th>Specimen</th><th>Collection Date</th></tr><tr><td>Urine specimen</td><td><span class=\"nb\">26-Jun-2017</span></td></tr></table></div>"
        },
        "type": {
          "coding": [
            {
              "code": "122575003",
              "system": "http://snomed.info/sct",
              "display": "Urine specimen"
            }
          ]
        }
      }
    },
    {
      "fullUrl": "urn:uuid:81164b50-3b8b-4077-8079-a096621e571d",
      "resource": {
        "resourceType": "Observation",
        "id": "81164b50-3b8b-4077-8079-a096621e571d",
        "meta": {
          "profile": [
            "http://hl7.eu/fhir/laboratory/StructureDefinition/Observation-resultslab-eu-lab"
          ]
        },
        "performer": [
          {
            "display": "The Central European Lab"
          }
        ],
        "category": [
          {
            "coding": [
              {
                "system": "http://terminology.hl7.org/CodeSystem/observation-category",
                "code": "laboratory"
              }
            ]
          }
        ],
        "code": {
          "coding": [
            {
              "code": "2339-0",
              "system": "http://loinc.org",
              "display": "Glucose [Mass/volume] in Blood"
            }
          ],
          "text": "Glucose [Mass/volume] in Blood"
        },
        "valueQuantity": {
          "system": "http://unitsofmeasure.org",
          "value": 92.4,
          "unit": "mg/dL",
          "code": "mg/dL"
        },
        "referenceRange": [
          {
            "low": {
              "value": 70,
              "code": "mg/dL",
              "system": "http://unitsofmeasure.org"
            }
          },
          {
            "high": {
              "value": 140,
              "code": "mg/dL",
              "system": "http://unitsofmeasure.org"
            }
          }
        ],
        "text": {
          "status": "generated",
          "div": "<div xmlns=\"http://www.w3.org/1999/xhtml\"><table class=\"hl7__eu__lab__report\"><tr><th>Test</th><th>26-Jun-2017</th><th>Reference&#xA0;Range</th><th>Unit</th></tr><tr><td>Glucose [Mass/volume] in Blood</td><td>92.4</td><td>70 - 140</td><td></td><td>mg/dL</td></tr></table></div>"
        },
        "status": "final",
        "subject": {
          "reference": "urn:uuid:e98737de-92a9-4442-b55e-bab0166ffa30",
          "display": "Maria Nohlmans"
        },
        "effectiveDateTime": "2017-06-26T15:13:39Z",
        "specimen": {
          "reference": "urn:uuid:522eee41-5868-431a-a1ab-2229415c7370"
        }
      }
    },
    {
      "fullUrl": "urn:uuid:5bc87bf9-f22d-4d72-9818-2f3961dfce17",
      "resource": {
        "resourceType": "Observation",
        "id": "5bc87bf9-f22d-4d72-9818-2f3961dfce17",
        "meta": {
          "profile": [
            "http://hl7.eu/fhir/laboratory/StructureDefinition/Observation-resultslab-eu-lab"
          ]
        },
        "performer": [
          {
            "display": "The Central European Lab"
          }
        ],
        "category": [
          {
            "coding": [
              {
                "system": "http://terminology.hl7.org/CodeSystem/observation-category",
                "code": "laboratory"
              }
            ]
          }
        ],
        "code": {
          "coding": [
            {
              "code": "6299-2",
              "system": "http://loinc.org",
              "display": "Urea nitrogen [Mass/volume] in Blood"
            }
          ],
          "text": "Urea nitrogen [Mass/volume] in Blood"
        },
        "valueQuantity": {
          "system": "http://unitsofmeasure.org",
          "value": 19.3,
          "unit": "mg/dL",
          "code": "mg/dL"
        },
        "referenceRange": [
          {
            "low": {
              "value": 7,
              "code": "mg/dL",
              "system": "http://unitsofmeasure.org"
            }
          },
          {
            "high": {
              "value": 30,
              "code": "mg/dL",
              "system": "http://unitsofmeasure.org"
            }
          }
        ],
        "text": {
          "status": "generated",
          "div": "<div xmlns=\"http://www.w3.org/1999/xhtml\"><table class=\"hl7__eu__lab__report\"><tr><th>Test</th><th>26-Jun-2017</th><th>Reference&#xA0;Range</th><th>Unit</th></tr><tr><td>Urea nitrogen [Mass/volume] in Blood</td><td>19.3</td><td>7 - 30</td><td></td><td>mg/dL</td></tr></table></div>"
        },
        "status": "final",
        "subject": {
          "reference": "urn:uuid:e98737de-92a9-4442-b55e-bab0166ffa30",
          "display": "Maria Nohlmans"
        },
        "effectiveDateTime": "2017-06-26T15:13:39Z",
        "specimen": {
          "reference": "urn:uuid:522eee41-5868-431a-a1ab-2229415c7370"
        }
      }
    },
    {
      "fullUrl": "urn:uuid:f5ab7929-0c96-4e82-b062-e93d326a5911",
      "resource": {
        "resourceType": "Observation",
        "id": "f5ab7929-0c96-4e82-b062-e93d326a5911",
        "meta": {
          "profile": [
            "http://hl7.eu/fhir/laboratory/StructureDefinition/Observation-resultslab-eu-lab"
          ]
        },
        "performer": [
          {
            "display": "The Central European Lab"
          }
        ],
        "category": [
          {
            "coding": [
              {
                "system": "http://terminology.hl7.org/CodeSystem/observation-category",
                "code": "laboratory"
              }
            ]
          }
        ],
        "code": {
          "coding": [
            {
              "code": "38483-4",
              "system": "http://loinc.org",
              "display": "Creatinine [Mass/volume] in Blood"
            }
          ],
          "text": "Creatinine [Mass/volume] in Blood"
        },
        "valueQuantity": {
          "system": "http://unitsofmeasure.org",
          "value": 2.9,
          "unit": "mg/dL",
          "code": "mg/dL"
        },
        "referenceRange": [
          {
            "low": {
              "value": 0.5,
              "code": "mg/dL",
              "system": "http://unitsofmeasure.org"
            }
          },
          {
            "high": {
              "value": 1.3,
              "code": "mg/dL",
              "system": "http://unitsofmeasure.org"
            }
          }
        ],
        "interpretation": [
          {
            "coding": [
              {
                "code": "H",
                "system": "http://terminology.hl7.org/CodeSystem/v3-ObservationInterpretation",
                "display": "High"
              }
            ]
          }
        ],
        "text": {
          "status": "generated",
          "div": "<div xmlns=\"http://www.w3.org/1999/xhtml\"><table class=\"hl7__eu__lab__report\"><tr><th>Test</th><th>26-Jun-2017</th><th>Reference&#xA0;Range</th><th>Unit</th></tr><tr><td>Creatinine [Mass/volume] in Blood</td><td>2.9</td><td>0.5 - 1.3</td><td>H</td><td>mg/dL</td></tr></table></div>"
        },
        "status": "final",
        "subject": {
          "reference": "urn:uuid:e98737de-92a9-4442-b55e-bab0166ffa30",
          "display": "Maria Nohlmans"
        },
        "effectiveDateTime": "2017-06-26T15:13:39Z",
        "specimen": {
          "reference": "urn:uuid:522eee41-5868-431a-a1ab-2229415c7370"
        }
      }
    },
    {
      "fullUrl": "urn:uuid:42011da8-9bb9-42b9-ae54-fc298f37ad00",
      "resource": {
        "resourceType": "Observation",
        "id": "42011da8-9bb9-42b9-ae54-fc298f37ad00",
        "meta": {
          "profile": [
            "http://hl7.eu/fhir/laboratory/StructureDefinition/Observation-resultslab-eu-lab"
          ]
        },
        "performer": [
          {
            "display": "The Central European Lab"
          }
        ],
        "category": [
          {
            "coding": [
              {
                "system": "http://terminology.hl7.org/CodeSystem/observation-category",
                "code": "laboratory"
              }
            ]
          }
        ],
        "code": {
          "coding": [
            {
              "code": "49765-1",
              "system": "http://loinc.org",
              "display": "Calcium [Mass/volume] in Blood"
            }
          ],
          "text": "Calcium [Mass/volume] in Blood"
        },
        "valueQuantity": {
          "system": "http://unitsofmeasure.org",
          "value": 9.1,
          "unit": "mg/dL",
          "code": "mg/dL"
        },
        "referenceRange": [
          {
            "low": {
              "value": 8.6,
              "code": "mg/dL",
              "system": "http://unitsofmeasure.org"
            }
          },
          {
            "high": {
              "value": 10.2,
              "code": "mg/dL",
              "system": "http://unitsofmeasure.org"
            }
          }
        ],
        "text": {
          "status": "generated",
          "div": "<div xmlns=\"http://www.w3.org/1999/xhtml\"><table class=\"hl7__eu__lab__report\"><tr><th>Test</th><th>26-Jun-2017</th><th>Reference&#xA0;Range</th><th>Unit</th></tr><tr><td>Calcium [Mass/volume] in Blood</td><td>9.1</td><td>8.6 - 10.2</td><td></td><td>mg/dL</td></tr></table></div>"
        },
        "status": "final",
        "subject": {
          "reference": "urn:uuid:e98737de-92a9-4442-b55e-bab0166ffa30",
          "display": "Maria Nohlmans"
        },
        "effectiveDateTime": "2017-06-26T15:13:39Z",
        "specimen": {
          "reference": "urn:uuid:522eee41-5868-431a-a1ab-2229415c7370"
        }
      }
    },
    {
      "fullUrl": "urn:uuid:f45bbfb3-c3a2-4485-8859-44b6e3422f1d",
      "resource": {
        "resourceType": "Observation",
        "id": "f45bbfb3-c3a2-4485-8859-44b6e3422f1d",
        "meta": {
          "profile": [
            "http://hl7.eu/fhir/laboratory/StructureDefinition/Observation-resultslab-eu-lab"
          ]
        },
        "performer": [
          {
            "display": "The Central European Lab"
          }
        ],
        "category": [
          {
            "coding": [
              {
                "system": "http://terminology.hl7.org/CodeSystem/observation-category",
                "code": "laboratory"
              }
            ]
          }
        ],
        "code": {
          "coding": [
            {
              "code": "2947-0",
              "system": "http://loinc.org",
              "display": "Sodium [Moles/volume] in Blood"
            }
          ],
          "text": "Sodium [Moles/volume] in Blood"
        },
        "valueQuantity": {
          "system": "http://unitsofmeasure.org",
          "value": 136.4,
          "unit": "mmol/L",
          "code": "mmol/L"
        },
        "referenceRange": [
          {
            "low": {
              "value": 135,
              "code": "mmol/L",
              "system": "http://unitsofmeasure.org"
            }
          },
          {
            "high": {
              "value": 145,
              "code": "mmol/L",
              "system": "http://unitsofmeasure.org"
            }
          }
        ],
        "text": {
          "status": "generated",
          "div": "<div xmlns=\"http://www.w3.org/1999/xhtml\"><table class=\"hl7__eu__lab__report\"><tr><th>Test</th><th>26-Jun-2017</th><th>Reference&#xA0;Range</th><th>Unit</th></tr><tr><td>Sodium [Moles/volume] in Blood</td><td>136.4</td><td>135 - 145</td><td></td><td>mmol/L</td></tr></table></div>"
        },
        "status": "final",
        "subject": {
          "reference": "urn:uuid:e98737de-92a9-4442-b55e-bab0166ffa30",
          "display": "Maria Nohlmans"
        },
        "effectiveDateTime": "2017-06-26T15:13:39Z",
        "specimen": {
          "reference": "urn:uuid:522eee41-5868-431a-a1ab-2229415c7370"
        }
      }
    },
    {
      "fullUrl": "urn:uuid:c52c10d5-0627-4a3f-80b3-ade61c6a9612",
      "resource": {
        "resourceType": "Observation",
        "id": "c52c10d5-0627-4a3f-80b3-ade61c6a9612",
        "meta": {
          "profile": [
            "http://hl7.eu/fhir/laboratory/StructureDefinition/Observation-resultslab-eu-lab"
          ]
        },
        "performer": [
          {
            "display": "The Central European Lab"
          }
        ],
        "category": [
          {
            "coding": [
              {
                "system": "http://terminology.hl7.org/CodeSystem/observation-category",
                "code": "laboratory"
              }
            ]
          }
        ],
        "code": {
          "coding": [
            {
              "code": "6298-4",
              "system": "http://loinc.org",
              "display": "Potassium [Moles/volume] in Blood"
            }
          ],
          "text": "Potassium [Moles/volume] in Blood"
        },
        "valueQuantity": {
          "system": "http://unitsofmeasure.org",
          "value": 4.9,
          "unit": "mmol/L",
          "code": "mmol/L"
        },
        "referenceRange": [
          {
            "low": {
              "value": 3.5,
              "code": "mmol/L",
              "system": "http://unitsofmeasure.org"
            }
          },
          {
            "high": {
              "value": 5.1,
              "code": "mmol/L",
              "system": "http://unitsofmeasure.org"
            }
          }
        ],
        "text": {
          "status": "generated",
          "div": "<div xmlns=\"http://www.w3.org/1999/xhtml\"><table class=\"hl7__eu__lab__report\"><tr><th>Test</th><th>26-Jun-2017</th><th>Reference&#xA0;Range</th><th>Unit</th></tr><tr><td>Potassium [Moles/volume] in Blood</td><td>4.9</td><td>3.5 - 5.1</td><td></td><td>mmol/L</td></tr></table></div>"
        },
        "status": "final",
        "subject": {
          "reference": "urn:uuid:e98737de-92a9-4442-b55e-bab0166ffa30",
          "display": "Maria Nohlmans"
        },
        "effectiveDateTime": "2017-06-26T15:13:39Z",
        "specimen": {
          "reference": "urn:uuid:522eee41-5868-431a-a1ab-2229415c7370"
        }
      }
    },
    {
      "fullUrl": "urn:uuid:d6ecae97-ec81-42a2-8218-2c615d0bf16f",
      "resource": {
        "resourceType": "Observation",
        "id": "d6ecae97-ec81-42a2-8218-2c615d0bf16f",
        "meta": {
          "profile": [
            "http://hl7.eu/fhir/laboratory/StructureDefinition/Observation-resultslab-eu-lab"
          ]
        },
        "performer": [
          {
            "display": "The Central European Lab"
          }
        ],
        "category": [
          {
            "coding": [
              {
                "system": "http://terminology.hl7.org/CodeSystem/observation-category",
                "code": "laboratory"
              }
            ]
          }
        ],
        "code": {
          "coding": [
            {
              "code": "2069-3",
              "system": "http://loinc.org",
              "display": "Chloride [Moles/volume] in Blood"
            }
          ],
          "text": "Chloride [Moles/volume] in Blood"
        },
        "valueQuantity": {
          "system": "http://unitsofmeasure.org",
          "value": 105.5,
          "unit": "mmol/L",
          "code": "mmol/L"
        },
        "referenceRange": [
          {
            "low": {
              "value": 98,
              "code": "mmol/L",
              "system": "http://unitsofmeasure.org"
            }
          },
          {
            "high": {
              "value": 114,
              "code": "mmol/L",
              "system": "http://unitsofmeasure.org"
            }
          }
        ],
        "text": {
          "status": "generated",
          "div": "<div xmlns=\"http://www.w3.org/1999/xhtml\"><table class=\"hl7__eu__lab__report\"><tr><th>Test</th><th>26-Jun-2017</th><th>Reference&#xA0;Range</th><th>Unit</th></tr><tr><td>Chloride [Moles/volume] in Blood</td><td>105.5</td><td>98 - 114</td><td></td><td>mmol/L</td></tr></table></div>"
        },
        "status": "final",
        "subject": {
          "reference": "urn:uuid:e98737de-92a9-4442-b55e-bab0166ffa30",
          "display": "Maria Nohlmans"
        },
        "effectiveDateTime": "2017-06-26T15:13:39Z",
        "specimen": {
          "reference": "urn:uuid:522eee41-5868-431a-a1ab-2229415c7370"
        }
      }
    },
    {
      "fullUrl": "urn:uuid:401b96d0-29c8-4c9e-8248-54b998cc2e36",
      "resource": {
        "resourceType": "Observation",
        "id": "401b96d0-29c8-4c9e-8248-54b998cc2e36",
        "meta": {
          "profile": [
            "http://hl7.eu/fhir/laboratory/StructureDefinition/Observation-resultslab-eu-lab"
          ]
        },
        "performer": [
          {
            "display": "The Central European Lab"
          }
        ],
        "category": [
          {
            "coding": [
              {
                "system": "http://terminology.hl7.org/CodeSystem/observation-category",
                "code": "laboratory"
              }
            ]
          }
        ],
        "code": {
          "coding": [
            {
              "code": "20565-8",
              "system": "http://loinc.org",
              "display": "Carbon dioxide, total [Moles/volume] in Blood"
            }
          ],
          "text": "Carbon dioxide, total [Moles/volume] in Blood"
        },
        "valueQuantity": {
          "system": "http://unitsofmeasure.org",
          "value": 23.4,
          "unit": "mmol/L",
          "code": "mmol/L"
        },
        "referenceRange": [
          {
            "low": {
              "value": 22,
              "code": "mmol/L",
              "system": "http://unitsofmeasure.org"
            }
          },
          {
            "high": {
              "value": 32,
              "code": "mmol/L",
              "system": "http://unitsofmeasure.org"
            }
          }
        ],
        "text": {
          "status": "generated",
          "div": "<div xmlns=\"http://www.w3.org/1999/xhtml\"><table class=\"hl7__eu__lab__report\"><tr><th>Test</th><th>26-Jun-2017</th><th>Reference&#xA0;Range</th><th>Unit</th></tr><tr><td>Carbon dioxide, total [Moles/volume] in Blood</td><td>23.4</td><td>22 - 32</td><td></td><td>mmol/L</td></tr></table></div>"
        },
        "status": "final",
        "subject": {
          "reference": "urn:uuid:e98737de-92a9-4442-b55e-bab0166ffa30",
          "display": "Maria Nohlmans"
        },
        "effectiveDateTime": "2017-06-26T15:13:39Z",
        "specimen": {
          "reference": "urn:uuid:522eee41-5868-431a-a1ab-2229415c7370"
        }
      }
    },
    {
      "fullUrl": "urn:uuid:b1da6b45-ccb3-43e2-9028-28c8c68db7bc",
      "resource": {
        "resourceType": "Observation",
        "id": "b1da6b45-ccb3-43e2-9028-28c8c68db7bc",
        "meta": {
          "profile": [
            "http://hl7.eu/fhir/laboratory/StructureDefinition/Observation-resultslab-eu-lab"
          ]
        },
        "performer": [
          {
            "display": "The Central European Lab"
          }
        ],
        "category": [
          {
            "coding": [
              {
                "system": "http://terminology.hl7.org/CodeSystem/observation-category",
                "code": "laboratory"
              }
            ]
          }
        ],
        "code": {
          "coding": [
            {
              "code": "2885-2",
              "system": "http://loinc.org",
              "display": "Protein [Mass/volume] in Serum or Plasma"
            }
          ],
          "text": "Protein [Mass/volume] in Serum or Plasma"
        },
        "valueQuantity": {
          "system": "http://unitsofmeasure.org",
          "value": 6.9,
          "unit": "g/dL",
          "code": "g/dL"
        },
        "referenceRange": [
          {
            "low": {
              "value": 6,
              "code": "g/dL",
              "system": "http://unitsofmeasure.org"
            }
          },
          {
            "high": {
              "value": 8.3,
              "code": "g/dL",
              "system": "http://unitsofmeasure.org"
            }
          }
        ],
        "text": {
          "status": "generated",
          "div": "<div xmlns=\"http://www.w3.org/1999/xhtml\"><table class=\"hl7__eu__lab__report\"><tr><th>Test</th><th>26-Jun-2017</th><th>Reference&#xA0;Range</th><th>Unit</th></tr><tr><td>Protein [Mass/volume] in Serum or Plasma</td><td>6.9</td><td>6 - 8.3</td><td></td><td>g/dL</td></tr></table></div>"
        },
        "status": "final",
        "subject": {
          "reference": "urn:uuid:e98737de-92a9-4442-b55e-bab0166ffa30",
          "display": "Maria Nohlmans"
        },
        "effectiveDateTime": "2017-06-26T15:13:39Z",
        "specimen": {
          "reference": "urn:uuid:76e6703d-7883-46f1-901a-933526d6f5c2"
        }
      }
    },
    {
      "fullUrl": "urn:uuid:09d33c01-659e-4dcd-8d0d-7b43314c0c38",
      "resource": {
        "resourceType": "Observation",
        "id": "09d33c01-659e-4dcd-8d0d-7b43314c0c38",
        "meta": {
          "profile": [
            "http://hl7.eu/fhir/laboratory/StructureDefinition/Observation-resultslab-eu-lab"
          ]
        },
        "performer": [
          {
            "display": "The Central European Lab"
          }
        ],
        "category": [
          {
            "coding": [
              {
                "system": "http://terminology.hl7.org/CodeSystem/observation-category",
                "code": "laboratory"
              }
            ]
          }
        ],
        "code": {
          "coding": [
            {
              "code": "1751-7",
              "system": "http://loinc.org",
              "display": "Albumin [Mass/volume] in Serum or Plasma"
            }
          ],
          "text": "Albumin [Mass/volume] in Serum or Plasma"
        },
        "valueQuantity": {
          "system": "http://unitsofmeasure.org",
          "value": 4.4,
          "unit": "g/dL",
          "code": "g/dL"
        },
        "referenceRange": [
          {
            "low": {
              "value": 3.5,
              "code": "g/dL",
              "system": "http://unitsofmeasure.org"
            }
          },
          {
            "high": {
              "value": 5.5,
              "code": "g/dL",
              "system": "http://unitsofmeasure.org"
            }
          }
        ],
        "text": {
          "status": "generated",
          "div": "<div xmlns=\"http://www.w3.org/1999/xhtml\"><table class=\"hl7__eu__lab__report\"><tr><th>Test</th><th>26-Jun-2017</th><th>Reference&#xA0;Range</th><th>Unit</th></tr><tr><td>Albumin [Mass/volume] in Serum or Plasma</td><td>4.4</td><td>3.5 - 5.5</td><td></td><td>g/dL</td></tr></table></div>"
        },
        "status": "final",
        "subject": {
          "reference": "urn:uuid:e98737de-92a9-4442-b55e-bab0166ffa30",
          "display": "Maria Nohlmans"
        },
        "effectiveDateTime": "2017-06-26T15:13:39Z",
        "specimen": {
          "reference": "urn:uuid:76e6703d-7883-46f1-901a-933526d6f5c2"
        }
      }
    },
    {
      "fullUrl": "urn:uuid:ae826944-5376-4c69-a1fd-276743fb4079",
      "resource": {
        "resourceType": "Observation",
        "id": "ae826944-5376-4c69-a1fd-276743fb4079",
        "meta": {
          "profile": [
            "http://hl7.eu/fhir/laboratory/StructureDefinition/Observation-resultslab-eu-lab"
          ]
        },
        "performer": [
          {
            "display": "The Central European Lab"
          }
        ],
        "category": [
          {
            "coding": [
              {
                "system": "http://terminology.hl7.org/CodeSystem/observation-category",
                "code": "laboratory"
              }
            ]
          }
        ],
        "code": {
          "coding": [
            {
              "code": "10834-0",
              "system": "http://loinc.org",
              "display": "Globulin [Mass/volume] in Serum by calculation"
            }
          ],
          "text": "Globulin [Mass/volume] in Serum by calculation"
        },
        "valueQuantity": {
          "system": "http://unitsofmeasure.org",
          "value": 2.7,
          "unit": "g/L",
          "code": "g/L"
        },
        "referenceRange": [
          {
            "low": {
              "value": 2,
              "code": "g/L",
              "system": "http://unitsofmeasure.org"
            }
          },
          {
            "high": {
              "value": 3.5,
              "code": "g/L",
              "system": "http://unitsofmeasure.org"
            }
          }
        ],
        "text": {
          "status": "generated",
          "div": "<div xmlns=\"http://www.w3.org/1999/xhtml\"><table class=\"hl7__eu__lab__report\"><tr><th>Test</th><th>26-Jun-2017</th><th>Reference&#xA0;Range</th><th>Unit</th></tr><tr><td>Globulin [Mass/volume] in Serum by calculation</td><td>2.7</td><td>2 - 3.5</td><td></td><td>g/L</td></tr></table></div>"
        },
        "status": "final",
        "subject": {
          "reference": "urn:uuid:e98737de-92a9-4442-b55e-bab0166ffa30",
          "display": "Maria Nohlmans"
        },
        "effectiveDateTime": "2017-06-26T15:13:39Z",
        "specimen": {
          "reference": "urn:uuid:985a3704-871f-4acf-acf3-2b97b44702fc"
        }
      }
    },
    {
      "fullUrl": "urn:uuid:89ee1234-1f67-4410-ae44-159377ff5342",
      "resource": {
        "resourceType": "Observation",
        "id": "89ee1234-1f67-4410-ae44-159377ff5342",
        "meta": {
          "profile": [
            "http://hl7.eu/fhir/laboratory/StructureDefinition/Observation-resultslab-eu-lab"
          ]
        },
        "performer": [
          {
            "display": "The Central European Lab"
          }
        ],
        "category": [
          {
            "coding": [
              {
                "system": "http://terminology.hl7.org/CodeSystem/observation-category",
                "code": "laboratory"
              }
            ]
          }
        ],
        "code": {
          "coding": [
            {
              "code": "1975-2",
              "system": "http://loinc.org",
              "display": "Bilirubin.total [Mass/volume] in Serum or Plasma"
            }
          ],
          "text": "Bilirubin.total [Mass/volume] in Serum or Plasma"
        },
        "valueQuantity": {
          "system": "http://unitsofmeasure.org",
          "value": 0.3,
          "unit": "mg/dL",
          "code": "mg/dL"
        },
        "referenceRange": [
          {
            "low": {
              "value": 0.3,
              "code": "mg/dL",
              "system": "http://unitsofmeasure.org"
            }
          },
          {
            "high": {
              "value": 1.2,
              "code": "mg/dL",
              "system": "http://unitsofmeasure.org"
            }
          }
        ],
        "text": {
          "status": "generated",
          "div": "<div xmlns=\"http://www.w3.org/1999/xhtml\"><table class=\"hl7__eu__lab__report\"><tr><th>Test</th><th>26-Jun-2017</th><th>Reference&#xA0;Range</th><th>Unit</th></tr><tr><td>Bilirubin.total [Mass/volume] in Serum or Plasma</td><td>0.3</td><td>0.3 - 1.2</td><td></td><td>mg/dL</td></tr></table></div>"
        },
        "status": "final",
        "subject": {
          "reference": "urn:uuid:e98737de-92a9-4442-b55e-bab0166ffa30",
          "display": "Maria Nohlmans"
        },
        "effectiveDateTime": "2017-06-26T15:13:39Z",
        "specimen": {
          "reference": "urn:uuid:76e6703d-7883-46f1-901a-933526d6f5c2"
        }
      }
    },
    {
      "fullUrl": "urn:uuid:c8509d99-f47e-4c98-9858-c29db453e18f",
      "resource": {
        "resourceType": "Observation",
        "id": "c8509d99-f47e-4c98-9858-c29db453e18f",
        "meta": {
          "profile": [
            "http://hl7.eu/fhir/laboratory/StructureDefinition/Observation-resultslab-eu-lab"
          ]
        },
        "performer": [
          {
            "display": "The Central European Lab"
          }
        ],
        "category": [
          {
            "coding": [
              {
                "system": "http://terminology.hl7.org/CodeSystem/observation-category",
                "code": "laboratory"
              }
            ]
          }
        ],
        "code": {
          "coding": [
            {
              "code": "6768-6",
              "system": "http://loinc.org",
              "display": "Alkaline phosphatase [Enzymatic activity/volume] in Serum or Plasma"
            }
          ],
          "text": "Alkaline phosphatase [Enzymatic activity/volume] in Serum or Plasma"
        },
        "valueQuantity": {
          "system": "http://unitsofmeasure.org",
          "value": 129.6,
          "unit": "U/L",
          "code": "U/L"
        },
        "referenceRange": [
          {
            "low": {
              "value": 44,
              "code": "U/L",
              "system": "http://unitsofmeasure.org"
            }
          },
          {
            "high": {
              "value": 142,
              "code": "U/L",
              "system": "http://unitsofmeasure.org"
            }
          }
        ],
        "text": {
          "status": "generated",
          "div": "<div xmlns=\"http://www.w3.org/1999/xhtml\"><table class=\"hl7__eu__lab__report\"><tr><th>Test</th><th>26-Jun-2017</th><th>Reference&#xA0;Range</th><th>Unit</th></tr><tr><td>Alkaline phosphatase [Enzymatic activity/volume] in Serum or Plasma</td><td>129.6</td><td>44 - 142</td><td></td><td>U/L</td></tr></table></div>"
        },
        "status": "final",
        "subject": {
          "reference": "urn:uuid:e98737de-92a9-4442-b55e-bab0166ffa30",
          "display": "Maria Nohlmans"
        },
        "effectiveDateTime": "2017-06-26T15:13:39Z",
        "specimen": {
          "reference": "urn:uuid:76e6703d-7883-46f1-901a-933526d6f5c2"
        }
      }
    },
    {
      "fullUrl": "urn:uuid:a28de06d-e2b7-4c14-b430-1a1d3a2b4677",
      "resource": {
        "resourceType": "Observation",
        "id": "a28de06d-e2b7-4c14-b430-1a1d3a2b4677",
        "meta": {
          "profile": [
            "http://hl7.eu/fhir/laboratory/StructureDefinition/Observation-resultslab-eu-lab"
          ]
        },
        "performer": [
          {
            "display": "The Central European Lab"
          }
        ],
        "category": [
          {
            "coding": [
              {
                "system": "http://terminology.hl7.org/CodeSystem/observation-category",
                "code": "laboratory"
              }
            ]
          }
        ],
        "code": {
          "coding": [
            {
              "code": "1742-6",
              "system": "http://loinc.org",
              "display": "Alanine aminotransferase [Enzymatic activity/volume] in Serum or Plasma"
            }
          ],
          "text": "Alanine aminotransferase [Enzymatic activity/volume] in Serum or Plasma"
        },
        "valueQuantity": {
          "system": "http://unitsofmeasure.org",
          "value": 54.9,
          "unit": "U/L",
          "code": "U/L"
        },
        "referenceRange": [
          {
            "low": {
              "value": 7,
              "code": "U/L",
              "system": "http://unitsofmeasure.org"
            }
          },
          {
            "high": {
              "value": 40,
              "code": "U/L",
              "system": "http://unitsofmeasure.org"
            }
          }
        ],
        "interpretation": [
          {
            "coding": [
              {
                "code": "H",
                "system": "http://terminology.hl7.org/CodeSystem/v3-ObservationInterpretation",
                "display": "High"
              }
            ]
          }
        ],
        "text": {
          "status": "generated",
          "div": "<div xmlns=\"http://www.w3.org/1999/xhtml\"><table class=\"hl7__eu__lab__report\"><tr><th>Test</th><th>26-Jun-2017</th><th>Reference&#xA0;Range</th><th>Unit</th></tr><tr><td>Alanine aminotransferase [Enzymatic activity/volume] in Serum or Plasma</td><td>54.9</td><td>7 - 40</td><td>H</td><td>U/L</td></tr></table></div>"
        },
        "status": "final",
        "subject": {
          "reference": "urn:uuid:e98737de-92a9-4442-b55e-bab0166ffa30",
          "display": "Maria Nohlmans"
        },
        "effectiveDateTime": "2017-06-26T15:13:39Z",
        "specimen": {
          "reference": "urn:uuid:76e6703d-7883-46f1-901a-933526d6f5c2"
        }
      }
    },
    {
      "fullUrl": "urn:uuid:58306f52-003f-4094-a9f0-74dd0d0856be",
      "resource": {
        "resourceType": "Observation",
        "id": "58306f52-003f-4094-a9f0-74dd0d0856be",
        "meta": {
          "profile": [
            "http://hl7.eu/fhir/laboratory/StructureDefinition/Observation-resultslab-eu-lab"
          ]
        },
        "performer": [
          {
            "display": "The Central European Lab"
          }
        ],
        "category": [
          {
            "coding": [
              {
                "system": "http://terminology.hl7.org/CodeSystem/observation-category",
                "code": "laboratory"
              }
            ]
          }
        ],
        "code": {
          "coding": [
            {
              "code": "1920-8",
              "system": "http://loinc.org",
              "display": "Aspartate aminotransferase [Enzymatic activity/volume] in Serum or Plasma"
            }
          ],
          "text": "Aspartate aminotransferase [Enzymatic activity/volume] in Serum or Plasma"
        },
        "valueQuantity": {
          "system": "http://unitsofmeasure.org",
          "value": 20.1,
          "unit": "U/L",
          "code": "U/L"
        },
        "referenceRange": [
          {
            "low": {
              "value": 10,
              "code": "U/L",
              "system": "http://unitsofmeasure.org"
            }
          },
          {
            "high": {
              "value": 40,
              "code": "U/L",
              "system": "http://unitsofmeasure.org"
            }
          }
        ],
        "text": {
          "status": "generated",
          "div": "<div xmlns=\"http://www.w3.org/1999/xhtml\"><table class=\"hl7__eu__lab__report\"><tr><th>Test</th><th>26-Jun-2017</th><th>Reference&#xA0;Range</th><th>Unit</th></tr><tr><td>Aspartate aminotransferase [Enzymatic activity/volume] in Serum or Plasma</td><td>20.1</td><td>10 - 40</td><td></td><td>U/L</td></tr></table></div>"
        },
        "status": "final",
        "subject": {
          "reference": "urn:uuid:e98737de-92a9-4442-b55e-bab0166ffa30",
          "display": "Maria Nohlmans"
        },
        "effectiveDateTime": "2017-06-26T15:13:39Z",
        "specimen": {
          "reference": "urn:uuid:76e6703d-7883-46f1-901a-933526d6f5c2"
        }
      }
    },
    {
      "fullUrl": "urn:uuid:ee8bdecf-bdf2-4544-b61c-2b2b5e2b1abe",
      "resource": {
        "resourceType": "Observation",
        "id": "ee8bdecf-bdf2-4544-b61c-2b2b5e2b1abe",
        "meta": {
          "profile": [
            "http://hl7.eu/fhir/laboratory/StructureDefinition/Observation-resultslab-eu-lab"
          ]
        },
        "performer": [
          {
            "display": "The Central European Lab"
          }
        ],
        "category": [
          {
            "coding": [
              {
                "system": "http://terminology.hl7.org/CodeSystem/observation-category",
                "code": "laboratory"
              }
            ]
          }
        ],
        "code": {
          "coding": [
            {
              "code": "5767-9",
              "system": "http://loinc.org",
              "display": "Appearance of Urine"
            }
          ],
          "text": "Appearance of Urine"
        },
        "text": {
          "status": "generated",
          "div": "<div xmlns=\"http://www.w3.org/1999/xhtml\"><table class=\"hl7__eu__lab__report\"><tr><th>Test</th><th>26-Jun-2017</th><th>Reference&#xA0;Range</th><th>Unit</th></tr><tr><td>Appearance of Urine</td></tr></table></div>"
        },
        "status": "final",
        "subject": {
          "reference": "urn:uuid:e98737de-92a9-4442-b55e-bab0166ffa30",
          "display": "Maria Nohlmans"
        },
        "effectiveDateTime": "2017-06-26T15:13:39Z",
        "specimen": {
          "reference": "urn:uuid:862e8d9c-b117-4992-8dea-d92f81f8b314"
        }
      }
    },
    {
      "fullUrl": "urn:uuid:c369186c-24a9-4410-afc7-85282a9e9ce0",
      "resource": {
        "resourceType": "Observation",
        "id": "c369186c-24a9-4410-afc7-85282a9e9ce0",
        "meta": {
          "profile": [
            "http://hl7.eu/fhir/laboratory/StructureDefinition/Observation-resultslab-eu-lab"
          ]
        },
        "performer": [
          {
            "display": "The Central European Lab"
          }
        ],
        "category": [
          {
            "coding": [
              {
                "system": "http://terminology.hl7.org/CodeSystem/observation-category",
                "code": "laboratory"
              }
            ]
          }
        ],
        "code": {
          "coding": [
            {
              "code": "34533-0",
              "system": "http://loinc.org",
              "display": "Odor of Urine"
            }
          ],
          "text": "Odor of Urine"
        },
        "text": {
          "status": "generated",
          "div": "<div xmlns=\"http://www.w3.org/1999/xhtml\"><table class=\"hl7__eu__lab__report\"><tr><th>Test</th><th>26-Jun-2017</th><th>Reference&#xA0;Range</th><th>Unit</th></tr><tr><td>Odor of Urine</td></tr></table></div>"
        },
        "status": "final",
        "subject": {
          "reference": "urn:uuid:e98737de-92a9-4442-b55e-bab0166ffa30",
          "display": "Maria Nohlmans"
        },
        "effectiveDateTime": "2017-06-26T15:13:39Z",
        "specimen": {
          "reference": "urn:uuid:862e8d9c-b117-4992-8dea-d92f81f8b314"
        }
      }
    },
    {
      "fullUrl": "urn:uuid:97207f65-ba00-41c7-ab19-948eef5bbc9c",
      "resource": {
        "resourceType": "Observation",
        "id": "97207f65-ba00-41c7-ab19-948eef5bbc9c",
        "meta": {
          "profile": [
            "http://hl7.eu/fhir/laboratory/StructureDefinition/Observation-resultslab-eu-lab"
          ]
        },
        "performer": [
          {
            "display": "The Central European Lab"
          }
        ],
        "category": [
          {
            "coding": [
              {
                "system": "http://terminology.hl7.org/CodeSystem/observation-category",
                "code": "laboratory"
              }
            ]
          }
        ],
        "code": {
          "coding": [
            {
              "code": "32167-9",
              "system": "http://loinc.org",
              "display": "Clarity of Urine"
            }
          ],
          "text": "Clarity of Urine"
        },
        "text": {
          "status": "generated",
          "div": "<div xmlns=\"http://www.w3.org/1999/xhtml\"><table class=\"hl7__eu__lab__report\"><tr><th>Test</th><th>26-Jun-2017</th><th>Reference&#xA0;Range</th><th>Unit</th></tr><tr><td>Clarity of Urine</td></tr></table></div>"
        },
        "status": "final",
        "subject": {
          "reference": "urn:uuid:e98737de-92a9-4442-b55e-bab0166ffa30",
          "display": "Maria Nohlmans"
        },
        "effectiveDateTime": "2017-06-26T15:13:39Z",
        "specimen": {
          "reference": "urn:uuid:862e8d9c-b117-4992-8dea-d92f81f8b314"
        }
      }
    },
    {
      "fullUrl": "urn:uuid:e8eeba78-fe47-4484-880c-1fcac15a8425",
      "resource": {
        "resourceType": "Observation",
        "id": "e8eeba78-fe47-4484-880c-1fcac15a8425",
        "meta": {
          "profile": [
            "http://hl7.eu/fhir/laboratory/StructureDefinition/Observation-resultslab-eu-lab"
          ]
        },
        "performer": [
          {
            "display": "The Central European Lab"
          }
        ],
        "category": [
          {
            "coding": [
              {
                "system": "http://terminology.hl7.org/CodeSystem/observation-category",
                "code": "laboratory"
              }
            ]
          }
        ],
        "code": {
          "coding": [
            {
              "code": "5778-6",
              "system": "http://loinc.org",
              "display": "Color of Urine"
            }
          ],
          "text": "Color of Urine"
        },
        "text": {
          "status": "generated",
          "div": "<div xmlns=\"http://www.w3.org/1999/xhtml\"><table class=\"hl7__eu__lab__report\"><tr><th>Test</th><th>26-Jun-2017</th><th>Reference&#xA0;Range</th><th>Unit</th></tr><tr><td>Color of Urine</td></tr></table></div>"
        },
        "status": "final",
        "subject": {
          "reference": "urn:uuid:e98737de-92a9-4442-b55e-bab0166ffa30",
          "display": "Maria Nohlmans"
        },
        "effectiveDateTime": "2017-06-26T15:13:39Z",
        "specimen": {
          "reference": "urn:uuid:862e8d9c-b117-4992-8dea-d92f81f8b314"
        }
      }
    },
    {
      "fullUrl": "urn:uuid:e3da4673-d16f-4bed-8857-7c621edd9ebd",
      "resource": {
        "resourceType": "Observation",
        "id": "e3da4673-d16f-4bed-8857-7c621edd9ebd",
        "meta": {
          "profile": [
            "http://hl7.eu/fhir/laboratory/StructureDefinition/Observation-resultslab-eu-lab"
          ]
        },
        "performer": [
          {
            "display": "The Central European Lab"
          }
        ],
        "category": [
          {
            "coding": [
              {
                "system": "http://terminology.hl7.org/CodeSystem/observation-category",
                "code": "laboratory"
              }
            ]
          }
        ],
        "code": {
          "coding": [
            {
              "code": "5792-7",
              "system": "http://loinc.org",
              "display": "Glucose [Mass/volume] in Urine by Test strip"
            }
          ],
          "text": "Glucose [Mass/volume] in Urine by Test strip"
        },
        "valueQuantity": {
          "system": "http://unitsofmeasure.org",
          "value": 1.1,
          "unit": "mg/dL",
          "code": "mg/dL"
        },
        "referenceRange": [
          {
            "low": {
              "value": 0.8,
              "code": "mg/dL",
              "system": "http://unitsofmeasure.org"
            }
          },
          {
            "high": {
              "value": 0,
              "code": "mg/dL",
              "system": "http://unitsofmeasure.org"
            }
          }
        ],
        "interpretation": [
          {
            "coding": [
              {
                "code": "H",
                "system": "http://terminology.hl7.org/CodeSystem/v3-ObservationInterpretation",
                "display": "High"
              }
            ]
          }
        ],
        "text": {
          "status": "generated",
          "div": "<div xmlns=\"http://www.w3.org/1999/xhtml\"><table class=\"hl7__eu__lab__report\"><tr><th>Test</th><th>26-Jun-2017</th><th>Reference&#xA0;Range</th><th>Unit</th></tr><tr><td>Glucose [Mass/volume] in Urine by Test strip</td><td>1.1</td><td>0.8 - 0</td><td>H</td><td>mg/dL</td></tr></table></div>"
        },
        "status": "final",
        "subject": {
          "reference": "urn:uuid:e98737de-92a9-4442-b55e-bab0166ffa30",
          "display": "Maria Nohlmans"
        },
        "effectiveDateTime": "2017-06-26T15:13:39Z",
        "specimen": {
          "reference": "urn:uuid:862e8d9c-b117-4992-8dea-d92f81f8b314"
        }
      }
    },
    {
      "fullUrl": "urn:uuid:84f73625-ccff-41ec-9d75-1e9188361b15",
      "resource": {
        "resourceType": "Observation",
        "id": "84f73625-ccff-41ec-9d75-1e9188361b15",
        "meta": {
          "profile": [
            "http://hl7.eu/fhir/laboratory/StructureDefinition/Observation-resultslab-eu-lab"
          ]
        },
        "performer": [
          {
            "display": "The Central European Lab"
          }
        ],
        "category": [
          {
            "coding": [
              {
                "system": "http://terminology.hl7.org/CodeSystem/observation-category",
                "code": "laboratory"
              }
            ]
          }
        ],
        "code": {
          "coding": [
            {
              "code": "25428-4",
              "system": "http://loinc.org",
              "display": "Glucose [Presence] in Urine by Test strip"
            }
          ],
          "text": "Glucose [Presence] in Urine by Test strip"
        },
        "text": {
          "status": "generated",
          "div": "<div xmlns=\"http://www.w3.org/1999/xhtml\"><table class=\"hl7__eu__lab__report\"><tr><th>Test</th><th>26-Jun-2017</th><th>Reference&#xA0;Range</th><th>Unit</th></tr><tr><td>Glucose [Presence] in Urine by Test strip</td></tr></table></div>"
        },
        "status": "final",
        "subject": {
          "reference": "urn:uuid:e98737de-92a9-4442-b55e-bab0166ffa30",
          "display": "Maria Nohlmans"
        },
        "effectiveDateTime": "2017-06-26T15:13:39Z",
        "specimen": {
          "reference": "urn:uuid:862e8d9c-b117-4992-8dea-d92f81f8b314"
        }
      }
    },
    {
      "fullUrl": "urn:uuid:0e9605c7-2bf7-4c33-9ec9-695f586aa89f",
      "resource": {
        "resourceType": "Observation",
        "id": "0e9605c7-2bf7-4c33-9ec9-695f586aa89f",
        "meta": {
          "profile": [
            "http://hl7.eu/fhir/laboratory/StructureDefinition/Observation-resultslab-eu-lab"
          ]
        },
        "performer": [
          {
            "display": "The Central European Lab"
          }
        ],
        "category": [
          {
            "coding": [
              {
                "system": "http://terminology.hl7.org/CodeSystem/observation-category",
                "code": "laboratory"
              }
            ]
          }
        ],
        "code": {
          "coding": [
            {
              "code": "20505-4",
              "system": "http://loinc.org",
              "display": "Bilirubin.total [Mass/volume] in Urine by Test strip"
            }
          ],
          "text": "Bilirubin.total [Mass/volume] in Urine by Test strip"
        },
        "valueQuantity": {
          "system": "http://unitsofmeasure.org",
          "value": 0.6,
          "unit": "mg/dL",
          "code": "mg/dL"
        },
        "referenceRange": [
          {
            "low": {
              "value": 0,
              "code": "mg/dL",
              "system": "http://unitsofmeasure.org"
            }
          },
          {
            "high": {
              "value": 1.5,
              "code": "mg/dL",
              "system": "http://unitsofmeasure.org"
            }
          }
        ],
        "text": {
          "status": "generated",
          "div": "<div xmlns=\"http://www.w3.org/1999/xhtml\"><table class=\"hl7__eu__lab__report\"><tr><th>Test</th><th>26-Jun-2017</th><th>Reference&#xA0;Range</th><th>Unit</th></tr><tr><td>Bilirubin.total [Mass/volume] in Urine by Test strip</td><td>0.6</td><td>0 - 1.5</td><td></td><td>mg/dL</td></tr></table></div>"
        },
        "status": "final",
        "subject": {
          "reference": "urn:uuid:e98737de-92a9-4442-b55e-bab0166ffa30",
          "display": "Maria Nohlmans"
        },
        "effectiveDateTime": "2017-06-26T15:13:39Z",
        "specimen": {
          "reference": "urn:uuid:862e8d9c-b117-4992-8dea-d92f81f8b314"
        }
      }
    },
    {
      "fullUrl": "urn:uuid:2c77a7d4-6008-4c61-aa65-6160700b6f2d",
      "resource": {
        "resourceType": "Observation",
        "id": "2c77a7d4-6008-4c61-aa65-6160700b6f2d",
        "meta": {
          "profile": [
            "http://hl7.eu/fhir/laboratory/StructureDefinition/Observation-resultslab-eu-lab"
          ]
        },
        "performer": [
          {
            "display": "The Central European Lab"
          }
        ],
        "category": [
          {
            "coding": [
              {
                "system": "http://terminology.hl7.org/CodeSystem/observation-category",
                "code": "laboratory"
              }
            ]
          }
        ],
        "code": {
          "coding": [
            {
              "code": "5770-3",
              "system": "http://loinc.org",
              "display": "Bilirubin.total [Presence] in Urine by Test strip"
            }
          ],
          "text": "Bilirubin.total [Presence] in Urine by Test strip"
        },
        "text": {
          "status": "generated",
          "div": "<div xmlns=\"http://www.w3.org/1999/xhtml\"><table class=\"hl7__eu__lab__report\"><tr><th>Test</th><th>26-Jun-2017</th><th>Reference&#xA0;Range</th><th>Unit</th></tr><tr><td>Bilirubin.total [Presence] in Urine by Test strip</td></tr></table></div>"
        },
        "status": "final",
        "subject": {
          "reference": "urn:uuid:e98737de-92a9-4442-b55e-bab0166ffa30",
          "display": "Maria Nohlmans"
        },
        "effectiveDateTime": "2017-06-26T15:13:39Z",
        "specimen": {
          "reference": "urn:uuid:862e8d9c-b117-4992-8dea-d92f81f8b314"
        }
      }
    },
    {
      "fullUrl": "urn:uuid:5d4da68f-7663-4248-b0a7-9e606fa909c6",
      "resource": {
        "resourceType": "Observation",
        "id": "5d4da68f-7663-4248-b0a7-9e606fa909c6",
        "meta": {
          "profile": [
            "http://hl7.eu/fhir/laboratory/StructureDefinition/Observation-resultslab-eu-lab"
          ]
        },
        "performer": [
          {
            "display": "The Central European Lab"
          }
        ],
        "category": [
          {
            "coding": [
              {
                "system": "http://terminology.hl7.org/CodeSystem/observation-category",
                "code": "laboratory"
              }
            ]
          }
        ],
        "code": {
          "coding": [
            {
              "code": "5797-6",
              "system": "http://loinc.org",
              "display": "Ketones [Mass/volume] in Urine by Test strip"
            }
          ],
          "text": "Ketones [Mass/volume] in Urine by Test strip"
        },
        "valueQuantity": {
          "system": "http://unitsofmeasure.org",
          "value": 10.6,
          "unit": "mg/dL",
          "code": "mg/dL"
        },
        "referenceRange": [
          {
            "low": {
              "value": 0,
              "code": "mg/dL",
              "system": "http://unitsofmeasure.org"
            }
          },
          {
            "high": {
              "value": 8,
              "code": "mg/dL",
              "system": "http://unitsofmeasure.org"
            }
          }
        ],
        "interpretation": [
          {
            "coding": [
              {
                "code": "H",
                "system": "http://terminology.hl7.org/CodeSystem/v3-ObservationInterpretation",
                "display": "High"
              }
            ]
          }
        ],
        "text": {
          "status": "generated",
          "div": "<div xmlns=\"http://www.w3.org/1999/xhtml\"><table class=\"hl7__eu__lab__report\"><tr><th>Test</th><th>26-Jun-2017</th><th>Reference&#xA0;Range</th><th>Unit</th></tr><tr><td>Ketones [Mass/volume] in Urine by Test strip</td><td>10.6</td><td>0 - 8</td><td>H</td><td>mg/dL</td></tr></table></div>"
        },
        "status": "final",
        "subject": {
          "reference": "urn:uuid:e98737de-92a9-4442-b55e-bab0166ffa30",
          "display": "Maria Nohlmans"
        },
        "effectiveDateTime": "2017-06-26T15:13:39Z",
        "specimen": {
          "reference": "urn:uuid:862e8d9c-b117-4992-8dea-d92f81f8b314"
        }
      }
    },
    {
      "fullUrl": "urn:uuid:2b9c6ced-6d97-488c-b964-c6fb6ced8cbb",
      "resource": {
        "resourceType": "Observation",
        "id": "2b9c6ced-6d97-488c-b964-c6fb6ced8cbb",
        "meta": {
          "profile": [
            "http://hl7.eu/fhir/laboratory/StructureDefinition/Observation-resultslab-eu-lab"
          ]
        },
        "performer": [
          {
            "display": "The Central European Lab"
          }
        ],
        "category": [
          {
            "coding": [
              {
                "system": "http://terminology.hl7.org/CodeSystem/observation-category",
                "code": "laboratory"
              }
            ]
          }
        ],
        "code": {
          "coding": [
            {
              "code": "2514-8",
              "system": "http://loinc.org",
              "display": "Ketones [Presence] in Urine by Test strip"
            }
          ],
          "text": "Ketones [Presence] in Urine by Test strip"
        },
        "text": {
          "status": "generated",
          "div": "<div xmlns=\"http://www.w3.org/1999/xhtml\"><table class=\"hl7__eu__lab__report\"><tr><th>Test</th><th>26-Jun-2017</th><th>Reference&#xA0;Range</th><th>Unit</th></tr><tr><td>Ketones [Presence] in Urine by Test strip</td></tr></table></div>"
        },
        "status": "final",
        "subject": {
          "reference": "urn:uuid:e98737de-92a9-4442-b55e-bab0166ffa30",
          "display": "Maria Nohlmans"
        },
        "effectiveDateTime": "2017-06-26T15:13:39Z",
        "specimen": {
          "reference": "urn:uuid:862e8d9c-b117-4992-8dea-d92f81f8b314"
        }
      }
    },
    {
      "fullUrl": "urn:uuid:e3e29b58-edd5-47c5-8b16-c77f2b90a5a6",
      "resource": {
        "resourceType": "Observation",
        "id": "e3e29b58-edd5-47c5-8b16-c77f2b90a5a6",
        "meta": {
          "profile": [
            "http://hl7.eu/fhir/laboratory/StructureDefinition/Observation-resultslab-eu-lab"
          ]
        },
        "performer": [
          {
            "display": "The Central European Lab"
          }
        ],
        "category": [
          {
            "coding": [
              {
                "system": "http://terminology.hl7.org/CodeSystem/observation-category",
                "code": "laboratory"
              }
            ]
          }
        ],
        "code": {
          "coding": [
            {
              "code": "5811-5",
              "system": "http://loinc.org",
              "display": "Specific gravity of Urine by Test strip"
            }
          ],
          "text": "Specific gravity of Urine by Test strip"
        },
        "valueQuantity": {
          "system": "http://unitsofmeasure.org",
          "value": 1,
          "unit": "{nominal}",
          "code": "{nominal}"
        },
        "referenceRange": [
          {
            "low": {
              "value": 1.01,
              "code": "g/mL",
              "system": "http://unitsofmeasure.org"
            }
          },
          {
            "high": {
              "value": 1.03,
              "code": "g/mL",
              "system": "http://unitsofmeasure.org"
            }
          }
        ],
        "interpretation": [
          {
            "coding": [
              {
                "code": "L",
                "system": "http://terminology.hl7.org/CodeSystem/v3-ObservationInterpretation",
                "display": "Low"
              }
            ]
          }
        ],
        "text": {
          "status": "generated",
          "div": "<div xmlns=\"http://www.w3.org/1999/xhtml\"><table class=\"hl7__eu__lab__report\"><tr><th>Test</th><th>26-Jun-2017</th><th>Reference&#xA0;Range</th><th>Unit</th></tr><tr><td>Specific gravity of Urine by Test strip</td><td>1.0</td><td>1.01 - 1.03</td><td>L</td><td>{nominal}</td></tr></table></div>"
        },
        "status": "final",
        "subject": {
          "reference": "urn:uuid:e98737de-92a9-4442-b55e-bab0166ffa30",
          "display": "Maria Nohlmans"
        },
        "effectiveDateTime": "2017-06-26T15:13:39Z",
        "specimen": {
          "reference": "urn:uuid:862e8d9c-b117-4992-8dea-d92f81f8b314"
        }
      }
    },
    {
      "fullUrl": "urn:uuid:650626fd-62f3-4c05-9987-dc2ba234c7d8",
      "resource": {
        "resourceType": "Observation",
        "id": "650626fd-62f3-4c05-9987-dc2ba234c7d8",
        "meta": {
          "profile": [
            "http://hl7.eu/fhir/laboratory/StructureDefinition/Observation-resultslab-eu-lab"
          ]
        },
        "performer": [
          {
            "display": "The Central European Lab"
          }
        ],
        "category": [
          {
            "coding": [
              {
                "system": "http://terminology.hl7.org/CodeSystem/observation-category",
                "code": "laboratory"
              }
            ]
          }
        ],
        "code": {
          "coding": [
            {
              "code": "5803-2",
              "system": "http://loinc.org",
              "display": "pH of Urine by Test strip"
            }
          ],
          "text": "pH of Urine by Test strip"
        },
        "valueQuantity": {
          "system": "http://unitsofmeasure.org",
          "value": 5.6,
          "unit": "pH",
          "code": "pH"
        },
        "referenceRange": [
          {
            "low": {
              "value": 4.6,
              "code": "pH",
              "system": "http://unitsofmeasure.org"
            }
          },
          {
            "high": {
              "value": 7.5,
              "code": "pH",
              "system": "http://unitsofmeasure.org"
            }
          }
        ],
        "text": {
          "status": "generated",
          "div": "<div xmlns=\"http://www.w3.org/1999/xhtml\"><table class=\"hl7__eu__lab__report\"><tr><th>Test</th><th>26-Jun-2017</th><th>Reference&#xA0;Range</th><th>Unit</th></tr><tr><td>pH of Urine by Test strip</td><td>5.6</td><td>4.6 - 7.5</td><td></td><td>pH</td></tr></table></div>"
        },
        "status": "final",
        "subject": {
          "reference": "urn:uuid:e98737de-92a9-4442-b55e-bab0166ffa30",
          "display": "Maria Nohlmans"
        },
        "effectiveDateTime": "2017-06-26T15:13:39Z",
        "specimen": {
          "reference": "urn:uuid:862e8d9c-b117-4992-8dea-d92f81f8b314"
        }
      }
    },
    {
      "fullUrl": "urn:uuid:17dc0716-d0f3-461d-856a-c549ea7e49d8",
      "resource": {
        "resourceType": "Observation",
        "id": "17dc0716-d0f3-461d-856a-c549ea7e49d8",
        "meta": {
          "profile": [
            "http://hl7.eu/fhir/laboratory/StructureDefinition/Observation-resultslab-eu-lab"
          ]
        },
        "performer": [
          {
            "display": "The Central European Lab"
          }
        ],
        "category": [
          {
            "coding": [
              {
                "system": "http://terminology.hl7.org/CodeSystem/observation-category",
                "code": "laboratory"
              }
            ]
          }
        ],
        "code": {
          "coding": [
            {
              "code": "5804-0",
              "system": "http://loinc.org",
              "display": "Protein [Mass/volume] in Urine by Test strip"
            }
          ],
          "text": "Protein [Mass/volume] in Urine by Test strip"
        },
        "valueQuantity": {
          "system": "http://unitsofmeasure.org",
          "value": 402.8,
          "unit": "mg/dL",
          "code": "mg/dL"
        },
        "referenceRange": [
          {
            "low": {
              "value": 0,
              "code": "mg/dL",
              "system": "http://unitsofmeasure.org"
            }
          },
          {
            "high": {
              "value": 14,
              "code": "mg/dL",
              "system": "http://unitsofmeasure.org"
            }
          }
        ],
        "interpretation": [
          {
            "coding": [
              {
                "code": "H",
                "system": "http://terminology.hl7.org/CodeSystem/v3-ObservationInterpretation",
                "display": "High"
              }
            ]
          }
        ],
        "text": {
          "status": "generated",
          "div": "<div xmlns=\"http://www.w3.org/1999/xhtml\"><table class=\"hl7__eu__lab__report\"><tr><th>Test</th><th>26-Jun-2017</th><th>Reference&#xA0;Range</th><th>Unit</th></tr><tr><td>Protein [Mass/volume] in Urine by Test strip</td><td>402.8</td><td>0 - 14</td><td>H</td><td>mg/dL</td></tr></table></div>"
        },
        "status": "final",
        "subject": {
          "reference": "urn:uuid:e98737de-92a9-4442-b55e-bab0166ffa30",
          "display": "Maria Nohlmans"
        },
        "effectiveDateTime": "2017-06-26T15:13:39Z",
        "specimen": {
          "reference": "urn:uuid:862e8d9c-b117-4992-8dea-d92f81f8b314"
        }
      }
    },
    {
      "fullUrl": "urn:uuid:aa3017b1-2d80-41c6-8c06-ad281cbd6513",
      "resource": {
        "resourceType": "Observation",
        "id": "aa3017b1-2d80-41c6-8c06-ad281cbd6513",
        "meta": {
          "profile": [
            "http://hl7.eu/fhir/laboratory/StructureDefinition/Observation-resultslab-eu-lab"
          ]
        },
        "performer": [
          {
            "display": "The Central European Lab"
          }
        ],
        "category": [
          {
            "coding": [
              {
                "system": "http://terminology.hl7.org/CodeSystem/observation-category",
                "code": "laboratory"
              }
            ]
          }
        ],
        "code": {
          "coding": [
            {
              "code": "20454-5",
              "system": "http://loinc.org",
              "display": "Protein [Presence] in Urine by Test strip"
            }
          ],
          "text": "Protein [Presence] in Urine by Test strip"
        },
        "text": {
          "status": "generated",
          "div": "<div xmlns=\"http://www.w3.org/1999/xhtml\"><table class=\"hl7__eu__lab__report\"><tr><th>Test</th><th>26-Jun-2017</th><th>Reference&#xA0;Range</th><th>Unit</th></tr><tr><td>Protein [Presence] in Urine by Test strip</td></tr></table></div>"
        },
        "status": "final",
        "subject": {
          "reference": "urn:uuid:e98737de-92a9-4442-b55e-bab0166ffa30",
          "display": "Maria Nohlmans"
        },
        "effectiveDateTime": "2017-06-26T15:13:39Z",
        "specimen": {
          "reference": "urn:uuid:862e8d9c-b117-4992-8dea-d92f81f8b314"
        }
      }
    },
    {
      "fullUrl": "urn:uuid:3c0b2e63-fb1a-4289-a73d-3d825b9fb8aa",
      "resource": {
        "resourceType": "Observation",
        "id": "3c0b2e63-fb1a-4289-a73d-3d825b9fb8aa",
        "meta": {
          "profile": [
            "http://hl7.eu/fhir/laboratory/StructureDefinition/Observation-resultslab-eu-lab"
          ]
        },
        "performer": [
          {
            "display": "The Central European Lab"
          }
        ],
        "category": [
          {
            "coding": [
              {
                "system": "http://terminology.hl7.org/CodeSystem/observation-category",
                "code": "laboratory"
              }
            ]
          }
        ],
        "code": {
          "coding": [
            {
              "code": "5802-4",
              "system": "http://loinc.org",
              "display": "Nitrite [Presence] in Urine by Test strip"
            }
          ],
          "text": "Nitrite [Presence] in Urine by Test strip"
        },
        "text": {
          "status": "generated",
          "div": "<div xmlns=\"http://www.w3.org/1999/xhtml\"><table class=\"hl7__eu__lab__report\"><tr><th>Test</th><th>26-Jun-2017</th><th>Reference&#xA0;Range</th><th>Unit</th></tr><tr><td>Nitrite [Presence] in Urine by Test strip</td></tr></table></div>"
        },
        "status": "final",
        "subject": {
          "reference": "urn:uuid:e98737de-92a9-4442-b55e-bab0166ffa30",
          "display": "Maria Nohlmans"
        },
        "effectiveDateTime": "2017-06-26T15:13:39Z",
        "specimen": {
          "reference": "urn:uuid:862e8d9c-b117-4992-8dea-d92f81f8b314"
        }
      }
    },
    {
      "fullUrl": "urn:uuid:810cafb3-dd20-4030-9747-b505c04b1c79",
      "resource": {
        "resourceType": "Observation",
        "id": "810cafb3-dd20-4030-9747-b505c04b1c79",
        "meta": {
          "profile": [
            "http://hl7.eu/fhir/laboratory/StructureDefinition/Observation-resultslab-eu-lab"
          ]
        },
        "performer": [
          {
            "display": "The Central European Lab"
          }
        ],
        "category": [
          {
            "coding": [
              {
                "system": "http://terminology.hl7.org/CodeSystem/observation-category",
                "code": "laboratory"
              }
            ]
          }
        ],
        "code": {
          "coding": [
            {
              "code": "5794-3",
              "system": "http://loinc.org",
              "display": "Hemoglobin [Presence] in Urine by Test strip"
            }
          ],
          "text": "Hemoglobin [Presence] in Urine by Test strip"
        },
        "text": {
          "status": "generated",
          "div": "<div xmlns=\"http://www.w3.org/1999/xhtml\"><table class=\"hl7__eu__lab__report\"><tr><th>Test</th><th>26-Jun-2017</th><th>Reference&#xA0;Range</th><th>Unit</th></tr><tr><td>Hemoglobin [Presence] in Urine by Test strip</td></tr></table></div>"
        },
        "status": "final",
        "subject": {
          "reference": "urn:uuid:e98737de-92a9-4442-b55e-bab0166ffa30",
          "display": "Maria Nohlmans"
        },
        "effectiveDateTime": "2017-06-26T15:13:39Z",
        "specimen": {
          "reference": "urn:uuid:862e8d9c-b117-4992-8dea-d92f81f8b314"
        }
      }
    },
    {
      "fullUrl": "urn:uuid:f6ad5f15-8417-4d38-9b47-211228f1339d",
      "resource": {
        "resourceType": "Observation",
        "id": "f6ad5f15-8417-4d38-9b47-211228f1339d",
        "meta": {
          "profile": [
            "http://hl7.eu/fhir/laboratory/StructureDefinition/Observation-resultslab-eu-lab"
          ]
        },
        "performer": [
          {
            "display": "The Central European Lab"
          }
        ],
        "category": [
          {
            "coding": [
              {
                "system": "http://terminology.hl7.org/CodeSystem/observation-category",
                "code": "laboratory"
              }
            ]
          }
        ],
        "code": {
          "coding": [
            {
              "code": "5799-2",
              "system": "http://loinc.org",
              "display": "Leukocyte esterase [Presence] in Urine by Test strip"
            }
          ],
          "text": "Leukocyte esterase [Presence] in Urine by Test strip"
        },
        "text": {
          "status": "generated",
          "div": "<div xmlns=\"http://www.w3.org/1999/xhtml\"><table class=\"hl7__eu__lab__report\"><tr><th>Test</th><th>26-Jun-2017</th><th>Reference&#xA0;Range</th><th>Unit</th></tr><tr><td>Leukocyte esterase [Presence] in Urine by Test strip</td></tr></table></div>"
        },
        "status": "final",
        "subject": {
          "reference": "urn:uuid:e98737de-92a9-4442-b55e-bab0166ffa30",
          "display": "Maria Nohlmans"
        },
        "effectiveDateTime": "2017-06-26T15:13:39Z",
        "specimen": {
          "reference": "urn:uuid:862e8d9c-b117-4992-8dea-d92f81f8b314"
        }
      }
    },
    {
      "fullUrl": "urn:uuid:ab3fb771-7f1e-46cd-a1fb-f63169408c4e",
      "resource": {
        "resourceType": "Device",
        "id": "ab3fb771-7f1e-46cd-a1fb-f63169408c4e",
        "deviceName": [
          {
            "name": "SYNDERAI Synthetic Generator",
            "type": "manufacturer-name"
          }
        ],
        "version": [
          {
            "value": "5.0"
          }
        ],
        "text": {
          "status": "generated",
          "div": "<div xmlns=\"http://www.w3.org/1999/xhtml\">SYNDERAI Synthetic Generator v5.0</div>"
        },
        "status": "active\"",
        "distinctIdentifier": "synderai-generator-50",
        "manufacturer": "SYNDERAI Project"
      }
    },
    {
      "fullUrl": "urn:uuid:9c479e4f-cc4c-4382-957a-d5b9e7a52b1a",
      "resource": {
        "resourceType": "Provenance",
        "id": "9c479e4f-cc4c-4382-957a-d5b9e7a52b1a",
        "target": [
          {
            "reference": "Patient/e98737de-92a9-4442-b55e-bab0166ffa30"
          },
          {
            "reference": "Bundle/8e07fe77-bb52-4204-b530-996d4968e8ab"
          },
          {
            "reference": "Composition/a459ff9a-94c7-4cc8-b9ed-535d94ee6d25"
          },
          {
            "reference": "PractitionerRole/1db7f28d-8d09-491d-85cf-7d9e81362601"
          },
          {
            "reference": "Practitioner/33b89b2e-82c8-4c40-8c82-042042c16fd2"
          },
          {
            "reference": "PractitionerRole/2dcd47d7-bb42-4861-a6b1-68bd786c8d47"
          },
          {
            "reference": "Organization/9aa8c815-1f77-46ae-b54e-6710f698190a"
          }
        ],
        "activity": {
          "text": "Synthetic Example Data Generation"
        },
        "policy": [
          "https://synderai.net/synderai-synthetic-data-policy"
        ],
        "agent": [
          {
            "type": {
              "text": "author"
            },
            "who": {
              "reference": "Device/ab3fb771-7f1e-46cd-a1fb-f63169408c4e"
            }
          }
        ],
        "reason": [
          {
            "text": "Interoperability Testing and Training (non-clinical use)"
          }
        ],
        "text": {
          "status": "generated",
          "div": "<div xmlns=\"http://www.w3.org/1999/xhtml\">Provenance for SYNDERAI Synthetic Example Data Resource</div>"
        },
        "recorded": "2017-06-26T17:13:39Z"
      }
    },
    {
      "fullUrl": "urn:uuid:1db7f28d-8d09-491d-85cf-7d9e81362601",
      "resource": {
        "resourceType": "PractitionerRole",
        "id": "1db7f28d-8d09-491d-85cf-7d9e81362601",
        "meta": {
          "profile": [
            "http://hl7.eu/fhir/base/StructureDefinition/practitionerRole-eu"
          ]
        },
        "text": {
          "status": "generated",
          "div": "<div xmlns=\"http://www.w3.org/1999/xhtml\">Laboratory Role Id: 1db7f28d-8d09-491d-85cf-7d9e81362601</div>"
        },
        "practitioner": {
          "reference": "urn:uuid:33b89b2e-82c8-4c40-8c82-042042c16fd2"
        }
      }
    },
    {
      "fullUrl": "urn:uuid:33b89b2e-82c8-4c40-8c82-042042c16fd2",
      "resource": {
        "resourceType": "Practitioner",
        "id": "33b89b2e-82c8-4c40-8c82-042042c16fd2",
        "meta": {
          "profile": [
            "http://hl7.eu/fhir/base/StructureDefinition/practitioner-eu"
          ]
        },
        "identifier": [
          {
            "assigner": {
              "display": "HL7 Europe"
            },
            "system": "urn:oid:2.16.840.1.113883.2.51.999",
            "value": "5aa37823-2d16-4fd1-9a98-49f7a8aef076"
          }
        ],
        "name": [
          {
            "prefix": [
              "dr"
            ],
            "given": [
              "Ex"
            ],
            "family": "Ample"
          }
        ],
        "address": [
          {
            "line": [
              "Laboratoire Central Européenne",
              "Boulevard du Jardin Botanique 32"
            ],
            "postalCode": "1000",
            "city": "Brussels",
            "country": "Belgium"
          }
        ],
        "text": {
          "status": "generated",
          "div": "<div xmlns=\"http://www.w3.org/1999/xhtml\">Laboratory: Laboratoire Central Européenne, 1000 Brussels, Belgium</div>"
        }
      }
    }
  ],
  "type": "document",
  "timestamp": "2017-06-26T17:13:39Z"
}
