{
  "resourceType": "Bundle",
  "id": "7623cceb-b788-41b2-ac76-581d4435e3f9",
  "meta": {
    "profile": [
      "http://hl7.eu/fhir/laboratory/StructureDefinition/Bundle-eu-lab"
    ]
  },
  "identifier": {
    "assigner": {
      "display": "HL7 Europe"
    },
    "system": "urn:oid:2.16.840.1.113883.2.51.999",
    "value": "ae7f2505-480e-4f55-a8e9-f62f3225bde4"
  },
  "entry": [
    {
      "fullUrl": "urn:uuid:0e3167b5-bbae-4689-8ca6-46b2e10c6953",
      "resource": {
        "resourceType": "Composition",
        "id": "0e3167b5-bbae-4689-8ca6-46b2e10c6953",
        "meta": {
          "profile": [
            "http://hl7.eu/fhir/laboratory/StructureDefinition/Composition-eu-lab"
          ]
        },
        "identifier": {
          "assigner": {
            "display": "HL7 Europe"
          },
          "system": "urn:oid:2.16.840.1.113883.2.51.999",
          "value": "0f412611-e9a8-46fa-ad7d-9170b6c22a3c"
        },
        "author": [
          {
            "reference": "urn:uuid:6d383040-300f-4493-82f3-0d490371062d"
          }
        ],
        "category": [
          {
            "coding": [
              {
                "code": "26436-6",
                "system": "http://loinc.org",
                "display": "Laboratory studies (set)"
              }
            ]
          }
        ],
        "type": {
          "coding": [
            {
              "code": "11502-2",
              "system": "http://loinc.org",
              "display": "Laboratory report"
            }
          ],
          "text": "Laboratory Report"
        },
        "section": [
          {
            "code": {
              "coding": [
                {
                  "code": "26436-6",
                  "system": "http://loinc.org",
                  "display": "Laboratory studies (set)"
                }
              ],
              "text": "Laboratory studies"
            },
            "section": [
              {
                "code": {
                  "coding": [
                    {
                      "code": "$18723-7",
                      "system": "http://loinc.org",
                      "display": "Hematology studies (set)"
                    }
                  ],
                  "text": "Hematology"
                },
                "entry": [
                  {
                    "reference": "urn:uuid:d6a88ab8-a89d-45b2-bb41-ad5c3be5b934"
                  },
                  {
                    "reference": "urn:uuid:e932224e-3143-4dab-94a6-e45055858961"
                  },
                  {
                    "reference": "urn:uuid:5b04b692-f4b5-4730-8d07-61ff570efda3"
                  },
                  {
                    "reference": "urn:uuid:13a4edf1-6f8f-4f1b-abd4-f77ef6f6cff7"
                  },
                  {
                    "reference": "urn:uuid:438d8fb5-18ad-4310-8e4e-45b50c69183f"
                  },
                  {
                    "reference": "urn:uuid:fc9972c0-621a-4c15-8d67-262da2f65f55"
                  },
                  {
                    "reference": "urn:uuid:17f515c2-4f0a-4ba5-b035-1401ccb94057"
                  },
                  {
                    "reference": "urn:uuid:d1b91f88-0937-41f7-b2bb-580142c5b6a0"
                  },
                  {
                    "reference": "urn:uuid:3e28cd67-0fa4-4007-ab9e-c820ab99d8c5"
                  },
                  {
                    "reference": "urn:uuid:6b648374-d5b4-489b-9e9c-dd012182f2a7"
                  },
                  {
                    "reference": "urn:uuid:01d049ab-ebe6-4bfe-8f87-09f0e8254a32"
                  }
                ],
                "text": {
                  "status": "generated",
                  "div": "<div xmlns=\"http://www.w3.org/1999/xhtml\"><h3>Hematology</h3><table class=\"hl7__eu__lab__report\"><thead><tr><th>Test</th><th>19-JUL-2018</th><th>Reference&#xA0;Range</th><th>Unit</th></tr></thead><tbody><tr><td>Leukocytes [#/volume] in Blood by Automated count</td><td>7.5</td><td>3.5 - 10.5</td><td>10*3/uL</td></tr><tr><td>Erythrocytes [#/volume] in Blood by Automated count</td><td>4.6</td><td>4.5 - 5.5</td><td>10*6/uL</td></tr><tr><td>Hemoglobin [Mass/volume] in Blood</td><td>14.0</td><td>14 - 18</td><td>g/dL</td></tr><tr><td>Hematocrit [Volume Fraction] of Blood by Automated count</td><td><strong>36.9 L</strong></td><td>38 - 50</td><td>%</td></tr><tr><td>MCV [Entitic volume] by Automated count</td><td>90.8</td><td>80 - 98</td><td>fL</td></tr><tr><td>MCH [Entitic mass] by Automated count</td><td>28.7</td><td>27 - 34</td><td>pg</td></tr><tr><td>MCHC [Mass/volume] by Automated count</td><td>34.8</td><td>32 - 36</td><td>g/dL</td></tr><tr><td>Erythrocyte distribution width [Entitic volume] by Automated count</td><td>45.6</td><td>39 - 55</td><td>fL</td></tr><tr><td>Platelets [#/volume] in Blood by Automated count</td><td>383.0</td><td>150 - 400</td><td>10*3/uL</td></tr><tr><td>Platelet distribution width [Entitic volume] in Blood by Automated count</td><td><strong>259.5 H</strong></td><td>13.4 - 17.4</td><td>fL</td></tr><tr><td>Platelet mean volume [Entitic volume] in Blood by Automated count</td><td>11.7</td><td>7.2 - 13.8</td><td>fL</td></tr></tbody></table></div>"
                },
                "title": "Hematology"
              }
            ],
            "title": "Laboratory Report"
          },
          {
            "text": {
              "status": "generated",
              "div": "<div xmlns=\"http://www.w3.org/1999/xhtml\"><h3>Annotation</h3><table class=\"hl7__eu__lab__report\"><tr><th>Conclusion and Recommendations based on this report and previous findings known to us</th></tr><tr><td>The blood count is largely within normal limits. There is a mildly decreased hematocrit, with hemoglobin at the lower end of normal, suggesting possible borderline anemia. Platelet count is normal, but platelet distribution width is elevated, which may indicate increased platelet size variability, often seen in reactive states. No acute abnormalities detected; clinical correlation is recommended.</td></tr></table></div>"
            },
            "code": {
              "coding": [
                {
                  "system": "http://loinc.org",
                  "code": "48767-8",
                  "display": "Annotation comment"
                }
              ]
            },
            "title": "Annotation comment"
          }
        ],
        "status": "final",
        "subject": {
          "reference": "urn:uuid:990c4eb5-c683-43bf-a57a-a7e559fd13e2",
          "display": "Alberto Manrique"
        },
        "date": "2018-07-19T12:32:27Z",
        "title": "Laboratory Report",
        "confidentiality": "N"
      }
    },
    {
      "fullUrl": "urn:uuid:78144158-e01b-4382-8b48-4bf641500dae",
      "resource": {
        "resourceType": "DiagnosticReport",
        "id": "78144158-e01b-4382-8b48-4bf641500dae",
        "meta": {
          "profile": [
            "http://hl7.eu/fhir/laboratory/StructureDefinition/DiagnosticReport-eu-lab"
          ]
        },
        "identifier": [
          {
            "assigner": {
              "display": "HL7 Europe"
            },
            "system": "urn:oid:2.16.840.1.113883.2.51.999",
            "value": "8a4228a2-868e-46f5-b021-13e2b1050c8f"
          }
        ],
        "extension": [
          {
            "url": "http://hl7.org/fhir/5.0/StructureDefinition/extension-DiagnosticReport.composition",
            "valueReference": {
              "reference": "urn:uuid:0f412611-e9a8-46fa-ad7d-9170b6c22a3c"
            }
          }
        ],
        "category": [
          {
            "coding": [
              {
                "code": "26436-6",
                "system": "http://loinc.org",
                "display": "Laboratory studies (set)"
              }
            ]
          }
        ],
        "specimen": [
          {
            "reference": "urn:uuid:a41c0a2f-07bf-41bc-a5f7-53dde0f562e5"
          },
          {
            "reference": "urn:uuid:a41c0a2f-07bf-41bc-a5f7-53dde0f562e5"
          }
        ],
        "result": [
          {
            "reference": "urn:uuid:d6a88ab8-a89d-45b2-bb41-ad5c3be5b934"
          },
          {
            "reference": "urn:uuid:e932224e-3143-4dab-94a6-e45055858961"
          },
          {
            "reference": "urn:uuid:5b04b692-f4b5-4730-8d07-61ff570efda3"
          },
          {
            "reference": "urn:uuid:13a4edf1-6f8f-4f1b-abd4-f77ef6f6cff7"
          },
          {
            "reference": "urn:uuid:438d8fb5-18ad-4310-8e4e-45b50c69183f"
          },
          {
            "reference": "urn:uuid:fc9972c0-621a-4c15-8d67-262da2f65f55"
          },
          {
            "reference": "urn:uuid:17f515c2-4f0a-4ba5-b035-1401ccb94057"
          },
          {
            "reference": "urn:uuid:d1b91f88-0937-41f7-b2bb-580142c5b6a0"
          },
          {
            "reference": "urn:uuid:3e28cd67-0fa4-4007-ab9e-c820ab99d8c5"
          },
          {
            "reference": "urn:uuid:6b648374-d5b4-489b-9e9c-dd012182f2a7"
          },
          {
            "reference": "urn:uuid:01d049ab-ebe6-4bfe-8f87-09f0e8254a32"
          }
        ],
        "status": "registered",
        "code": {
          "coding": [
            {
              "code": "11502-2",
              "system": "http://loinc.org",
              "display": "Laboratory report"
            }
          ]
        },
        "subject": {
          "reference": "urn:uuid:990c4eb5-c683-43bf-a57a-a7e559fd13e2",
          "display": "Alberto Manrique"
        }
      }
    },
    {
      "fullUrl": "urn:uuid:990c4eb5-c683-43bf-a57a-a7e559fd13e2",
      "resource": {
        "resourceType": "Patient",
        "id": "990c4eb5-c683-43bf-a57a-a7e559fd13e2",
        "meta": {
          "security": [
            {
              "system": "http://terminology.hl7.org/CodeSystem/v3-ActReason",
              "code": "HTEST"
            },
            {
              "system": "http://terminology.hl7.org/CodeSystem/v3-ActReason",
              "code": "TRAIN"
            }
          ],
          "tag": [
            {
              "system": "https://synderai.net/fhir/CodeSystem/tags",
              "code": "synthetic",
              "display": "SYNDERAI Synthetic data"
            }
          ],
          "profile": [
            "http://hl7.eu/fhir/base/StructureDefinition/patient-eu-core"
          ]
        },
        "identifier": [
          {
            "type": {
              "coding": [
                {
                  "code": "PT",
                  "system": "http://terminology.hl7.org/CodeSystem/v2-0203"
                }
              ]
            },
            "system": "http://ec.europa.eu/identifier/eci",
            "value": "7218-581842-3"
          },
          {
            "type": {
              "coding": [
                {
                  "code": "MR",
                  "system": "http://terminology.hl7.org/CodeSystem/v2-0203"
                }
              ]
            },
            "system": "http://local.setting.eu/identifier",
            "value": "b6afc1e6-e260-fa0e-a335-1699bedecb9b"
          }
        ],
        "name": [
          {
            "family": "Manrique"
          },
          {
            "given": [
              "Alberto"
            ]
          },
          {
            "text": "Alberto Manrique"
          }
        ],
        "address": [
          {
            "line": [
              "Pasaje de Elisabet Rey 25"
            ],
            "use": "home",
            "type": "physical",
            "postalCode": "47001",
            "city": "Valladolid",
            "country": "Spain"
          }
        ],
        "telecom": [
          {
            "system": "phone",
            "value": "+34 827 76 55 59"
          }
        ],
        "extension": [
          {
            "url": "http://hl7.org/fhir/StructureDefinition/patient-nationality",
            "valueCodeableConcept": {
              "coding": [
                {
                  "code": "ES",
                  "system": "http://hl7.org/fhir/ValueSet/country"
                }
              ]
            }
          }
        ],
        "text": {
          "status": "generated",
          "div": "<div xmlns=\"http://www.w3.org/1999/xhtml\"><table class=\"hl7__ips\"><tr><td>Alberto Manrique</td><td>male</td><td>05-Apr-1993</td></tr></table></div>"
        },
        "gender": "male",
        "birthDate": "1993-04-05"
      }
    },
    {
      "fullUrl": "urn:uuid:106b39cf-c42f-4c4a-ad93-18a6d1756e4c",
      "resource": {
        "resourceType": "ServiceRequest",
        "id": "106b39cf-c42f-4c4a-ad93-18a6d1756e4c",
        "meta": {
          "profile": [
            "http://hl7.eu/fhir/laboratory/StructureDefinition/ServiceRequest-eu-lab"
          ]
        },
        "identifier": [
          {
            "system": "http://example.org",
            "value": "ae7c44b8-8e9a-4ce1-a08c-d5d75b24a6a4"
          }
        ],
        "specimen": [
          {
            "reference": "urn:uuid:a41c0a2f-07bf-41bc-a5f7-53dde0f562e5"
          }
        ],
        "reasonCode": [
          {
            "coding": [
              {
                "code": "59621000",
                "system": "http://snomed.info/sct",
                "display": "Essential hypertension"
              }
            ]
          }
        ],
        "status": "active",
        "intent": "order",
        "code": {
          "coding": [
            {
              "code": "108252007",
              "system": "http://snomed.info/sct",
              "display": "Laboratory procedure"
            }
          ]
        },
        "subject": {
          "reference": "urn:uuid:990c4eb5-c683-43bf-a57a-a7e559fd13e2",
          "display": "Alberto Manrique"
        },
        "requester": {
          "reference": "urn:uuid:1e6ffeb4-76ff-4dc5-b06d-96d0c0f11eeb"
        }
      }
    },
    {
      "fullUrl": "urn:uuid:1e6ffeb4-76ff-4dc5-b06d-96d0c0f11eeb",
      "resource": {
        "resourceType": "PractitionerRole",
        "id": "1e6ffeb4-76ff-4dc5-b06d-96d0c0f11eeb",
        "meta": {
          "profile": [
            "http://hl7.eu/fhir/base/StructureDefinition/practitionerRole-eu"
          ]
        },
        "text": {
          "status": "generated",
          "div": "<div xmlns=\"http://www.w3.org/1999/xhtml\">Provider Role Id: 1e6ffeb4-76ff-4dc5-b06d-96d0c0f11eeb</div>"
        },
        "organization": {
          "reference": "urn:uuid:910eac4c-191d-47b0-964f-8567c6450e1e"
        }
      }
    },
    {
      "fullUrl": "urn:uuid:910eac4c-191d-47b0-964f-8567c6450e1e",
      "resource": {
        "resourceType": "Organization",
        "id": "910eac4c-191d-47b0-964f-8567c6450e1e",
        "meta": {
          "profile": [
            "http://hl7.eu/fhir/base/StructureDefinition/organization-eu"
          ]
        },
        "identifier": [
          {
            "assigner": {
              "display": "HL7 Europe"
            },
            "system": "urn:oid:2.16.840.1.113883.2.51.999",
            "value": "4eabf164-aaa2-4818-84e1-90beb788a24b"
          }
        ],
        "address": [
          {
            "line": [
              "Calle de la Estación del Norte nan"
            ],
            "city": "Valladolid",
            "postalCode": "47007",
            "country": "Spain"
          }
        ],
        "text": {
          "status": "generated",
          "div": "<div xmlns=\"http://www.w3.org/1999/xhtml\">Provider Organization: Hospital Recoletas Campo Grande</div>"
        },
        "name": "Hospital Recoletas Campo Grande"
      }
    },
    {
      "fullUrl": "urn:uuid:a41c0a2f-07bf-41bc-a5f7-53dde0f562e5",
      "resource": {
        "resourceType": "Specimen",
        "id": "a41c0a2f-07bf-41bc-a5f7-53dde0f562e5",
        "meta": {
          "profile": [
            "http://hl7.eu/fhir/laboratory/StructureDefinition/Specimen-eu-lab"
          ]
        },
        "collection": {
          "collectedDateTime": "2018-07-19"
        },
        "text": {
          "status": "generated",
          "div": "<div xmlns=\"http://www.w3.org/1999/xhtml\"><table class=\"hl7__eu__lab__report\"><tr><th>Specimen</th><th>Collection Date</th></tr><tr><td>Whole blood specimen (specimen)</td><td><span class=\"nb\">19-Jul-2018</span></td></tr></table></div>"
        },
        "type": {
          "coding": [
            {
              "code": "258580003",
              "system": "http://snomed.info/sct",
              "display": "Whole blood specimen (specimen)"
            }
          ]
        }
      }
    },
    {
      "fullUrl": "urn:uuid:a41c0a2f-07bf-41bc-a5f7-53dde0f562e5",
      "resource": {
        "resourceType": "Specimen",
        "id": "a41c0a2f-07bf-41bc-a5f7-53dde0f562e5",
        "meta": {
          "profile": [
            "http://hl7.eu/fhir/laboratory/StructureDefinition/Specimen-eu-lab"
          ]
        },
        "collection": {
          "collectedDateTime": "2018-07-19"
        },
        "text": {
          "status": "generated",
          "div": "<div xmlns=\"http://www.w3.org/1999/xhtml\"><table class=\"hl7__eu__lab__report\"><tr><th>Specimen</th><th>Collection Date</th></tr><tr><td>Whole blood specimen (specimen)</td><td><span class=\"nb\">19-Jul-2018</span></td></tr></table></div>"
        },
        "type": {
          "coding": [
            {
              "code": "258580003",
              "system": "http://snomed.info/sct",
              "display": "Whole blood specimen (specimen)"
            }
          ]
        }
      }
    },
    {
      "fullUrl": "urn:uuid:d6a88ab8-a89d-45b2-bb41-ad5c3be5b934",
      "resource": {
        "resourceType": "Observation",
        "id": "d6a88ab8-a89d-45b2-bb41-ad5c3be5b934",
        "meta": {
          "profile": [
            "http://hl7.eu/fhir/laboratory/StructureDefinition/Observation-resultslab-eu-lab"
          ]
        },
        "performer": [
          {
            "display": "The Central European Lab"
          }
        ],
        "category": [
          {
            "coding": [
              {
                "system": "http://terminology.hl7.org/CodeSystem/observation-category",
                "code": "laboratory"
              }
            ]
          }
        ],
        "code": {
          "coding": [
            {
              "code": "6690-2",
              "system": "http://loinc.org",
              "display": "Leukocytes [#/volume] in Blood by Automated count"
            }
          ],
          "text": "Leukocytes [#/volume] in Blood by Automated count"
        },
        "valueQuantity": {
          "system": "http://unitsofmeasure.org",
          "value": 7.5,
          "unit": "10*3/uL",
          "code": "10*3/uL"
        },
        "referenceRange": [
          {
            "low": {
              "value": 3.5,
              "code": "10*3/uL",
              "system": "http://unitsofmeasure.org"
            }
          },
          {
            "high": {
              "value": 10.5,
              "code": "10*3/uL",
              "system": "http://unitsofmeasure.org"
            }
          }
        ],
        "text": {
          "status": "generated",
          "div": "<div xmlns=\"http://www.w3.org/1999/xhtml\"><table class=\"hl7__eu__lab__report\"><tr><th>Test</th><th>19-Jul-2018</th><th>Reference&#xA0;Range</th><th>Unit</th></tr><tr><td>Leukocytes [#/volume] in Blood by Automated count</td><td>7.5</td><td>3.5 - 10.5</td><td></td><td>10*3/uL</td></tr></table></div>"
        },
        "status": "final",
        "subject": {
          "reference": "urn:uuid:990c4eb5-c683-43bf-a57a-a7e559fd13e2",
          "display": "Alberto Manrique"
        },
        "effectiveDateTime": "2018-07-19T10:32:27Z",
        "specimen": {
          "reference": "urn:uuid:a41c0a2f-07bf-41bc-a5f7-53dde0f562e5"
        }
      }
    },
    {
      "fullUrl": "urn:uuid:e932224e-3143-4dab-94a6-e45055858961",
      "resource": {
        "resourceType": "Observation",
        "id": "e932224e-3143-4dab-94a6-e45055858961",
        "meta": {
          "profile": [
            "http://hl7.eu/fhir/laboratory/StructureDefinition/Observation-resultslab-eu-lab"
          ]
        },
        "performer": [
          {
            "display": "The Central European Lab"
          }
        ],
        "category": [
          {
            "coding": [
              {
                "system": "http://terminology.hl7.org/CodeSystem/observation-category",
                "code": "laboratory"
              }
            ]
          }
        ],
        "code": {
          "coding": [
            {
              "code": "789-8",
              "system": "http://loinc.org",
              "display": "Erythrocytes [#/volume] in Blood by Automated count"
            }
          ],
          "text": "Erythrocytes [#/volume] in Blood by Automated count"
        },
        "valueQuantity": {
          "system": "http://unitsofmeasure.org",
          "value": 4.6,
          "unit": "10*6/uL",
          "code": "10*6/uL"
        },
        "referenceRange": [
          {
            "low": {
              "value": 4.5,
              "code": "10*6/uL",
              "system": "http://unitsofmeasure.org"
            }
          },
          {
            "high": {
              "value": 5.5,
              "code": "10*6/uL",
              "system": "http://unitsofmeasure.org"
            }
          }
        ],
        "text": {
          "status": "generated",
          "div": "<div xmlns=\"http://www.w3.org/1999/xhtml\"><table class=\"hl7__eu__lab__report\"><tr><th>Test</th><th>19-Jul-2018</th><th>Reference&#xA0;Range</th><th>Unit</th></tr><tr><td>Erythrocytes [#/volume] in Blood by Automated count</td><td>4.6</td><td>4.5 - 5.5</td><td></td><td>10*6/uL</td></tr></table></div>"
        },
        "status": "final",
        "subject": {
          "reference": "urn:uuid:990c4eb5-c683-43bf-a57a-a7e559fd13e2",
          "display": "Alberto Manrique"
        },
        "effectiveDateTime": "2018-07-19T10:32:27Z",
        "specimen": {
          "reference": "urn:uuid:a41c0a2f-07bf-41bc-a5f7-53dde0f562e5"
        }
      }
    },
    {
      "fullUrl": "urn:uuid:5b04b692-f4b5-4730-8d07-61ff570efda3",
      "resource": {
        "resourceType": "Observation",
        "id": "5b04b692-f4b5-4730-8d07-61ff570efda3",
        "meta": {
          "profile": [
            "http://hl7.eu/fhir/laboratory/StructureDefinition/Observation-resultslab-eu-lab"
          ]
        },
        "performer": [
          {
            "display": "The Central European Lab"
          }
        ],
        "category": [
          {
            "coding": [
              {
                "system": "http://terminology.hl7.org/CodeSystem/observation-category",
                "code": "laboratory"
              }
            ]
          }
        ],
        "code": {
          "coding": [
            {
              "code": "718-7",
              "system": "http://loinc.org",
              "display": "Hemoglobin [Mass/volume] in Blood"
            }
          ],
          "text": "Hemoglobin [Mass/volume] in Blood"
        },
        "valueQuantity": {
          "system": "http://unitsofmeasure.org",
          "value": 14,
          "unit": "g/dL",
          "code": "g/dL"
        },
        "referenceRange": [
          {
            "low": {
              "value": 14,
              "code": "g/dL",
              "system": "http://unitsofmeasure.org"
            }
          },
          {
            "high": {
              "value": 18,
              "code": "g/dL",
              "system": "http://unitsofmeasure.org"
            }
          }
        ],
        "text": {
          "status": "generated",
          "div": "<div xmlns=\"http://www.w3.org/1999/xhtml\"><table class=\"hl7__eu__lab__report\"><tr><th>Test</th><th>19-Jul-2018</th><th>Reference&#xA0;Range</th><th>Unit</th></tr><tr><td>Hemoglobin [Mass/volume] in Blood</td><td>14.0</td><td>14 - 18</td><td></td><td>g/dL</td></tr></table></div>"
        },
        "status": "final",
        "subject": {
          "reference": "urn:uuid:990c4eb5-c683-43bf-a57a-a7e559fd13e2",
          "display": "Alberto Manrique"
        },
        "effectiveDateTime": "2018-07-19T10:32:27Z",
        "specimen": {
          "reference": "urn:uuid:a41c0a2f-07bf-41bc-a5f7-53dde0f562e5"
        }
      }
    },
    {
      "fullUrl": "urn:uuid:13a4edf1-6f8f-4f1b-abd4-f77ef6f6cff7",
      "resource": {
        "resourceType": "Observation",
        "id": "13a4edf1-6f8f-4f1b-abd4-f77ef6f6cff7",
        "meta": {
          "profile": [
            "http://hl7.eu/fhir/laboratory/StructureDefinition/Observation-resultslab-eu-lab"
          ]
        },
        "performer": [
          {
            "display": "The Central European Lab"
          }
        ],
        "category": [
          {
            "coding": [
              {
                "system": "http://terminology.hl7.org/CodeSystem/observation-category",
                "code": "laboratory"
              }
            ]
          }
        ],
        "code": {
          "coding": [
            {
              "code": "4544-3",
              "system": "http://loinc.org",
              "display": "Hematocrit [Volume Fraction] of Blood by Automated count"
            }
          ],
          "text": "Hematocrit [Volume Fraction] of Blood by Automated count"
        },
        "valueQuantity": {
          "system": "http://unitsofmeasure.org",
          "value": 36.9,
          "unit": "%",
          "code": "%"
        },
        "referenceRange": [
          {
            "low": {
              "value": 38,
              "code": "%",
              "system": "http://unitsofmeasure.org"
            }
          },
          {
            "high": {
              "value": 50,
              "code": "%",
              "system": "http://unitsofmeasure.org"
            }
          }
        ],
        "interpretation": [
          {
            "coding": [
              {
                "code": "L",
                "system": "http://terminology.hl7.org/CodeSystem/v3-ObservationInterpretation",
                "display": "Low"
              }
            ]
          }
        ],
        "text": {
          "status": "generated",
          "div": "<div xmlns=\"http://www.w3.org/1999/xhtml\"><table class=\"hl7__eu__lab__report\"><tr><th>Test</th><th>19-Jul-2018</th><th>Reference&#xA0;Range</th><th>Unit</th></tr><tr><td>Hematocrit [Volume Fraction] of Blood by Automated count</td><td>36.9</td><td>38 - 50</td><td>L</td><td>%</td></tr></table></div>"
        },
        "status": "final",
        "subject": {
          "reference": "urn:uuid:990c4eb5-c683-43bf-a57a-a7e559fd13e2",
          "display": "Alberto Manrique"
        },
        "effectiveDateTime": "2018-07-19T10:32:27Z",
        "specimen": {
          "reference": "urn:uuid:a41c0a2f-07bf-41bc-a5f7-53dde0f562e5"
        }
      }
    },
    {
      "fullUrl": "urn:uuid:438d8fb5-18ad-4310-8e4e-45b50c69183f",
      "resource": {
        "resourceType": "Observation",
        "id": "438d8fb5-18ad-4310-8e4e-45b50c69183f",
        "meta": {
          "profile": [
            "http://hl7.eu/fhir/laboratory/StructureDefinition/Observation-resultslab-eu-lab"
          ]
        },
        "performer": [
          {
            "display": "The Central European Lab"
          }
        ],
        "category": [
          {
            "coding": [
              {
                "system": "http://terminology.hl7.org/CodeSystem/observation-category",
                "code": "laboratory"
              }
            ]
          }
        ],
        "code": {
          "coding": [
            {
              "code": "787-2",
              "system": "http://loinc.org",
              "display": "MCV [Entitic volume] by Automated count"
            }
          ],
          "text": "MCV [Entitic volume] by Automated count"
        },
        "valueQuantity": {
          "system": "http://unitsofmeasure.org",
          "value": 90.8,
          "unit": "fL",
          "code": "fL"
        },
        "referenceRange": [
          {
            "low": {
              "value": 80,
              "code": "fL",
              "system": "http://unitsofmeasure.org"
            }
          },
          {
            "high": {
              "value": 98,
              "code": "fL",
              "system": "http://unitsofmeasure.org"
            }
          }
        ],
        "text": {
          "status": "generated",
          "div": "<div xmlns=\"http://www.w3.org/1999/xhtml\"><table class=\"hl7__eu__lab__report\"><tr><th>Test</th><th>19-Jul-2018</th><th>Reference&#xA0;Range</th><th>Unit</th></tr><tr><td>MCV [Entitic volume] by Automated count</td><td>90.8</td><td>80 - 98</td><td></td><td>fL</td></tr></table></div>"
        },
        "status": "final",
        "subject": {
          "reference": "urn:uuid:990c4eb5-c683-43bf-a57a-a7e559fd13e2",
          "display": "Alberto Manrique"
        },
        "effectiveDateTime": "2018-07-19T10:32:27Z",
        "specimen": {
          "reference": "urn:uuid:a41c0a2f-07bf-41bc-a5f7-53dde0f562e5"
        }
      }
    },
    {
      "fullUrl": "urn:uuid:fc9972c0-621a-4c15-8d67-262da2f65f55",
      "resource": {
        "resourceType": "Observation",
        "id": "fc9972c0-621a-4c15-8d67-262da2f65f55",
        "meta": {
          "profile": [
            "http://hl7.eu/fhir/laboratory/StructureDefinition/Observation-resultslab-eu-lab"
          ]
        },
        "performer": [
          {
            "display": "The Central European Lab"
          }
        ],
        "category": [
          {
            "coding": [
              {
                "system": "http://terminology.hl7.org/CodeSystem/observation-category",
                "code": "laboratory"
              }
            ]
          }
        ],
        "code": {
          "coding": [
            {
              "code": "785-6",
              "system": "http://loinc.org",
              "display": "MCH [Entitic mass] by Automated count"
            }
          ],
          "text": "MCH [Entitic mass] by Automated count"
        },
        "valueQuantity": {
          "system": "http://unitsofmeasure.org",
          "value": 28.7,
          "unit": "pg",
          "code": "pg"
        },
        "referenceRange": [
          {
            "low": {
              "value": 27,
              "code": "pg",
              "system": "http://unitsofmeasure.org"
            }
          },
          {
            "high": {
              "value": 34,
              "code": "pg",
              "system": "http://unitsofmeasure.org"
            }
          }
        ],
        "text": {
          "status": "generated",
          "div": "<div xmlns=\"http://www.w3.org/1999/xhtml\"><table class=\"hl7__eu__lab__report\"><tr><th>Test</th><th>19-Jul-2018</th><th>Reference&#xA0;Range</th><th>Unit</th></tr><tr><td>MCH [Entitic mass] by Automated count</td><td>28.7</td><td>27 - 34</td><td></td><td>pg</td></tr></table></div>"
        },
        "status": "final",
        "subject": {
          "reference": "urn:uuid:990c4eb5-c683-43bf-a57a-a7e559fd13e2",
          "display": "Alberto Manrique"
        },
        "effectiveDateTime": "2018-07-19T10:32:27Z",
        "specimen": {
          "reference": "urn:uuid:a41c0a2f-07bf-41bc-a5f7-53dde0f562e5"
        }
      }
    },
    {
      "fullUrl": "urn:uuid:17f515c2-4f0a-4ba5-b035-1401ccb94057",
      "resource": {
        "resourceType": "Observation",
        "id": "17f515c2-4f0a-4ba5-b035-1401ccb94057",
        "meta": {
          "profile": [
            "http://hl7.eu/fhir/laboratory/StructureDefinition/Observation-resultslab-eu-lab"
          ]
        },
        "performer": [
          {
            "display": "The Central European Lab"
          }
        ],
        "category": [
          {
            "coding": [
              {
                "system": "http://terminology.hl7.org/CodeSystem/observation-category",
                "code": "laboratory"
              }
            ]
          }
        ],
        "code": {
          "coding": [
            {
              "code": "786-4",
              "system": "http://loinc.org",
              "display": "MCHC [Mass/volume] by Automated count"
            }
          ],
          "text": "MCHC [Mass/volume] by Automated count"
        },
        "valueQuantity": {
          "system": "http://unitsofmeasure.org",
          "value": 34.8,
          "unit": "g/dL",
          "code": "g/dL"
        },
        "referenceRange": [
          {
            "low": {
              "value": 32,
              "code": "g/dL",
              "system": "http://unitsofmeasure.org"
            }
          },
          {
            "high": {
              "value": 36,
              "code": "g/dL",
              "system": "http://unitsofmeasure.org"
            }
          }
        ],
        "text": {
          "status": "generated",
          "div": "<div xmlns=\"http://www.w3.org/1999/xhtml\"><table class=\"hl7__eu__lab__report\"><tr><th>Test</th><th>19-Jul-2018</th><th>Reference&#xA0;Range</th><th>Unit</th></tr><tr><td>MCHC [Mass/volume] by Automated count</td><td>34.8</td><td>32 - 36</td><td></td><td>g/dL</td></tr></table></div>"
        },
        "status": "final",
        "subject": {
          "reference": "urn:uuid:990c4eb5-c683-43bf-a57a-a7e559fd13e2",
          "display": "Alberto Manrique"
        },
        "effectiveDateTime": "2018-07-19T10:32:27Z",
        "specimen": {
          "reference": "urn:uuid:a41c0a2f-07bf-41bc-a5f7-53dde0f562e5"
        }
      }
    },
    {
      "fullUrl": "urn:uuid:d1b91f88-0937-41f7-b2bb-580142c5b6a0",
      "resource": {
        "resourceType": "Observation",
        "id": "d1b91f88-0937-41f7-b2bb-580142c5b6a0",
        "meta": {
          "profile": [
            "http://hl7.eu/fhir/laboratory/StructureDefinition/Observation-resultslab-eu-lab"
          ]
        },
        "performer": [
          {
            "display": "The Central European Lab"
          }
        ],
        "category": [
          {
            "coding": [
              {
                "system": "http://terminology.hl7.org/CodeSystem/observation-category",
                "code": "laboratory"
              }
            ]
          }
        ],
        "code": {
          "coding": [
            {
              "code": "21000-5",
              "system": "http://loinc.org",
              "display": "Erythrocyte distribution width [Entitic volume] by Automated count"
            }
          ],
          "text": "Erythrocyte distribution width [Entitic volume] by Automated count"
        },
        "valueQuantity": {
          "system": "http://unitsofmeasure.org",
          "value": 45.6,
          "unit": "fL",
          "code": "fL"
        },
        "referenceRange": [
          {
            "low": {
              "value": 39,
              "code": "fL",
              "system": "http://unitsofmeasure.org"
            }
          },
          {
            "high": {
              "value": 55,
              "code": "fL",
              "system": "http://unitsofmeasure.org"
            }
          }
        ],
        "text": {
          "status": "generated",
          "div": "<div xmlns=\"http://www.w3.org/1999/xhtml\"><table class=\"hl7__eu__lab__report\"><tr><th>Test</th><th>19-Jul-2018</th><th>Reference&#xA0;Range</th><th>Unit</th></tr><tr><td>Erythrocyte distribution width [Entitic volume] by Automated count</td><td>45.6</td><td>39 - 55</td><td></td><td>fL</td></tr></table></div>"
        },
        "status": "final",
        "subject": {
          "reference": "urn:uuid:990c4eb5-c683-43bf-a57a-a7e559fd13e2",
          "display": "Alberto Manrique"
        },
        "effectiveDateTime": "2018-07-19T10:32:27Z",
        "specimen": {
          "reference": "urn:uuid:a41c0a2f-07bf-41bc-a5f7-53dde0f562e5"
        }
      }
    },
    {
      "fullUrl": "urn:uuid:3e28cd67-0fa4-4007-ab9e-c820ab99d8c5",
      "resource": {
        "resourceType": "Observation",
        "id": "3e28cd67-0fa4-4007-ab9e-c820ab99d8c5",
        "meta": {
          "profile": [
            "http://hl7.eu/fhir/laboratory/StructureDefinition/Observation-resultslab-eu-lab"
          ]
        },
        "performer": [
          {
            "display": "The Central European Lab"
          }
        ],
        "category": [
          {
            "coding": [
              {
                "system": "http://terminology.hl7.org/CodeSystem/observation-category",
                "code": "laboratory"
              }
            ]
          }
        ],
        "code": {
          "coding": [
            {
              "code": "777-3",
              "system": "http://loinc.org",
              "display": "Platelets [#/volume] in Blood by Automated count"
            }
          ],
          "text": "Platelets [#/volume] in Blood by Automated count"
        },
        "valueQuantity": {
          "system": "http://unitsofmeasure.org",
          "value": 383,
          "unit": "10*3/uL",
          "code": "10*3/uL"
        },
        "referenceRange": [
          {
            "low": {
              "value": 150,
              "code": "10*3/uL",
              "system": "http://unitsofmeasure.org"
            }
          },
          {
            "high": {
              "value": 400,
              "code": "10*3/uL",
              "system": "http://unitsofmeasure.org"
            }
          }
        ],
        "text": {
          "status": "generated",
          "div": "<div xmlns=\"http://www.w3.org/1999/xhtml\"><table class=\"hl7__eu__lab__report\"><tr><th>Test</th><th>19-Jul-2018</th><th>Reference&#xA0;Range</th><th>Unit</th></tr><tr><td>Platelets [#/volume] in Blood by Automated count</td><td>383.0</td><td>150 - 400</td><td></td><td>10*3/uL</td></tr></table></div>"
        },
        "status": "final",
        "subject": {
          "reference": "urn:uuid:990c4eb5-c683-43bf-a57a-a7e559fd13e2",
          "display": "Alberto Manrique"
        },
        "effectiveDateTime": "2018-07-19T10:32:27Z",
        "specimen": {
          "reference": "urn:uuid:a41c0a2f-07bf-41bc-a5f7-53dde0f562e5"
        }
      }
    },
    {
      "fullUrl": "urn:uuid:6b648374-d5b4-489b-9e9c-dd012182f2a7",
      "resource": {
        "resourceType": "Observation",
        "id": "6b648374-d5b4-489b-9e9c-dd012182f2a7",
        "meta": {
          "profile": [
            "http://hl7.eu/fhir/laboratory/StructureDefinition/Observation-resultslab-eu-lab"
          ]
        },
        "performer": [
          {
            "display": "The Central European Lab"
          }
        ],
        "category": [
          {
            "coding": [
              {
                "system": "http://terminology.hl7.org/CodeSystem/observation-category",
                "code": "laboratory"
              }
            ]
          }
        ],
        "code": {
          "coding": [
            {
              "code": "32207-3",
              "system": "http://loinc.org",
              "display": "Platelet distribution width [Entitic volume] in Blood by Automated count"
            }
          ],
          "text": "Platelet distribution width [Entitic volume] in Blood by Automated count"
        },
        "valueQuantity": {
          "system": "http://unitsofmeasure.org",
          "value": 259.5,
          "unit": "fL",
          "code": "fL"
        },
        "referenceRange": [
          {
            "low": {
              "value": 13.4,
              "code": "fL",
              "system": "http://unitsofmeasure.org"
            }
          },
          {
            "high": {
              "value": 17.4,
              "code": "fL",
              "system": "http://unitsofmeasure.org"
            }
          }
        ],
        "interpretation": [
          {
            "coding": [
              {
                "code": "H",
                "system": "http://terminology.hl7.org/CodeSystem/v3-ObservationInterpretation",
                "display": "High"
              }
            ]
          }
        ],
        "text": {
          "status": "generated",
          "div": "<div xmlns=\"http://www.w3.org/1999/xhtml\"><table class=\"hl7__eu__lab__report\"><tr><th>Test</th><th>19-Jul-2018</th><th>Reference&#xA0;Range</th><th>Unit</th></tr><tr><td>Platelet distribution width [Entitic volume] in Blood by Automated count</td><td>259.5</td><td>13.4 - 17.4</td><td>H</td><td>fL</td></tr></table></div>"
        },
        "status": "final",
        "subject": {
          "reference": "urn:uuid:990c4eb5-c683-43bf-a57a-a7e559fd13e2",
          "display": "Alberto Manrique"
        },
        "effectiveDateTime": "2018-07-19T10:32:27Z",
        "specimen": {
          "reference": "urn:uuid:a41c0a2f-07bf-41bc-a5f7-53dde0f562e5"
        }
      }
    },
    {
      "fullUrl": "urn:uuid:01d049ab-ebe6-4bfe-8f87-09f0e8254a32",
      "resource": {
        "resourceType": "Observation",
        "id": "01d049ab-ebe6-4bfe-8f87-09f0e8254a32",
        "meta": {
          "profile": [
            "http://hl7.eu/fhir/laboratory/StructureDefinition/Observation-resultslab-eu-lab"
          ]
        },
        "performer": [
          {
            "display": "The Central European Lab"
          }
        ],
        "category": [
          {
            "coding": [
              {
                "system": "http://terminology.hl7.org/CodeSystem/observation-category",
                "code": "laboratory"
              }
            ]
          }
        ],
        "code": {
          "coding": [
            {
              "code": "32623-1",
              "system": "http://loinc.org",
              "display": "Platelet mean volume [Entitic volume] in Blood by Automated count"
            }
          ],
          "text": "Platelet mean volume [Entitic volume] in Blood by Automated count"
        },
        "valueQuantity": {
          "system": "http://unitsofmeasure.org",
          "value": 11.7,
          "unit": "fL",
          "code": "fL"
        },
        "referenceRange": [
          {
            "low": {
              "value": 7.2,
              "code": "fL",
              "system": "http://unitsofmeasure.org"
            }
          },
          {
            "high": {
              "value": 13.8,
              "code": "fL",
              "system": "http://unitsofmeasure.org"
            }
          }
        ],
        "text": {
          "status": "generated",
          "div": "<div xmlns=\"http://www.w3.org/1999/xhtml\"><table class=\"hl7__eu__lab__report\"><tr><th>Test</th><th>19-Jul-2018</th><th>Reference&#xA0;Range</th><th>Unit</th></tr><tr><td>Platelet mean volume [Entitic volume] in Blood by Automated count</td><td>11.7</td><td>7.2 - 13.8</td><td></td><td>fL</td></tr></table></div>"
        },
        "status": "final",
        "subject": {
          "reference": "urn:uuid:990c4eb5-c683-43bf-a57a-a7e559fd13e2",
          "display": "Alberto Manrique"
        },
        "effectiveDateTime": "2018-07-19T10:32:27Z",
        "specimen": {
          "reference": "urn:uuid:a41c0a2f-07bf-41bc-a5f7-53dde0f562e5"
        }
      }
    },
    {
      "fullUrl": "urn:uuid:6c1106df-a599-48cc-ae3c-68a4bc2a9bbb",
      "resource": {
        "resourceType": "Device",
        "id": "6c1106df-a599-48cc-ae3c-68a4bc2a9bbb",
        "deviceName": [
          {
            "name": "SYNDERAI Synthetic Generator",
            "type": "manufacturer-name"
          }
        ],
        "version": [
          {
            "value": "5.0"
          }
        ],
        "text": {
          "status": "generated",
          "div": "<div xmlns=\"http://www.w3.org/1999/xhtml\">SYNDERAI Synthetic Generator v5.0</div>"
        },
        "status": "active\"",
        "distinctIdentifier": "synderai-generator-50",
        "manufacturer": "SYNDERAI Project"
      }
    },
    {
      "fullUrl": "urn:uuid:c812b166-66ce-4509-a41f-7f66a0a81e11",
      "resource": {
        "resourceType": "Provenance",
        "id": "c812b166-66ce-4509-a41f-7f66a0a81e11",
        "target": [
          {
            "reference": "Patient/990c4eb5-c683-43bf-a57a-a7e559fd13e2"
          },
          {
            "reference": "Bundle/7623cceb-b788-41b2-ac76-581d4435e3f9"
          },
          {
            "reference": "Composition/0e3167b5-bbae-4689-8ca6-46b2e10c6953"
          },
          {
            "reference": "PractitionerRole/6d383040-300f-4493-82f3-0d490371062d"
          },
          {
            "reference": "Practitioner/1a3bbcb5-20e3-4869-813d-a8b1279115fa"
          },
          {
            "reference": "PractitionerRole/1e6ffeb4-76ff-4dc5-b06d-96d0c0f11eeb"
          },
          {
            "reference": "Organization/910eac4c-191d-47b0-964f-8567c6450e1e"
          }
        ],
        "activity": {
          "text": "Synthetic Example Data Generation"
        },
        "policy": [
          "https://synderai.net/synderai-synthetic-data-policy"
        ],
        "agent": [
          {
            "type": {
              "text": "author"
            },
            "who": {
              "reference": "Device/6c1106df-a599-48cc-ae3c-68a4bc2a9bbb"
            }
          }
        ],
        "reason": [
          {
            "text": "Interoperability Testing and Training (non-clinical use)"
          }
        ],
        "text": {
          "status": "generated",
          "div": "<div xmlns=\"http://www.w3.org/1999/xhtml\">Provenance for SYNDERAI Synthetic Example Data Resource</div>"
        },
        "recorded": "2018-07-19T12:32:27Z"
      }
    },
    {
      "fullUrl": "urn:uuid:6d383040-300f-4493-82f3-0d490371062d",
      "resource": {
        "resourceType": "PractitionerRole",
        "id": "6d383040-300f-4493-82f3-0d490371062d",
        "meta": {
          "profile": [
            "http://hl7.eu/fhir/base/StructureDefinition/practitionerRole-eu"
          ]
        },
        "text": {
          "status": "generated",
          "div": "<div xmlns=\"http://www.w3.org/1999/xhtml\">Laboratory Role Id: 6d383040-300f-4493-82f3-0d490371062d</div>"
        },
        "practitioner": {
          "reference": "urn:uuid:1a3bbcb5-20e3-4869-813d-a8b1279115fa"
        }
      }
    },
    {
      "fullUrl": "urn:uuid:1a3bbcb5-20e3-4869-813d-a8b1279115fa",
      "resource": {
        "resourceType": "Practitioner",
        "id": "1a3bbcb5-20e3-4869-813d-a8b1279115fa",
        "meta": {
          "profile": [
            "http://hl7.eu/fhir/base/StructureDefinition/practitioner-eu"
          ]
        },
        "identifier": [
          {
            "assigner": {
              "display": "HL7 Europe"
            },
            "system": "urn:oid:2.16.840.1.113883.2.51.999",
            "value": "1735ccf7-086a-4cb5-bb35-69c6e9841eee"
          }
        ],
        "name": [
          {
            "prefix": [
              "dr"
            ],
            "given": [
              "Ex"
            ],
            "family": "Ample"
          }
        ],
        "address": [
          {
            "line": [
              "Laboratoire Central Européenne",
              "Boulevard du Jardin Botanique 32"
            ],
            "postalCode": "1000",
            "city": "Brussels",
            "country": "Belgium"
          }
        ],
        "text": {
          "status": "generated",
          "div": "<div xmlns=\"http://www.w3.org/1999/xhtml\">Laboratory: Laboratoire Central Européenne, 1000 Brussels, Belgium</div>"
        }
      }
    }
  ],
  "type": "document",
  "timestamp": "2018-07-19T12:32:27Z"
}
