{
  "resourceType": "Bundle",
  "id": "841d9331-6db1-4210-ad53-f998ffbaa4e2",
  "meta": {
    "profile": [
      "http://hl7.eu/fhir/laboratory/StructureDefinition/Bundle-eu-lab"
    ]
  },
  "identifier": {
    "assigner": {
      "display": "HL7 Europe"
    },
    "system": "urn:oid:2.16.840.1.113883.2.51.999",
    "value": "0ae94cd5-43de-4c38-9bbf-d2ff0e5c4cf7"
  },
  "entry": [
    {
      "fullUrl": "urn:uuid:1d1c151c-585c-4521-a460-75ee718615cd",
      "resource": {
        "resourceType": "Composition",
        "id": "1d1c151c-585c-4521-a460-75ee718615cd",
        "meta": {
          "profile": [
            "http://hl7.eu/fhir/laboratory/StructureDefinition/Composition-eu-lab"
          ]
        },
        "identifier": {
          "assigner": {
            "display": "HL7 Europe"
          },
          "system": "urn:oid:2.16.840.1.113883.2.51.999",
          "value": "32fcef27-2c6f-4d1b-911e-b3a0a00516de"
        },
        "author": [
          {
            "reference": "urn:uuid:143f8fdf-3a75-4b18-b113-c1d7b6c133dc"
          }
        ],
        "category": [
          {
            "coding": [
              {
                "code": "26436-6",
                "system": "http://loinc.org",
                "display": "Laboratory studies (set)"
              }
            ]
          }
        ],
        "type": {
          "coding": [
            {
              "code": "11502-2",
              "system": "http://loinc.org",
              "display": "Laboratory report"
            }
          ],
          "text": "Laboratory Report"
        },
        "section": [
          {
            "code": {
              "coding": [
                {
                  "code": "26436-6",
                  "system": "http://loinc.org",
                  "display": "Laboratory studies (set)"
                }
              ],
              "text": "Laboratory studies"
            },
            "section": [
              {
                "code": {
                  "coding": [
                    {
                      "code": "$18719-5",
                      "system": "http://loinc.org",
                      "display": "Chemistry studies (set)"
                    }
                  ],
                  "text": "Chemistry"
                },
                "entry": [
                  {
                    "reference": "urn:uuid:8a7d07de-0690-4dbe-9434-cb7fb608273c"
                  },
                  {
                    "reference": "urn:uuid:5b6d9e3c-9d66-4b97-a935-67febfba8f35"
                  },
                  {
                    "reference": "urn:uuid:e5de1917-10c2-48de-9177-11bece292e55"
                  },
                  {
                    "reference": "urn:uuid:3793cce5-1581-4154-9f1f-0fc379887288"
                  },
                  {
                    "reference": "urn:uuid:c219d545-da64-4779-a94b-02dfd5517d43"
                  },
                  {
                    "reference": "urn:uuid:49a1554f-a30a-4b4d-8667-9ceefca49b3a"
                  },
                  {
                    "reference": "urn:uuid:e3842211-70ec-45ec-ad29-63502383d4de"
                  },
                  {
                    "reference": "urn:uuid:f4cd3938-280c-45a3-82b4-de03a5ac1ab7"
                  },
                  {
                    "reference": "urn:uuid:5a1b9738-6f2e-48db-b3aa-7843beeaf614"
                  },
                  {
                    "reference": "urn:uuid:d6ebb2dc-fe16-4585-854d-0a1919db208b"
                  },
                  {
                    "reference": "urn:uuid:16b46259-5629-4a48-abd4-75f71537a1b4"
                  },
                  {
                    "reference": "urn:uuid:27fd1c25-1baa-4f17-b96f-37d72219420d"
                  },
                  {
                    "reference": "urn:uuid:5165ad36-705a-4beb-96ed-1466a036783b"
                  },
                  {
                    "reference": "urn:uuid:a760869d-503d-410e-b225-024fc4959308"
                  },
                  {
                    "reference": "urn:uuid:b43cc0b4-88a1-4257-bb89-fd18731444ea"
                  },
                  {
                    "reference": "urn:uuid:39ee8b37-43cc-43be-884f-51410f31f9cb"
                  },
                  {
                    "reference": "urn:uuid:875c0a9f-4e7f-4425-88e0-fa088f9e3f68"
                  },
                  {
                    "reference": "urn:uuid:8899eac9-06a4-4a2f-b187-141720fce477"
                  }
                ],
                "text": {
                  "status": "generated",
                  "div": "<div xmlns=\"http://www.w3.org/1999/xhtml\"><h3>Chemistry</h3><table class=\"hl7__eu__lab__report\"><thead><tr><th>Test</th><th>11-JUL-2019</th><th>Reference&#xA0;Range</th><th>Unit</th></tr></thead><tbody><tr><td>Glucose [Mass/volume] in Serum or Plasma</td><td>70.1</td><td>70 - 139</td><td>mg/dL</td></tr><tr><td>Urea nitrogen [Mass/volume] in Serum or Plasma</td><td>8.0</td><td>7 - 20</td><td>mg/dL</td></tr><tr><td>Creatinine [Mass/volume] in Serum or Plasma</td><td><strong>1.8 H</strong></td><td>0.6 - 1.1</td><td>mg/dL</td></tr><tr><td>Calcium [Mass/volume] in Serum or Plasma</td><td>8.6</td><td>8.5 - 10.4</td><td>mg/dL</td></tr><tr><td>Sodium [Moles/volume] in Serum or Plasma</td><td>141.3</td><td>135 - 145</td><td>mmol/L</td></tr><tr><td>Potassium [Moles/volume] in Serum or Plasma</td><td>5.0</td><td>3.5 - 5.1</td><td>mmol/L</td></tr><tr><td>Chloride [Moles/volume] in Serum or Plasma</td><td>104.8</td><td>98 - 110</td><td>mmol/L</td></tr><tr><td>Carbon dioxide, total [Moles/volume] in Serum or Plasma</td><td>23.4</td><td>22 - 32</td><td>mmol/L</td></tr><tr><td>Ketones [Presence] in Urine by Test strip</td><td>Urine ketone test = +</td><td></td><td></td></tr><tr><td>Hemoglobin A1c/Hemoglobin.total in Blood</td><td><strong>3.2 L</strong></td><td>4 - 6</td><td>%</td></tr><tr><td>Glucose [Mass/volume] in Blood</td><td>70.1</td><td>70 - 100</td><td>mg/dL</td></tr><tr><td>Urea nitrogen [Mass/volume] in Blood</td><td>8.0</td><td>7 - 20</td><td>mg/dL</td></tr><tr><td>Creatinine [Mass/volume] in Blood</td><td><strong>1.8 H</strong></td><td>0.6 - 1.3</td><td>mg/dL</td></tr><tr><td>Calcium [Mass/volume] in Blood</td><td>8.6</td><td>8.6 - 10.4</td><td>mg/dL</td></tr><tr><td>Sodium [Moles/volume] in Blood</td><td>141.3</td><td>135 - 145</td><td>mmol/L</td></tr><tr><td>Potassium [Moles/volume] in Blood</td><td>5.0</td><td>3.5 - 5.1</td><td>mmol/L</td></tr><tr><td>Chloride [Moles/volume] in Blood</td><td>104.8</td><td>98 - 110</td><td>mmol/L</td></tr><tr><td>Carbon dioxide, total [Moles/volume] in Blood</td><td>23.4</td><td>22 - 29</td><td>mmol/L</td></tr></tbody></table></div>"
                },
                "title": "Chemistry"
              },
              {
                "code": {
                  "coding": [
                    {
                      "code": "$18729-4",
                      "system": "http://loinc.org",
                      "display": "Urinalysis studies (set)"
                    }
                  ],
                  "text": "Urinalysis"
                },
                "entry": [
                  {
                    "reference": "urn:uuid:4f1b3db5-6b09-4c73-81f9-7490cfbf0be3"
                  },
                  {
                    "reference": "urn:uuid:708a25cc-d759-480d-b835-a5ab48c6d19e"
                  },
                  {
                    "reference": "urn:uuid:aae2f458-5827-48bd-8e1d-fdb73127d28c"
                  },
                  {
                    "reference": "urn:uuid:792ad88a-7017-45f6-a073-5e7dc17ada09"
                  },
                  {
                    "reference": "urn:uuid:90f554cc-4670-46f2-96d4-b10f4a55224e"
                  },
                  {
                    "reference": "urn:uuid:0acbb9c8-19b4-4001-89c8-164aa32d4a1a"
                  },
                  {
                    "reference": "urn:uuid:53ba64b2-9c0b-41f1-a6e5-2df14a07a573"
                  },
                  {
                    "reference": "urn:uuid:8b04d149-f387-4f9d-be6b-e939c2838478"
                  },
                  {
                    "reference": "urn:uuid:7c9e48f0-ebfb-44fd-8cfe-d33890371ed6"
                  },
                  {
                    "reference": "urn:uuid:5318b192-5a9d-47dd-8634-f082ecf07857"
                  },
                  {
                    "reference": "urn:uuid:cbed55e2-6474-4ef3-8f8e-7a56dbbdc99c"
                  },
                  {
                    "reference": "urn:uuid:80eecae7-7abb-4fcd-9b72-714ba22919d3"
                  }
                ],
                "text": {
                  "status": "generated",
                  "div": "<div xmlns=\"http://www.w3.org/1999/xhtml\"><h3>Urinalysis</h3><table class=\"hl7__eu__lab__report\"><thead><tr><th>Test</th><th>11-JUL-2019</th><th>Reference&#xA0;Range</th><th>Unit</th></tr></thead><tbody><tr><td>Glucose [Mass/volume] in Urine by Test strip</td><td><strong>2.5 H</strong></td><td>0 - 0</td><td>mg/dL</td></tr><tr><td>Glucose [Presence] in Urine by Test strip</td><td>++</td><td></td><td></td></tr><tr><td>Bilirubin.total [Mass/volume] in Urine by Test strip</td><td>0.6</td><td>0 - 1.6</td><td>mg/dL</td></tr><tr><td>Bilirubin.total [Presence] in Urine by Test strip</td><td>Finding of bilirubin in urine</td><td></td><td></td></tr><tr><td>Ketones [Mass/volume] in Urine by Test strip</td><td><strong>17.4 H</strong></td><td>0 - 0.5</td><td>mg/dL</td></tr><tr><td>Specific gravity of Urine by Test strip</td><td><strong>1.0 L</strong></td><td>1.005 - 1.03</td><td>{nominal}</td></tr><tr><td>pH of Urine by Test strip</td><td>7.0</td><td>4.5 - 7.5</td><td>pH</td></tr><tr><td>Protein [Mass/volume] in Urine by Test strip</td><td><strong>229.4 H</strong></td><td>0 - 15</td><td>mg/dL</td></tr><tr><td>Protein [Presence] in Urine by Test strip</td><td>Urine protein test = ++</td><td></td><td></td></tr><tr><td>Nitrite [Presence] in Urine by Test strip</td><td>Urine nitrite negative</td><td></td><td></td></tr><tr><td>Hemoglobin [Presence] in Urine by Test strip</td><td>Urine blood test = negative</td><td></td><td></td></tr><tr><td>Leukocyte esterase [Presence] in Urine by Test strip</td><td>Urine leukocyte test negative</td><td></td><td></td></tr></tbody></table></div>"
                },
                "title": "Urinalysis"
              },
              {
                "code": {
                  "coding": [
                    {
                      "code": "$LP7846-1",
                      "system": "http://loinc.org",
                      "display": "Specimen information"
                    }
                  ],
                  "text": "Specimen information"
                },
                "entry": [
                  {
                    "reference": "urn:uuid:10d1493f-86d0-4f5d-aaa9-137f21ec6055"
                  },
                  {
                    "reference": "urn:uuid:9652f372-d161-4bb4-a2b5-50e01acf47c4"
                  },
                  {
                    "reference": "urn:uuid:5073d624-43d1-4ee8-9f90-44171ab02ea1"
                  },
                  {
                    "reference": "urn:uuid:600f25ea-bea4-49a4-8f85-3843a921e0ce"
                  }
                ],
                "text": {
                  "status": "generated",
                  "div": "<div xmlns=\"http://www.w3.org/1999/xhtml\"><h3>Specimen information</h3><table class=\"hl7__eu__lab__report\"><thead><tr><th>Test</th><th>11-JUL-2019</th><th>Specimen</th><th></th></tr></thead><tbody><tr><td>Appearance of Urine</td><td>Cloudy urine</td><td>Urine</td><td></td></tr><tr><td>Odor of Urine</td><td>Urine smell ammoniacal</td><td>Urine</td><td></td></tr><tr><td>Clarity of Urine</td><td>Translucent</td><td>Urine</td><td></td></tr><tr><td>Color of Urine</td><td>Brown color</td><td>Urine</td><td></td></tr></tbody></table></div>"
                },
                "title": "Specimen information"
              }
            ],
            "title": "Laboratory Report"
          },
          {
            "text": {
              "status": "generated",
              "div": "<div xmlns=\"http://www.w3.org/1999/xhtml\"><h3>Annotation</h3><table class=\"hl7__eu__lab__report\"><tr><th>Conclusion and Recommendations based on this report and previous findings known to us</th></tr><tr><td>The patient shows elevated creatinine, significant proteinuria, glycosuria, and ketonuria, with low urine specific gravity and abnormal urine appearance (cloudy, brown, ammoniacal). Blood glucose and HbA1c are low-normal. These findings suggest impaired renal function, likely nephrotic-range proteinuria, and possible tubular dysfunction. No evidence of urinary tract infection. Further nephrological evaluation is recommended.</td></tr></table></div>"
            },
            "code": {
              "coding": [
                {
                  "system": "http://loinc.org",
                  "code": "48767-8",
                  "display": "Annotation comment"
                }
              ]
            },
            "title": "Annotation comment"
          }
        ],
        "status": "final",
        "subject": {
          "reference": "urn:uuid:88d06c3b-e5a4-4d77-b949-0ca2238db3f1",
          "display": "Molly Jenkins"
        },
        "date": "2019-07-11T16:42:11Z",
        "title": "Laboratory Report",
        "confidentiality": "N"
      }
    },
    {
      "fullUrl": "urn:uuid:7b33d0b0-a94e-4e18-a262-07c272395810",
      "resource": {
        "resourceType": "DiagnosticReport",
        "id": "7b33d0b0-a94e-4e18-a262-07c272395810",
        "meta": {
          "profile": [
            "http://hl7.eu/fhir/laboratory/StructureDefinition/DiagnosticReport-eu-lab"
          ]
        },
        "identifier": [
          {
            "assigner": {
              "display": "HL7 Europe"
            },
            "system": "urn:oid:2.16.840.1.113883.2.51.999",
            "value": "852d5a2d-5d4d-4bab-a39f-239c98bc3054"
          }
        ],
        "extension": [
          {
            "url": "http://hl7.org/fhir/5.0/StructureDefinition/extension-DiagnosticReport.composition",
            "valueReference": {
              "reference": "urn:uuid:32fcef27-2c6f-4d1b-911e-b3a0a00516de"
            }
          }
        ],
        "category": [
          {
            "coding": [
              {
                "code": "26436-6",
                "system": "http://loinc.org",
                "display": "Laboratory studies (set)"
              }
            ]
          }
        ],
        "specimen": [
          {
            "reference": "urn:uuid:d0c827a6-79fc-4d7b-a42c-53826ced27ab"
          },
          {
            "reference": "urn:uuid:a0be7778-edbd-450a-997f-3ded9fd4ac61"
          },
          {
            "reference": "urn:uuid:5ab25437-d7b4-4021-b2bd-ec86e3640759"
          }
        ],
        "result": [
          {
            "reference": "urn:uuid:8a7d07de-0690-4dbe-9434-cb7fb608273c"
          },
          {
            "reference": "urn:uuid:5b6d9e3c-9d66-4b97-a935-67febfba8f35"
          },
          {
            "reference": "urn:uuid:e5de1917-10c2-48de-9177-11bece292e55"
          },
          {
            "reference": "urn:uuid:3793cce5-1581-4154-9f1f-0fc379887288"
          },
          {
            "reference": "urn:uuid:c219d545-da64-4779-a94b-02dfd5517d43"
          },
          {
            "reference": "urn:uuid:49a1554f-a30a-4b4d-8667-9ceefca49b3a"
          },
          {
            "reference": "urn:uuid:e3842211-70ec-45ec-ad29-63502383d4de"
          },
          {
            "reference": "urn:uuid:f4cd3938-280c-45a3-82b4-de03a5ac1ab7"
          },
          {
            "reference": "urn:uuid:10d1493f-86d0-4f5d-aaa9-137f21ec6055"
          },
          {
            "reference": "urn:uuid:9652f372-d161-4bb4-a2b5-50e01acf47c4"
          },
          {
            "reference": "urn:uuid:5073d624-43d1-4ee8-9f90-44171ab02ea1"
          },
          {
            "reference": "urn:uuid:600f25ea-bea4-49a4-8f85-3843a921e0ce"
          },
          {
            "reference": "urn:uuid:4f1b3db5-6b09-4c73-81f9-7490cfbf0be3"
          },
          {
            "reference": "urn:uuid:708a25cc-d759-480d-b835-a5ab48c6d19e"
          },
          {
            "reference": "urn:uuid:aae2f458-5827-48bd-8e1d-fdb73127d28c"
          },
          {
            "reference": "urn:uuid:792ad88a-7017-45f6-a073-5e7dc17ada09"
          },
          {
            "reference": "urn:uuid:90f554cc-4670-46f2-96d4-b10f4a55224e"
          },
          {
            "reference": "urn:uuid:5a1b9738-6f2e-48db-b3aa-7843beeaf614"
          },
          {
            "reference": "urn:uuid:0acbb9c8-19b4-4001-89c8-164aa32d4a1a"
          },
          {
            "reference": "urn:uuid:53ba64b2-9c0b-41f1-a6e5-2df14a07a573"
          },
          {
            "reference": "urn:uuid:8b04d149-f387-4f9d-be6b-e939c2838478"
          },
          {
            "reference": "urn:uuid:7c9e48f0-ebfb-44fd-8cfe-d33890371ed6"
          },
          {
            "reference": "urn:uuid:5318b192-5a9d-47dd-8634-f082ecf07857"
          },
          {
            "reference": "urn:uuid:cbed55e2-6474-4ef3-8f8e-7a56dbbdc99c"
          },
          {
            "reference": "urn:uuid:80eecae7-7abb-4fcd-9b72-714ba22919d3"
          },
          {
            "reference": "urn:uuid:d6ebb2dc-fe16-4585-854d-0a1919db208b"
          },
          {
            "reference": "urn:uuid:16b46259-5629-4a48-abd4-75f71537a1b4"
          },
          {
            "reference": "urn:uuid:27fd1c25-1baa-4f17-b96f-37d72219420d"
          },
          {
            "reference": "urn:uuid:5165ad36-705a-4beb-96ed-1466a036783b"
          },
          {
            "reference": "urn:uuid:a760869d-503d-410e-b225-024fc4959308"
          },
          {
            "reference": "urn:uuid:b43cc0b4-88a1-4257-bb89-fd18731444ea"
          },
          {
            "reference": "urn:uuid:39ee8b37-43cc-43be-884f-51410f31f9cb"
          },
          {
            "reference": "urn:uuid:875c0a9f-4e7f-4425-88e0-fa088f9e3f68"
          },
          {
            "reference": "urn:uuid:8899eac9-06a4-4a2f-b187-141720fce477"
          }
        ],
        "status": "registered",
        "code": {
          "coding": [
            {
              "code": "11502-2",
              "system": "http://loinc.org",
              "display": "Laboratory report"
            }
          ]
        },
        "subject": {
          "reference": "urn:uuid:88d06c3b-e5a4-4d77-b949-0ca2238db3f1",
          "display": "Molly Jenkins"
        }
      }
    },
    {
      "fullUrl": "urn:uuid:88d06c3b-e5a4-4d77-b949-0ca2238db3f1",
      "resource": {
        "resourceType": "Patient",
        "id": "88d06c3b-e5a4-4d77-b949-0ca2238db3f1",
        "meta": {
          "security": [
            {
              "system": "http://terminology.hl7.org/CodeSystem/v3-ActReason",
              "code": "HTEST"
            },
            {
              "system": "http://terminology.hl7.org/CodeSystem/v3-ActReason",
              "code": "TRAIN"
            }
          ],
          "tag": [
            {
              "system": "https://synderai.net/fhir/CodeSystem/tags",
              "code": "synthetic",
              "display": "SYNDERAI Synthetic data"
            }
          ],
          "profile": [
            "http://hl7.eu/fhir/base/StructureDefinition/patient-eu-core"
          ]
        },
        "identifier": [
          {
            "type": {
              "coding": [
                {
                  "code": "PT",
                  "system": "http://terminology.hl7.org/CodeSystem/v2-0203"
                }
              ]
            },
            "system": "http://ec.europa.eu/identifier/eci",
            "value": "7634-012682-0"
          },
          {
            "type": {
              "coding": [
                {
                  "code": "MR",
                  "system": "http://terminology.hl7.org/CodeSystem/v2-0203"
                }
              ]
            },
            "system": "http://local.setting.eu/identifier",
            "value": "9934a8eb-b6e1-34e1-edf5-57a0262d1bea"
          }
        ],
        "name": [
          {
            "family": "Jenkins"
          },
          {
            "given": [
              "Molly"
            ]
          },
          {
            "text": "Molly Jenkins"
          }
        ],
        "address": [
          {
            "line": [
              "98 Ali field"
            ],
            "use": "home",
            "type": "physical",
            "postalCode": "AB42",
            "city": "Port Jennamouth",
            "country": "United Kingdom"
          }
        ],
        "telecom": [
          {
            "system": "phone",
            "value": "(0118) 496 0334"
          }
        ],
        "extension": [
          {
            "url": "http://hl7.org/fhir/StructureDefinition/patient-nationality",
            "valueCodeableConcept": {
              "coding": [
                {
                  "code": "GB",
                  "system": "http://hl7.org/fhir/ValueSet/country"
                }
              ]
            }
          }
        ],
        "text": {
          "status": "generated",
          "div": "<div xmlns=\"http://www.w3.org/1999/xhtml\"><table class=\"hl7__ips\"><tr><td>Molly Jenkins</td><td>female</td><td>14-Aug-1967</td></tr></table></div>"
        },
        "gender": "female",
        "birthDate": "1967-08-14"
      }
    },
    {
      "fullUrl": "urn:uuid:8992ab1e-59e8-484d-9cdb-eb51aab70fbc",
      "resource": {
        "resourceType": "ServiceRequest",
        "id": "8992ab1e-59e8-484d-9cdb-eb51aab70fbc",
        "meta": {
          "profile": [
            "http://hl7.eu/fhir/laboratory/StructureDefinition/ServiceRequest-eu-lab"
          ]
        },
        "identifier": [
          {
            "system": "http://example.org",
            "value": "ce021edd-de69-48ef-ab62-710e7a0da4ae"
          }
        ],
        "specimen": [
          {
            "reference": "urn:uuid:d0c827a6-79fc-4d7b-a42c-53826ced27ab"
          },
          {
            "reference": "urn:uuid:a0be7778-edbd-450a-997f-3ded9fd4ac61"
          },
          {
            "reference": "urn:uuid:5ab25437-d7b4-4021-b2bd-ec86e3640759"
          }
        ],
        "reasonCode": [
          {
            "coding": [
              {
                "code": "431856006",
                "system": "http://snomed.info/sct",
                "display": "Chronic kidney disease stage 2"
              }
            ]
          },
          {
            "coding": [
              {
                "code": "90781000119102",
                "system": "http://snomed.info/sct",
                "display": "Microalbuminuria due to type 2 diabetes mellitus"
              }
            ]
          },
          {
            "coding": [
              {
                "code": "127013003",
                "system": "http://snomed.info/sct",
                "display": "Disorder of kidney due to diabetes mellitus"
              }
            ]
          },
          {
            "coding": [
              {
                "code": "431855005",
                "system": "http://snomed.info/sct",
                "display": "Chronic kidney disease stage 1"
              }
            ]
          },
          {
            "coding": [
              {
                "code": "15777000",
                "system": "http://snomed.info/sct",
                "display": "Prediabetes"
              }
            ]
          },
          {
            "coding": [
              {
                "code": "59621000",
                "system": "http://snomed.info/sct",
                "display": "Essential hypertension"
              }
            ]
          },
          {
            "coding": [
              {
                "code": "53827007",
                "system": "http://snomed.info/sct",
                "display": "Excessive salivation"
              }
            ]
          },
          {
            "coding": [
              {
                "code": "64859006",
                "system": "http://snomed.info/sct",
                "display": "Osteoporosis"
              }
            ]
          },
          {
            "coding": [
              {
                "code": "128188000",
                "system": "http://snomed.info/sct",
                "display": "Cerebral palsy"
              }
            ]
          },
          {
            "coding": [
              {
                "code": "235595009",
                "system": "http://snomed.info/sct",
                "display": "Gastroesophageal reflux disease"
              }
            ]
          }
        ],
        "status": "active",
        "intent": "order",
        "code": {
          "coding": [
            {
              "code": "108252007",
              "system": "http://snomed.info/sct",
              "display": "Laboratory procedure"
            }
          ]
        },
        "subject": {
          "reference": "urn:uuid:88d06c3b-e5a4-4d77-b949-0ca2238db3f1",
          "display": "Molly Jenkins"
        },
        "requester": {
          "reference": "urn:uuid:fa185095-4236-4a37-ad38-3f41291baa36"
        }
      }
    },
    {
      "fullUrl": "urn:uuid:fa185095-4236-4a37-ad38-3f41291baa36",
      "resource": {
        "resourceType": "PractitionerRole",
        "id": "fa185095-4236-4a37-ad38-3f41291baa36",
        "meta": {
          "profile": [
            "http://hl7.eu/fhir/base/StructureDefinition/practitionerRole-eu"
          ]
        },
        "text": {
          "status": "generated",
          "div": "<div xmlns=\"http://www.w3.org/1999/xhtml\">Provider Role Id: fa185095-4236-4a37-ad38-3f41291baa36</div>"
        },
        "organization": {
          "reference": "urn:uuid:3d8c4933-9b58-4be2-a2ec-57a85cba375d"
        }
      }
    },
    {
      "fullUrl": "urn:uuid:3d8c4933-9b58-4be2-a2ec-57a85cba375d",
      "resource": {
        "resourceType": "Organization",
        "id": "3d8c4933-9b58-4be2-a2ec-57a85cba375d",
        "meta": {
          "profile": [
            "http://hl7.eu/fhir/base/StructureDefinition/organization-eu"
          ]
        },
        "identifier": [
          {
            "assigner": {
              "display": "HL7 Europe"
            },
            "system": "urn:oid:2.16.840.1.113883.2.51.999",
            "value": "61d0ddb0-4878-4fd5-99d5-563db4fb9f94"
          }
        ],
        "address": [
          {
            "city": "Aberdeen",
            "postalCode": "AB11 6",
            "country": "United Kingdom"
          }
        ],
        "text": {
          "status": "generated",
          "div": "<div xmlns=\"http://www.w3.org/1999/xhtml\">Provider Organization: Aberdeen Community Health and Care Village</div>"
        },
        "name": "Aberdeen Community Health and Care Village"
      }
    },
    {
      "fullUrl": "urn:uuid:d0c827a6-79fc-4d7b-a42c-53826ced27ab",
      "resource": {
        "resourceType": "Specimen",
        "id": "d0c827a6-79fc-4d7b-a42c-53826ced27ab",
        "meta": {
          "profile": [
            "http://hl7.eu/fhir/laboratory/StructureDefinition/Specimen-eu-lab"
          ]
        },
        "collection": {
          "collectedDateTime": "2019-07-11"
        },
        "text": {
          "status": "generated",
          "div": "<div xmlns=\"http://www.w3.org/1999/xhtml\"><table class=\"hl7__eu__lab__report\"><tr><th>Specimen</th><th>Collection Date</th></tr><tr><td>Acellular blood (serum or plasma) specimen</td><td><span class=\"nb\">11-Jul-2019</span></td></tr></table></div>"
        },
        "type": {
          "coding": [
            {
              "code": "122592007",
              "system": "http://snomed.info/sct",
              "display": "Acellular blood (serum or plasma) specimen"
            }
          ]
        }
      }
    },
    {
      "fullUrl": "urn:uuid:a0be7778-edbd-450a-997f-3ded9fd4ac61",
      "resource": {
        "resourceType": "Specimen",
        "id": "a0be7778-edbd-450a-997f-3ded9fd4ac61",
        "meta": {
          "profile": [
            "http://hl7.eu/fhir/laboratory/StructureDefinition/Specimen-eu-lab"
          ]
        },
        "collection": {
          "collectedDateTime": "2019-07-11"
        },
        "text": {
          "status": "generated",
          "div": "<div xmlns=\"http://www.w3.org/1999/xhtml\"><table class=\"hl7__eu__lab__report\"><tr><th>Specimen</th><th>Collection Date</th></tr><tr><td>Urine specimen</td><td><span class=\"nb\">11-Jul-2019</span></td></tr></table></div>"
        },
        "type": {
          "coding": [
            {
              "code": "122575003",
              "system": "http://snomed.info/sct",
              "display": "Urine specimen"
            }
          ]
        }
      }
    },
    {
      "fullUrl": "urn:uuid:5ab25437-d7b4-4021-b2bd-ec86e3640759",
      "resource": {
        "resourceType": "Specimen",
        "id": "5ab25437-d7b4-4021-b2bd-ec86e3640759",
        "meta": {
          "profile": [
            "http://hl7.eu/fhir/laboratory/StructureDefinition/Specimen-eu-lab"
          ]
        },
        "collection": {
          "collectedDateTime": "2019-07-11"
        },
        "text": {
          "status": "generated",
          "div": "<div xmlns=\"http://www.w3.org/1999/xhtml\"><table class=\"hl7__eu__lab__report\"><tr><th>Specimen</th><th>Collection Date</th></tr><tr><td>Whole blood specimen (specimen)</td><td><span class=\"nb\">11-Jul-2019</span></td></tr></table></div>"
        },
        "type": {
          "coding": [
            {
              "code": "258580003",
              "system": "http://snomed.info/sct",
              "display": "Whole blood specimen (specimen)"
            }
          ]
        }
      }
    },
    {
      "fullUrl": "urn:uuid:8a7d07de-0690-4dbe-9434-cb7fb608273c",
      "resource": {
        "resourceType": "Observation",
        "id": "8a7d07de-0690-4dbe-9434-cb7fb608273c",
        "meta": {
          "profile": [
            "http://hl7.eu/fhir/laboratory/StructureDefinition/Observation-resultslab-eu-lab"
          ]
        },
        "performer": [
          {
            "display": "The Central European Lab"
          }
        ],
        "category": [
          {
            "coding": [
              {
                "system": "http://terminology.hl7.org/CodeSystem/observation-category",
                "code": "laboratory"
              }
            ]
          }
        ],
        "code": {
          "coding": [
            {
              "code": "2345-7",
              "system": "http://loinc.org",
              "display": "Glucose [Mass/volume] in Serum or Plasma"
            }
          ],
          "text": "Glucose [Mass/volume] in Serum or Plasma"
        },
        "valueQuantity": {
          "system": "http://unitsofmeasure.org",
          "value": 70.1,
          "unit": "mg/dL",
          "code": "mg/dL"
        },
        "referenceRange": [
          {
            "low": {
              "value": 70,
              "code": "mg/dL",
              "system": "http://unitsofmeasure.org"
            }
          },
          {
            "high": {
              "value": 139,
              "code": "mg/dL",
              "system": "http://unitsofmeasure.org"
            }
          }
        ],
        "text": {
          "status": "generated",
          "div": "<div xmlns=\"http://www.w3.org/1999/xhtml\"><table class=\"hl7__eu__lab__report\"><tr><th>Test</th><th>11-Jul-2019</th><th>Reference&#xA0;Range</th><th>Unit</th></tr><tr><td>Glucose [Mass/volume] in Serum or Plasma</td><td>70.1</td><td>70 - 139</td><td></td><td>mg/dL</td></tr></table></div>"
        },
        "status": "final",
        "subject": {
          "reference": "urn:uuid:88d06c3b-e5a4-4d77-b949-0ca2238db3f1",
          "display": "Molly Jenkins"
        },
        "effectiveDateTime": "2019-07-11T14:42:11Z",
        "specimen": {
          "reference": "urn:uuid:d0c827a6-79fc-4d7b-a42c-53826ced27ab"
        }
      }
    },
    {
      "fullUrl": "urn:uuid:5b6d9e3c-9d66-4b97-a935-67febfba8f35",
      "resource": {
        "resourceType": "Observation",
        "id": "5b6d9e3c-9d66-4b97-a935-67febfba8f35",
        "meta": {
          "profile": [
            "http://hl7.eu/fhir/laboratory/StructureDefinition/Observation-resultslab-eu-lab"
          ]
        },
        "performer": [
          {
            "display": "The Central European Lab"
          }
        ],
        "category": [
          {
            "coding": [
              {
                "system": "http://terminology.hl7.org/CodeSystem/observation-category",
                "code": "laboratory"
              }
            ]
          }
        ],
        "code": {
          "coding": [
            {
              "code": "3094-0",
              "system": "http://loinc.org",
              "display": "Urea nitrogen [Mass/volume] in Serum or Plasma"
            }
          ],
          "text": "Urea nitrogen [Mass/volume] in Serum or Plasma"
        },
        "valueQuantity": {
          "system": "http://unitsofmeasure.org",
          "value": 8,
          "unit": "mg/dL",
          "code": "mg/dL"
        },
        "referenceRange": [
          {
            "low": {
              "value": 7,
              "code": "mg/dL",
              "system": "http://unitsofmeasure.org"
            }
          },
          {
            "high": {
              "value": 20,
              "code": "mg/dL",
              "system": "http://unitsofmeasure.org"
            }
          }
        ],
        "text": {
          "status": "generated",
          "div": "<div xmlns=\"http://www.w3.org/1999/xhtml\"><table class=\"hl7__eu__lab__report\"><tr><th>Test</th><th>11-Jul-2019</th><th>Reference&#xA0;Range</th><th>Unit</th></tr><tr><td>Urea nitrogen [Mass/volume] in Serum or Plasma</td><td>8.0</td><td>7 - 20</td><td></td><td>mg/dL</td></tr></table></div>"
        },
        "status": "final",
        "subject": {
          "reference": "urn:uuid:88d06c3b-e5a4-4d77-b949-0ca2238db3f1",
          "display": "Molly Jenkins"
        },
        "effectiveDateTime": "2019-07-11T14:42:11Z",
        "specimen": {
          "reference": "urn:uuid:d0c827a6-79fc-4d7b-a42c-53826ced27ab"
        }
      }
    },
    {
      "fullUrl": "urn:uuid:e5de1917-10c2-48de-9177-11bece292e55",
      "resource": {
        "resourceType": "Observation",
        "id": "e5de1917-10c2-48de-9177-11bece292e55",
        "meta": {
          "profile": [
            "http://hl7.eu/fhir/laboratory/StructureDefinition/Observation-resultslab-eu-lab"
          ]
        },
        "performer": [
          {
            "display": "The Central European Lab"
          }
        ],
        "category": [
          {
            "coding": [
              {
                "system": "http://terminology.hl7.org/CodeSystem/observation-category",
                "code": "laboratory"
              }
            ]
          }
        ],
        "code": {
          "coding": [
            {
              "code": "2160-0",
              "system": "http://loinc.org",
              "display": "Creatinine [Mass/volume] in Serum or Plasma"
            }
          ],
          "text": "Creatinine [Mass/volume] in Serum or Plasma"
        },
        "valueQuantity": {
          "system": "http://unitsofmeasure.org",
          "value": 1.8,
          "unit": "mg/dL",
          "code": "mg/dL"
        },
        "referenceRange": [
          {
            "low": {
              "value": 0.6,
              "code": "mg/dL",
              "system": "http://unitsofmeasure.org"
            }
          },
          {
            "high": {
              "value": 1.1,
              "code": "mg/dL",
              "system": "http://unitsofmeasure.org"
            }
          }
        ],
        "interpretation": [
          {
            "coding": [
              {
                "code": "H",
                "system": "http://terminology.hl7.org/CodeSystem/v3-ObservationInterpretation",
                "display": "High"
              }
            ]
          }
        ],
        "text": {
          "status": "generated",
          "div": "<div xmlns=\"http://www.w3.org/1999/xhtml\"><table class=\"hl7__eu__lab__report\"><tr><th>Test</th><th>11-Jul-2019</th><th>Reference&#xA0;Range</th><th>Unit</th></tr><tr><td>Creatinine [Mass/volume] in Serum or Plasma</td><td>1.8</td><td>0.6 - 1.1</td><td>H</td><td>mg/dL</td></tr></table></div>"
        },
        "status": "final",
        "subject": {
          "reference": "urn:uuid:88d06c3b-e5a4-4d77-b949-0ca2238db3f1",
          "display": "Molly Jenkins"
        },
        "effectiveDateTime": "2019-07-11T14:42:11Z",
        "specimen": {
          "reference": "urn:uuid:d0c827a6-79fc-4d7b-a42c-53826ced27ab"
        }
      }
    },
    {
      "fullUrl": "urn:uuid:3793cce5-1581-4154-9f1f-0fc379887288",
      "resource": {
        "resourceType": "Observation",
        "id": "3793cce5-1581-4154-9f1f-0fc379887288",
        "meta": {
          "profile": [
            "http://hl7.eu/fhir/laboratory/StructureDefinition/Observation-resultslab-eu-lab"
          ]
        },
        "performer": [
          {
            "display": "The Central European Lab"
          }
        ],
        "category": [
          {
            "coding": [
              {
                "system": "http://terminology.hl7.org/CodeSystem/observation-category",
                "code": "laboratory"
              }
            ]
          }
        ],
        "code": {
          "coding": [
            {
              "code": "17861-6",
              "system": "http://loinc.org",
              "display": "Calcium [Mass/volume] in Serum or Plasma"
            }
          ],
          "text": "Calcium [Mass/volume] in Serum or Plasma"
        },
        "valueQuantity": {
          "system": "http://unitsofmeasure.org",
          "value": 8.6,
          "unit": "mg/dL",
          "code": "mg/dL"
        },
        "referenceRange": [
          {
            "low": {
              "value": 8.5,
              "code": "mg/dL",
              "system": "http://unitsofmeasure.org"
            }
          },
          {
            "high": {
              "value": 10.4,
              "code": "mg/dL",
              "system": "http://unitsofmeasure.org"
            }
          }
        ],
        "text": {
          "status": "generated",
          "div": "<div xmlns=\"http://www.w3.org/1999/xhtml\"><table class=\"hl7__eu__lab__report\"><tr><th>Test</th><th>11-Jul-2019</th><th>Reference&#xA0;Range</th><th>Unit</th></tr><tr><td>Calcium [Mass/volume] in Serum or Plasma</td><td>8.6</td><td>8.5 - 10.4</td><td></td><td>mg/dL</td></tr></table></div>"
        },
        "status": "final",
        "subject": {
          "reference": "urn:uuid:88d06c3b-e5a4-4d77-b949-0ca2238db3f1",
          "display": "Molly Jenkins"
        },
        "effectiveDateTime": "2019-07-11T14:42:11Z",
        "specimen": {
          "reference": "urn:uuid:d0c827a6-79fc-4d7b-a42c-53826ced27ab"
        }
      }
    },
    {
      "fullUrl": "urn:uuid:c219d545-da64-4779-a94b-02dfd5517d43",
      "resource": {
        "resourceType": "Observation",
        "id": "c219d545-da64-4779-a94b-02dfd5517d43",
        "meta": {
          "profile": [
            "http://hl7.eu/fhir/laboratory/StructureDefinition/Observation-resultslab-eu-lab"
          ]
        },
        "performer": [
          {
            "display": "The Central European Lab"
          }
        ],
        "category": [
          {
            "coding": [
              {
                "system": "http://terminology.hl7.org/CodeSystem/observation-category",
                "code": "laboratory"
              }
            ]
          }
        ],
        "code": {
          "coding": [
            {
              "code": "2951-2",
              "system": "http://loinc.org",
              "display": "Sodium [Moles/volume] in Serum or Plasma"
            }
          ],
          "text": "Sodium [Moles/volume] in Serum or Plasma"
        },
        "valueQuantity": {
          "system": "http://unitsofmeasure.org",
          "value": 141.3,
          "unit": "mmol/L",
          "code": "mmol/L"
        },
        "referenceRange": [
          {
            "low": {
              "value": 135,
              "code": "mmol/L",
              "system": "http://unitsofmeasure.org"
            }
          },
          {
            "high": {
              "value": 145,
              "code": "mmol/L",
              "system": "http://unitsofmeasure.org"
            }
          }
        ],
        "text": {
          "status": "generated",
          "div": "<div xmlns=\"http://www.w3.org/1999/xhtml\"><table class=\"hl7__eu__lab__report\"><tr><th>Test</th><th>11-Jul-2019</th><th>Reference&#xA0;Range</th><th>Unit</th></tr><tr><td>Sodium [Moles/volume] in Serum or Plasma</td><td>141.3</td><td>135 - 145</td><td></td><td>mmol/L</td></tr></table></div>"
        },
        "status": "final",
        "subject": {
          "reference": "urn:uuid:88d06c3b-e5a4-4d77-b949-0ca2238db3f1",
          "display": "Molly Jenkins"
        },
        "effectiveDateTime": "2019-07-11T14:42:11Z",
        "specimen": {
          "reference": "urn:uuid:d0c827a6-79fc-4d7b-a42c-53826ced27ab"
        }
      }
    },
    {
      "fullUrl": "urn:uuid:49a1554f-a30a-4b4d-8667-9ceefca49b3a",
      "resource": {
        "resourceType": "Observation",
        "id": "49a1554f-a30a-4b4d-8667-9ceefca49b3a",
        "meta": {
          "profile": [
            "http://hl7.eu/fhir/laboratory/StructureDefinition/Observation-resultslab-eu-lab"
          ]
        },
        "performer": [
          {
            "display": "The Central European Lab"
          }
        ],
        "category": [
          {
            "coding": [
              {
                "system": "http://terminology.hl7.org/CodeSystem/observation-category",
                "code": "laboratory"
              }
            ]
          }
        ],
        "code": {
          "coding": [
            {
              "code": "2823-3",
              "system": "http://loinc.org",
              "display": "Potassium [Moles/volume] in Serum or Plasma"
            }
          ],
          "text": "Potassium [Moles/volume] in Serum or Plasma"
        },
        "valueQuantity": {
          "system": "http://unitsofmeasure.org",
          "value": 5,
          "unit": "mmol/L",
          "code": "mmol/L"
        },
        "referenceRange": [
          {
            "low": {
              "value": 3.5,
              "code": "mmol/L",
              "system": "http://unitsofmeasure.org"
            }
          },
          {
            "high": {
              "value": 5.1,
              "code": "mmol/L",
              "system": "http://unitsofmeasure.org"
            }
          }
        ],
        "text": {
          "status": "generated",
          "div": "<div xmlns=\"http://www.w3.org/1999/xhtml\"><table class=\"hl7__eu__lab__report\"><tr><th>Test</th><th>11-Jul-2019</th><th>Reference&#xA0;Range</th><th>Unit</th></tr><tr><td>Potassium [Moles/volume] in Serum or Plasma</td><td>5.0</td><td>3.5 - 5.1</td><td></td><td>mmol/L</td></tr></table></div>"
        },
        "status": "final",
        "subject": {
          "reference": "urn:uuid:88d06c3b-e5a4-4d77-b949-0ca2238db3f1",
          "display": "Molly Jenkins"
        },
        "effectiveDateTime": "2019-07-11T14:42:11Z",
        "specimen": {
          "reference": "urn:uuid:d0c827a6-79fc-4d7b-a42c-53826ced27ab"
        }
      }
    },
    {
      "fullUrl": "urn:uuid:e3842211-70ec-45ec-ad29-63502383d4de",
      "resource": {
        "resourceType": "Observation",
        "id": "e3842211-70ec-45ec-ad29-63502383d4de",
        "meta": {
          "profile": [
            "http://hl7.eu/fhir/laboratory/StructureDefinition/Observation-resultslab-eu-lab"
          ]
        },
        "performer": [
          {
            "display": "The Central European Lab"
          }
        ],
        "category": [
          {
            "coding": [
              {
                "system": "http://terminology.hl7.org/CodeSystem/observation-category",
                "code": "laboratory"
              }
            ]
          }
        ],
        "code": {
          "coding": [
            {
              "code": "2075-0",
              "system": "http://loinc.org",
              "display": "Chloride [Moles/volume] in Serum or Plasma"
            }
          ],
          "text": "Chloride [Moles/volume] in Serum or Plasma"
        },
        "valueQuantity": {
          "system": "http://unitsofmeasure.org",
          "value": 104.8,
          "unit": "mmol/L",
          "code": "mmol/L"
        },
        "referenceRange": [
          {
            "low": {
              "value": 98,
              "code": "mmol/L",
              "system": "http://unitsofmeasure.org"
            }
          },
          {
            "high": {
              "value": 110,
              "code": "mmol/L",
              "system": "http://unitsofmeasure.org"
            }
          }
        ],
        "text": {
          "status": "generated",
          "div": "<div xmlns=\"http://www.w3.org/1999/xhtml\"><table class=\"hl7__eu__lab__report\"><tr><th>Test</th><th>11-Jul-2019</th><th>Reference&#xA0;Range</th><th>Unit</th></tr><tr><td>Chloride [Moles/volume] in Serum or Plasma</td><td>104.8</td><td>98 - 110</td><td></td><td>mmol/L</td></tr></table></div>"
        },
        "status": "final",
        "subject": {
          "reference": "urn:uuid:88d06c3b-e5a4-4d77-b949-0ca2238db3f1",
          "display": "Molly Jenkins"
        },
        "effectiveDateTime": "2019-07-11T14:42:11Z",
        "specimen": {
          "reference": "urn:uuid:d0c827a6-79fc-4d7b-a42c-53826ced27ab"
        }
      }
    },
    {
      "fullUrl": "urn:uuid:f4cd3938-280c-45a3-82b4-de03a5ac1ab7",
      "resource": {
        "resourceType": "Observation",
        "id": "f4cd3938-280c-45a3-82b4-de03a5ac1ab7",
        "meta": {
          "profile": [
            "http://hl7.eu/fhir/laboratory/StructureDefinition/Observation-resultslab-eu-lab"
          ]
        },
        "performer": [
          {
            "display": "The Central European Lab"
          }
        ],
        "category": [
          {
            "coding": [
              {
                "system": "http://terminology.hl7.org/CodeSystem/observation-category",
                "code": "laboratory"
              }
            ]
          }
        ],
        "code": {
          "coding": [
            {
              "code": "2028-9",
              "system": "http://loinc.org",
              "display": "Carbon dioxide, total [Moles/volume] in Serum or Plasma"
            }
          ],
          "text": "Carbon dioxide, total [Moles/volume] in Serum or Plasma"
        },
        "valueQuantity": {
          "system": "http://unitsofmeasure.org",
          "value": 23.4,
          "unit": "mmol/L",
          "code": "mmol/L"
        },
        "referenceRange": [
          {
            "low": {
              "value": 22,
              "code": "mmol/L",
              "system": "http://unitsofmeasure.org"
            }
          },
          {
            "high": {
              "value": 32,
              "code": "mmol/L",
              "system": "http://unitsofmeasure.org"
            }
          }
        ],
        "text": {
          "status": "generated",
          "div": "<div xmlns=\"http://www.w3.org/1999/xhtml\"><table class=\"hl7__eu__lab__report\"><tr><th>Test</th><th>11-Jul-2019</th><th>Reference&#xA0;Range</th><th>Unit</th></tr><tr><td>Carbon dioxide, total [Moles/volume] in Serum or Plasma</td><td>23.4</td><td>22 - 32</td><td></td><td>mmol/L</td></tr></table></div>"
        },
        "status": "final",
        "subject": {
          "reference": "urn:uuid:88d06c3b-e5a4-4d77-b949-0ca2238db3f1",
          "display": "Molly Jenkins"
        },
        "effectiveDateTime": "2019-07-11T14:42:11Z",
        "specimen": {
          "reference": "urn:uuid:d0c827a6-79fc-4d7b-a42c-53826ced27ab"
        }
      }
    },
    {
      "fullUrl": "urn:uuid:10d1493f-86d0-4f5d-aaa9-137f21ec6055",
      "resource": {
        "resourceType": "Observation",
        "id": "10d1493f-86d0-4f5d-aaa9-137f21ec6055",
        "meta": {
          "profile": [
            "http://hl7.eu/fhir/laboratory/StructureDefinition/Observation-resultslab-eu-lab"
          ]
        },
        "performer": [
          {
            "display": "The Central European Lab"
          }
        ],
        "category": [
          {
            "coding": [
              {
                "system": "http://terminology.hl7.org/CodeSystem/observation-category",
                "code": "laboratory"
              }
            ]
          }
        ],
        "code": {
          "coding": [
            {
              "code": "5767-9",
              "system": "http://loinc.org",
              "display": "Appearance of Urine"
            }
          ],
          "text": "Appearance of Urine"
        },
        "text": {
          "status": "generated",
          "div": "<div xmlns=\"http://www.w3.org/1999/xhtml\"><table class=\"hl7__eu__lab__report\"><tr><th>Test</th><th>11-Jul-2019</th><th>Reference&#xA0;Range</th><th>Unit</th></tr><tr><td>Appearance of Urine</td></tr></table></div>"
        },
        "status": "final",
        "subject": {
          "reference": "urn:uuid:88d06c3b-e5a4-4d77-b949-0ca2238db3f1",
          "display": "Molly Jenkins"
        },
        "effectiveDateTime": "2019-07-11T14:42:11Z",
        "specimen": {
          "reference": "urn:uuid:a0be7778-edbd-450a-997f-3ded9fd4ac61"
        }
      }
    },
    {
      "fullUrl": "urn:uuid:9652f372-d161-4bb4-a2b5-50e01acf47c4",
      "resource": {
        "resourceType": "Observation",
        "id": "9652f372-d161-4bb4-a2b5-50e01acf47c4",
        "meta": {
          "profile": [
            "http://hl7.eu/fhir/laboratory/StructureDefinition/Observation-resultslab-eu-lab"
          ]
        },
        "performer": [
          {
            "display": "The Central European Lab"
          }
        ],
        "category": [
          {
            "coding": [
              {
                "system": "http://terminology.hl7.org/CodeSystem/observation-category",
                "code": "laboratory"
              }
            ]
          }
        ],
        "code": {
          "coding": [
            {
              "code": "34533-0",
              "system": "http://loinc.org",
              "display": "Odor of Urine"
            }
          ],
          "text": "Odor of Urine"
        },
        "text": {
          "status": "generated",
          "div": "<div xmlns=\"http://www.w3.org/1999/xhtml\"><table class=\"hl7__eu__lab__report\"><tr><th>Test</th><th>11-Jul-2019</th><th>Reference&#xA0;Range</th><th>Unit</th></tr><tr><td>Odor of Urine</td></tr></table></div>"
        },
        "status": "final",
        "subject": {
          "reference": "urn:uuid:88d06c3b-e5a4-4d77-b949-0ca2238db3f1",
          "display": "Molly Jenkins"
        },
        "effectiveDateTime": "2019-07-11T14:42:11Z",
        "specimen": {
          "reference": "urn:uuid:a0be7778-edbd-450a-997f-3ded9fd4ac61"
        }
      }
    },
    {
      "fullUrl": "urn:uuid:5073d624-43d1-4ee8-9f90-44171ab02ea1",
      "resource": {
        "resourceType": "Observation",
        "id": "5073d624-43d1-4ee8-9f90-44171ab02ea1",
        "meta": {
          "profile": [
            "http://hl7.eu/fhir/laboratory/StructureDefinition/Observation-resultslab-eu-lab"
          ]
        },
        "performer": [
          {
            "display": "The Central European Lab"
          }
        ],
        "category": [
          {
            "coding": [
              {
                "system": "http://terminology.hl7.org/CodeSystem/observation-category",
                "code": "laboratory"
              }
            ]
          }
        ],
        "code": {
          "coding": [
            {
              "code": "32167-9",
              "system": "http://loinc.org",
              "display": "Clarity of Urine"
            }
          ],
          "text": "Clarity of Urine"
        },
        "text": {
          "status": "generated",
          "div": "<div xmlns=\"http://www.w3.org/1999/xhtml\"><table class=\"hl7__eu__lab__report\"><tr><th>Test</th><th>11-Jul-2019</th><th>Reference&#xA0;Range</th><th>Unit</th></tr><tr><td>Clarity of Urine</td></tr></table></div>"
        },
        "status": "final",
        "subject": {
          "reference": "urn:uuid:88d06c3b-e5a4-4d77-b949-0ca2238db3f1",
          "display": "Molly Jenkins"
        },
        "effectiveDateTime": "2019-07-11T14:42:11Z",
        "specimen": {
          "reference": "urn:uuid:a0be7778-edbd-450a-997f-3ded9fd4ac61"
        }
      }
    },
    {
      "fullUrl": "urn:uuid:600f25ea-bea4-49a4-8f85-3843a921e0ce",
      "resource": {
        "resourceType": "Observation",
        "id": "600f25ea-bea4-49a4-8f85-3843a921e0ce",
        "meta": {
          "profile": [
            "http://hl7.eu/fhir/laboratory/StructureDefinition/Observation-resultslab-eu-lab"
          ]
        },
        "performer": [
          {
            "display": "The Central European Lab"
          }
        ],
        "category": [
          {
            "coding": [
              {
                "system": "http://terminology.hl7.org/CodeSystem/observation-category",
                "code": "laboratory"
              }
            ]
          }
        ],
        "code": {
          "coding": [
            {
              "code": "5778-6",
              "system": "http://loinc.org",
              "display": "Color of Urine"
            }
          ],
          "text": "Color of Urine"
        },
        "text": {
          "status": "generated",
          "div": "<div xmlns=\"http://www.w3.org/1999/xhtml\"><table class=\"hl7__eu__lab__report\"><tr><th>Test</th><th>11-Jul-2019</th><th>Reference&#xA0;Range</th><th>Unit</th></tr><tr><td>Color of Urine</td></tr></table></div>"
        },
        "status": "final",
        "subject": {
          "reference": "urn:uuid:88d06c3b-e5a4-4d77-b949-0ca2238db3f1",
          "display": "Molly Jenkins"
        },
        "effectiveDateTime": "2019-07-11T14:42:11Z",
        "specimen": {
          "reference": "urn:uuid:a0be7778-edbd-450a-997f-3ded9fd4ac61"
        }
      }
    },
    {
      "fullUrl": "urn:uuid:4f1b3db5-6b09-4c73-81f9-7490cfbf0be3",
      "resource": {
        "resourceType": "Observation",
        "id": "4f1b3db5-6b09-4c73-81f9-7490cfbf0be3",
        "meta": {
          "profile": [
            "http://hl7.eu/fhir/laboratory/StructureDefinition/Observation-resultslab-eu-lab"
          ]
        },
        "performer": [
          {
            "display": "The Central European Lab"
          }
        ],
        "category": [
          {
            "coding": [
              {
                "system": "http://terminology.hl7.org/CodeSystem/observation-category",
                "code": "laboratory"
              }
            ]
          }
        ],
        "code": {
          "coding": [
            {
              "code": "5792-7",
              "system": "http://loinc.org",
              "display": "Glucose [Mass/volume] in Urine by Test strip"
            }
          ],
          "text": "Glucose [Mass/volume] in Urine by Test strip"
        },
        "valueQuantity": {
          "system": "http://unitsofmeasure.org",
          "value": 2.5,
          "unit": "mg/dL",
          "code": "mg/dL"
        },
        "referenceRange": [
          {
            "low": {
              "value": 0,
              "code": "mg/dL",
              "system": "http://unitsofmeasure.org"
            }
          },
          {
            "high": {
              "value": 0,
              "code": "mg/dL",
              "system": "http://unitsofmeasure.org"
            }
          }
        ],
        "interpretation": [
          {
            "coding": [
              {
                "code": "H",
                "system": "http://terminology.hl7.org/CodeSystem/v3-ObservationInterpretation",
                "display": "High"
              }
            ]
          }
        ],
        "text": {
          "status": "generated",
          "div": "<div xmlns=\"http://www.w3.org/1999/xhtml\"><table class=\"hl7__eu__lab__report\"><tr><th>Test</th><th>11-Jul-2019</th><th>Reference&#xA0;Range</th><th>Unit</th></tr><tr><td>Glucose [Mass/volume] in Urine by Test strip</td><td>2.5</td><td>0 - 0</td><td>H</td><td>mg/dL</td></tr></table></div>"
        },
        "status": "final",
        "subject": {
          "reference": "urn:uuid:88d06c3b-e5a4-4d77-b949-0ca2238db3f1",
          "display": "Molly Jenkins"
        },
        "effectiveDateTime": "2019-07-11T14:42:11Z",
        "specimen": {
          "reference": "urn:uuid:a0be7778-edbd-450a-997f-3ded9fd4ac61"
        }
      }
    },
    {
      "fullUrl": "urn:uuid:708a25cc-d759-480d-b835-a5ab48c6d19e",
      "resource": {
        "resourceType": "Observation",
        "id": "708a25cc-d759-480d-b835-a5ab48c6d19e",
        "meta": {
          "profile": [
            "http://hl7.eu/fhir/laboratory/StructureDefinition/Observation-resultslab-eu-lab"
          ]
        },
        "performer": [
          {
            "display": "The Central European Lab"
          }
        ],
        "category": [
          {
            "coding": [
              {
                "system": "http://terminology.hl7.org/CodeSystem/observation-category",
                "code": "laboratory"
              }
            ]
          }
        ],
        "code": {
          "coding": [
            {
              "code": "25428-4",
              "system": "http://loinc.org",
              "display": "Glucose [Presence] in Urine by Test strip"
            }
          ],
          "text": "Glucose [Presence] in Urine by Test strip"
        },
        "text": {
          "status": "generated",
          "div": "<div xmlns=\"http://www.w3.org/1999/xhtml\"><table class=\"hl7__eu__lab__report\"><tr><th>Test</th><th>11-Jul-2019</th><th>Reference&#xA0;Range</th><th>Unit</th></tr><tr><td>Glucose [Presence] in Urine by Test strip</td></tr></table></div>"
        },
        "status": "final",
        "subject": {
          "reference": "urn:uuid:88d06c3b-e5a4-4d77-b949-0ca2238db3f1",
          "display": "Molly Jenkins"
        },
        "effectiveDateTime": "2019-07-11T14:42:11Z",
        "specimen": {
          "reference": "urn:uuid:a0be7778-edbd-450a-997f-3ded9fd4ac61"
        }
      }
    },
    {
      "fullUrl": "urn:uuid:aae2f458-5827-48bd-8e1d-fdb73127d28c",
      "resource": {
        "resourceType": "Observation",
        "id": "aae2f458-5827-48bd-8e1d-fdb73127d28c",
        "meta": {
          "profile": [
            "http://hl7.eu/fhir/laboratory/StructureDefinition/Observation-resultslab-eu-lab"
          ]
        },
        "performer": [
          {
            "display": "The Central European Lab"
          }
        ],
        "category": [
          {
            "coding": [
              {
                "system": "http://terminology.hl7.org/CodeSystem/observation-category",
                "code": "laboratory"
              }
            ]
          }
        ],
        "code": {
          "coding": [
            {
              "code": "20505-4",
              "system": "http://loinc.org",
              "display": "Bilirubin.total [Mass/volume] in Urine by Test strip"
            }
          ],
          "text": "Bilirubin.total [Mass/volume] in Urine by Test strip"
        },
        "valueQuantity": {
          "system": "http://unitsofmeasure.org",
          "value": 0.6,
          "unit": "mg/dL",
          "code": "mg/dL"
        },
        "referenceRange": [
          {
            "low": {
              "value": 0,
              "code": "mg/dL",
              "system": "http://unitsofmeasure.org"
            }
          },
          {
            "high": {
              "value": 1.6,
              "code": "mg/dL",
              "system": "http://unitsofmeasure.org"
            }
          }
        ],
        "text": {
          "status": "generated",
          "div": "<div xmlns=\"http://www.w3.org/1999/xhtml\"><table class=\"hl7__eu__lab__report\"><tr><th>Test</th><th>11-Jul-2019</th><th>Reference&#xA0;Range</th><th>Unit</th></tr><tr><td>Bilirubin.total [Mass/volume] in Urine by Test strip</td><td>0.6</td><td>0 - 1.6</td><td></td><td>mg/dL</td></tr></table></div>"
        },
        "status": "final",
        "subject": {
          "reference": "urn:uuid:88d06c3b-e5a4-4d77-b949-0ca2238db3f1",
          "display": "Molly Jenkins"
        },
        "effectiveDateTime": "2019-07-11T14:42:11Z",
        "specimen": {
          "reference": "urn:uuid:a0be7778-edbd-450a-997f-3ded9fd4ac61"
        }
      }
    },
    {
      "fullUrl": "urn:uuid:792ad88a-7017-45f6-a073-5e7dc17ada09",
      "resource": {
        "resourceType": "Observation",
        "id": "792ad88a-7017-45f6-a073-5e7dc17ada09",
        "meta": {
          "profile": [
            "http://hl7.eu/fhir/laboratory/StructureDefinition/Observation-resultslab-eu-lab"
          ]
        },
        "performer": [
          {
            "display": "The Central European Lab"
          }
        ],
        "category": [
          {
            "coding": [
              {
                "system": "http://terminology.hl7.org/CodeSystem/observation-category",
                "code": "laboratory"
              }
            ]
          }
        ],
        "code": {
          "coding": [
            {
              "code": "5770-3",
              "system": "http://loinc.org",
              "display": "Bilirubin.total [Presence] in Urine by Test strip"
            }
          ],
          "text": "Bilirubin.total [Presence] in Urine by Test strip"
        },
        "text": {
          "status": "generated",
          "div": "<div xmlns=\"http://www.w3.org/1999/xhtml\"><table class=\"hl7__eu__lab__report\"><tr><th>Test</th><th>11-Jul-2019</th><th>Reference&#xA0;Range</th><th>Unit</th></tr><tr><td>Bilirubin.total [Presence] in Urine by Test strip</td></tr></table></div>"
        },
        "status": "final",
        "subject": {
          "reference": "urn:uuid:88d06c3b-e5a4-4d77-b949-0ca2238db3f1",
          "display": "Molly Jenkins"
        },
        "effectiveDateTime": "2019-07-11T14:42:11Z",
        "specimen": {
          "reference": "urn:uuid:a0be7778-edbd-450a-997f-3ded9fd4ac61"
        }
      }
    },
    {
      "fullUrl": "urn:uuid:90f554cc-4670-46f2-96d4-b10f4a55224e",
      "resource": {
        "resourceType": "Observation",
        "id": "90f554cc-4670-46f2-96d4-b10f4a55224e",
        "meta": {
          "profile": [
            "http://hl7.eu/fhir/laboratory/StructureDefinition/Observation-resultslab-eu-lab"
          ]
        },
        "performer": [
          {
            "display": "The Central European Lab"
          }
        ],
        "category": [
          {
            "coding": [
              {
                "system": "http://terminology.hl7.org/CodeSystem/observation-category",
                "code": "laboratory"
              }
            ]
          }
        ],
        "code": {
          "coding": [
            {
              "code": "5797-6",
              "system": "http://loinc.org",
              "display": "Ketones [Mass/volume] in Urine by Test strip"
            }
          ],
          "text": "Ketones [Mass/volume] in Urine by Test strip"
        },
        "valueQuantity": {
          "system": "http://unitsofmeasure.org",
          "value": 17.4,
          "unit": "mg/dL",
          "code": "mg/dL"
        },
        "referenceRange": [
          {
            "low": {
              "value": 0,
              "code": "mg/dL",
              "system": "http://unitsofmeasure.org"
            }
          },
          {
            "high": {
              "value": 0.5,
              "code": "mg/dL",
              "system": "http://unitsofmeasure.org"
            }
          }
        ],
        "interpretation": [
          {
            "coding": [
              {
                "code": "H",
                "system": "http://terminology.hl7.org/CodeSystem/v3-ObservationInterpretation",
                "display": "High"
              }
            ]
          }
        ],
        "text": {
          "status": "generated",
          "div": "<div xmlns=\"http://www.w3.org/1999/xhtml\"><table class=\"hl7__eu__lab__report\"><tr><th>Test</th><th>11-Jul-2019</th><th>Reference&#xA0;Range</th><th>Unit</th></tr><tr><td>Ketones [Mass/volume] in Urine by Test strip</td><td>17.4</td><td>0 - 0.5</td><td>H</td><td>mg/dL</td></tr></table></div>"
        },
        "status": "final",
        "subject": {
          "reference": "urn:uuid:88d06c3b-e5a4-4d77-b949-0ca2238db3f1",
          "display": "Molly Jenkins"
        },
        "effectiveDateTime": "2019-07-11T14:42:11Z",
        "specimen": {
          "reference": "urn:uuid:a0be7778-edbd-450a-997f-3ded9fd4ac61"
        }
      }
    },
    {
      "fullUrl": "urn:uuid:5a1b9738-6f2e-48db-b3aa-7843beeaf614",
      "resource": {
        "resourceType": "Observation",
        "id": "5a1b9738-6f2e-48db-b3aa-7843beeaf614",
        "meta": {
          "profile": [
            "http://hl7.eu/fhir/laboratory/StructureDefinition/Observation-resultslab-eu-lab"
          ]
        },
        "performer": [
          {
            "display": "The Central European Lab"
          }
        ],
        "category": [
          {
            "coding": [
              {
                "system": "http://terminology.hl7.org/CodeSystem/observation-category",
                "code": "laboratory"
              }
            ]
          }
        ],
        "code": {
          "coding": [
            {
              "code": "2514-8",
              "system": "http://loinc.org",
              "display": "Ketones [Presence] in Urine by Test strip"
            }
          ],
          "text": "Ketones [Presence] in Urine by Test strip"
        },
        "text": {
          "status": "generated",
          "div": "<div xmlns=\"http://www.w3.org/1999/xhtml\"><table class=\"hl7__eu__lab__report\"><tr><th>Test</th><th>11-Jul-2019</th><th>Reference&#xA0;Range</th><th>Unit</th></tr><tr><td>Ketones [Presence] in Urine by Test strip</td></tr></table></div>"
        },
        "status": "final",
        "subject": {
          "reference": "urn:uuid:88d06c3b-e5a4-4d77-b949-0ca2238db3f1",
          "display": "Molly Jenkins"
        },
        "effectiveDateTime": "2019-07-11T14:42:11Z",
        "specimen": {
          "reference": "urn:uuid:a0be7778-edbd-450a-997f-3ded9fd4ac61"
        }
      }
    },
    {
      "fullUrl": "urn:uuid:0acbb9c8-19b4-4001-89c8-164aa32d4a1a",
      "resource": {
        "resourceType": "Observation",
        "id": "0acbb9c8-19b4-4001-89c8-164aa32d4a1a",
        "meta": {
          "profile": [
            "http://hl7.eu/fhir/laboratory/StructureDefinition/Observation-resultslab-eu-lab"
          ]
        },
        "performer": [
          {
            "display": "The Central European Lab"
          }
        ],
        "category": [
          {
            "coding": [
              {
                "system": "http://terminology.hl7.org/CodeSystem/observation-category",
                "code": "laboratory"
              }
            ]
          }
        ],
        "code": {
          "coding": [
            {
              "code": "5811-5",
              "system": "http://loinc.org",
              "display": "Specific gravity of Urine by Test strip"
            }
          ],
          "text": "Specific gravity of Urine by Test strip"
        },
        "valueQuantity": {
          "system": "http://unitsofmeasure.org",
          "value": 1,
          "unit": "{nominal}",
          "code": "{nominal}"
        },
        "referenceRange": [
          {
            "low": {
              "value": 1.005,
              "code": "g/mL",
              "system": "http://unitsofmeasure.org"
            }
          },
          {
            "high": {
              "value": 1.03,
              "code": "g/mL",
              "system": "http://unitsofmeasure.org"
            }
          }
        ],
        "interpretation": [
          {
            "coding": [
              {
                "code": "L",
                "system": "http://terminology.hl7.org/CodeSystem/v3-ObservationInterpretation",
                "display": "Low"
              }
            ]
          }
        ],
        "text": {
          "status": "generated",
          "div": "<div xmlns=\"http://www.w3.org/1999/xhtml\"><table class=\"hl7__eu__lab__report\"><tr><th>Test</th><th>11-Jul-2019</th><th>Reference&#xA0;Range</th><th>Unit</th></tr><tr><td>Specific gravity of Urine by Test strip</td><td>1.0</td><td>1.005 - 1.03</td><td>L</td><td>{nominal}</td></tr></table></div>"
        },
        "status": "final",
        "subject": {
          "reference": "urn:uuid:88d06c3b-e5a4-4d77-b949-0ca2238db3f1",
          "display": "Molly Jenkins"
        },
        "effectiveDateTime": "2019-07-11T14:42:11Z",
        "specimen": {
          "reference": "urn:uuid:a0be7778-edbd-450a-997f-3ded9fd4ac61"
        }
      }
    },
    {
      "fullUrl": "urn:uuid:53ba64b2-9c0b-41f1-a6e5-2df14a07a573",
      "resource": {
        "resourceType": "Observation",
        "id": "53ba64b2-9c0b-41f1-a6e5-2df14a07a573",
        "meta": {
          "profile": [
            "http://hl7.eu/fhir/laboratory/StructureDefinition/Observation-resultslab-eu-lab"
          ]
        },
        "performer": [
          {
            "display": "The Central European Lab"
          }
        ],
        "category": [
          {
            "coding": [
              {
                "system": "http://terminology.hl7.org/CodeSystem/observation-category",
                "code": "laboratory"
              }
            ]
          }
        ],
        "code": {
          "coding": [
            {
              "code": "5803-2",
              "system": "http://loinc.org",
              "display": "pH of Urine by Test strip"
            }
          ],
          "text": "pH of Urine by Test strip"
        },
        "valueQuantity": {
          "system": "http://unitsofmeasure.org",
          "value": 7,
          "unit": "pH",
          "code": "pH"
        },
        "referenceRange": [
          {
            "low": {
              "value": 4.5,
              "code": "pH",
              "system": "http://unitsofmeasure.org"
            }
          },
          {
            "high": {
              "value": 7.5,
              "code": "pH",
              "system": "http://unitsofmeasure.org"
            }
          }
        ],
        "text": {
          "status": "generated",
          "div": "<div xmlns=\"http://www.w3.org/1999/xhtml\"><table class=\"hl7__eu__lab__report\"><tr><th>Test</th><th>11-Jul-2019</th><th>Reference&#xA0;Range</th><th>Unit</th></tr><tr><td>pH of Urine by Test strip</td><td>7.0</td><td>4.5 - 7.5</td><td></td><td>pH</td></tr></table></div>"
        },
        "status": "final",
        "subject": {
          "reference": "urn:uuid:88d06c3b-e5a4-4d77-b949-0ca2238db3f1",
          "display": "Molly Jenkins"
        },
        "effectiveDateTime": "2019-07-11T14:42:11Z",
        "specimen": {
          "reference": "urn:uuid:a0be7778-edbd-450a-997f-3ded9fd4ac61"
        }
      }
    },
    {
      "fullUrl": "urn:uuid:8b04d149-f387-4f9d-be6b-e939c2838478",
      "resource": {
        "resourceType": "Observation",
        "id": "8b04d149-f387-4f9d-be6b-e939c2838478",
        "meta": {
          "profile": [
            "http://hl7.eu/fhir/laboratory/StructureDefinition/Observation-resultslab-eu-lab"
          ]
        },
        "performer": [
          {
            "display": "The Central European Lab"
          }
        ],
        "category": [
          {
            "coding": [
              {
                "system": "http://terminology.hl7.org/CodeSystem/observation-category",
                "code": "laboratory"
              }
            ]
          }
        ],
        "code": {
          "coding": [
            {
              "code": "5804-0",
              "system": "http://loinc.org",
              "display": "Protein [Mass/volume] in Urine by Test strip"
            }
          ],
          "text": "Protein [Mass/volume] in Urine by Test strip"
        },
        "valueQuantity": {
          "system": "http://unitsofmeasure.org",
          "value": 229.4,
          "unit": "mg/dL",
          "code": "mg/dL"
        },
        "referenceRange": [
          {
            "low": {
              "value": 0,
              "code": "mg/dL",
              "system": "http://unitsofmeasure.org"
            }
          },
          {
            "high": {
              "value": 15,
              "code": "mg/dL",
              "system": "http://unitsofmeasure.org"
            }
          }
        ],
        "interpretation": [
          {
            "coding": [
              {
                "code": "H",
                "system": "http://terminology.hl7.org/CodeSystem/v3-ObservationInterpretation",
                "display": "High"
              }
            ]
          }
        ],
        "text": {
          "status": "generated",
          "div": "<div xmlns=\"http://www.w3.org/1999/xhtml\"><table class=\"hl7__eu__lab__report\"><tr><th>Test</th><th>11-Jul-2019</th><th>Reference&#xA0;Range</th><th>Unit</th></tr><tr><td>Protein [Mass/volume] in Urine by Test strip</td><td>229.4</td><td>0 - 15</td><td>H</td><td>mg/dL</td></tr></table></div>"
        },
        "status": "final",
        "subject": {
          "reference": "urn:uuid:88d06c3b-e5a4-4d77-b949-0ca2238db3f1",
          "display": "Molly Jenkins"
        },
        "effectiveDateTime": "2019-07-11T14:42:11Z",
        "specimen": {
          "reference": "urn:uuid:a0be7778-edbd-450a-997f-3ded9fd4ac61"
        }
      }
    },
    {
      "fullUrl": "urn:uuid:7c9e48f0-ebfb-44fd-8cfe-d33890371ed6",
      "resource": {
        "resourceType": "Observation",
        "id": "7c9e48f0-ebfb-44fd-8cfe-d33890371ed6",
        "meta": {
          "profile": [
            "http://hl7.eu/fhir/laboratory/StructureDefinition/Observation-resultslab-eu-lab"
          ]
        },
        "performer": [
          {
            "display": "The Central European Lab"
          }
        ],
        "category": [
          {
            "coding": [
              {
                "system": "http://terminology.hl7.org/CodeSystem/observation-category",
                "code": "laboratory"
              }
            ]
          }
        ],
        "code": {
          "coding": [
            {
              "code": "20454-5",
              "system": "http://loinc.org",
              "display": "Protein [Presence] in Urine by Test strip"
            }
          ],
          "text": "Protein [Presence] in Urine by Test strip"
        },
        "text": {
          "status": "generated",
          "div": "<div xmlns=\"http://www.w3.org/1999/xhtml\"><table class=\"hl7__eu__lab__report\"><tr><th>Test</th><th>11-Jul-2019</th><th>Reference&#xA0;Range</th><th>Unit</th></tr><tr><td>Protein [Presence] in Urine by Test strip</td></tr></table></div>"
        },
        "status": "final",
        "subject": {
          "reference": "urn:uuid:88d06c3b-e5a4-4d77-b949-0ca2238db3f1",
          "display": "Molly Jenkins"
        },
        "effectiveDateTime": "2019-07-11T14:42:11Z",
        "specimen": {
          "reference": "urn:uuid:a0be7778-edbd-450a-997f-3ded9fd4ac61"
        }
      }
    },
    {
      "fullUrl": "urn:uuid:5318b192-5a9d-47dd-8634-f082ecf07857",
      "resource": {
        "resourceType": "Observation",
        "id": "5318b192-5a9d-47dd-8634-f082ecf07857",
        "meta": {
          "profile": [
            "http://hl7.eu/fhir/laboratory/StructureDefinition/Observation-resultslab-eu-lab"
          ]
        },
        "performer": [
          {
            "display": "The Central European Lab"
          }
        ],
        "category": [
          {
            "coding": [
              {
                "system": "http://terminology.hl7.org/CodeSystem/observation-category",
                "code": "laboratory"
              }
            ]
          }
        ],
        "code": {
          "coding": [
            {
              "code": "5802-4",
              "system": "http://loinc.org",
              "display": "Nitrite [Presence] in Urine by Test strip"
            }
          ],
          "text": "Nitrite [Presence] in Urine by Test strip"
        },
        "text": {
          "status": "generated",
          "div": "<div xmlns=\"http://www.w3.org/1999/xhtml\"><table class=\"hl7__eu__lab__report\"><tr><th>Test</th><th>11-Jul-2019</th><th>Reference&#xA0;Range</th><th>Unit</th></tr><tr><td>Nitrite [Presence] in Urine by Test strip</td></tr></table></div>"
        },
        "status": "final",
        "subject": {
          "reference": "urn:uuid:88d06c3b-e5a4-4d77-b949-0ca2238db3f1",
          "display": "Molly Jenkins"
        },
        "effectiveDateTime": "2019-07-11T14:42:11Z",
        "specimen": {
          "reference": "urn:uuid:a0be7778-edbd-450a-997f-3ded9fd4ac61"
        }
      }
    },
    {
      "fullUrl": "urn:uuid:cbed55e2-6474-4ef3-8f8e-7a56dbbdc99c",
      "resource": {
        "resourceType": "Observation",
        "id": "cbed55e2-6474-4ef3-8f8e-7a56dbbdc99c",
        "meta": {
          "profile": [
            "http://hl7.eu/fhir/laboratory/StructureDefinition/Observation-resultslab-eu-lab"
          ]
        },
        "performer": [
          {
            "display": "The Central European Lab"
          }
        ],
        "category": [
          {
            "coding": [
              {
                "system": "http://terminology.hl7.org/CodeSystem/observation-category",
                "code": "laboratory"
              }
            ]
          }
        ],
        "code": {
          "coding": [
            {
              "code": "5794-3",
              "system": "http://loinc.org",
              "display": "Hemoglobin [Presence] in Urine by Test strip"
            }
          ],
          "text": "Hemoglobin [Presence] in Urine by Test strip"
        },
        "text": {
          "status": "generated",
          "div": "<div xmlns=\"http://www.w3.org/1999/xhtml\"><table class=\"hl7__eu__lab__report\"><tr><th>Test</th><th>11-Jul-2019</th><th>Reference&#xA0;Range</th><th>Unit</th></tr><tr><td>Hemoglobin [Presence] in Urine by Test strip</td></tr></table></div>"
        },
        "status": "final",
        "subject": {
          "reference": "urn:uuid:88d06c3b-e5a4-4d77-b949-0ca2238db3f1",
          "display": "Molly Jenkins"
        },
        "effectiveDateTime": "2019-07-11T14:42:11Z",
        "specimen": {
          "reference": "urn:uuid:a0be7778-edbd-450a-997f-3ded9fd4ac61"
        }
      }
    },
    {
      "fullUrl": "urn:uuid:80eecae7-7abb-4fcd-9b72-714ba22919d3",
      "resource": {
        "resourceType": "Observation",
        "id": "80eecae7-7abb-4fcd-9b72-714ba22919d3",
        "meta": {
          "profile": [
            "http://hl7.eu/fhir/laboratory/StructureDefinition/Observation-resultslab-eu-lab"
          ]
        },
        "performer": [
          {
            "display": "The Central European Lab"
          }
        ],
        "category": [
          {
            "coding": [
              {
                "system": "http://terminology.hl7.org/CodeSystem/observation-category",
                "code": "laboratory"
              }
            ]
          }
        ],
        "code": {
          "coding": [
            {
              "code": "5799-2",
              "system": "http://loinc.org",
              "display": "Leukocyte esterase [Presence] in Urine by Test strip"
            }
          ],
          "text": "Leukocyte esterase [Presence] in Urine by Test strip"
        },
        "text": {
          "status": "generated",
          "div": "<div xmlns=\"http://www.w3.org/1999/xhtml\"><table class=\"hl7__eu__lab__report\"><tr><th>Test</th><th>11-Jul-2019</th><th>Reference&#xA0;Range</th><th>Unit</th></tr><tr><td>Leukocyte esterase [Presence] in Urine by Test strip</td></tr></table></div>"
        },
        "status": "final",
        "subject": {
          "reference": "urn:uuid:88d06c3b-e5a4-4d77-b949-0ca2238db3f1",
          "display": "Molly Jenkins"
        },
        "effectiveDateTime": "2019-07-11T14:42:11Z",
        "specimen": {
          "reference": "urn:uuid:a0be7778-edbd-450a-997f-3ded9fd4ac61"
        }
      }
    },
    {
      "fullUrl": "urn:uuid:d6ebb2dc-fe16-4585-854d-0a1919db208b",
      "resource": {
        "resourceType": "Observation",
        "id": "d6ebb2dc-fe16-4585-854d-0a1919db208b",
        "meta": {
          "profile": [
            "http://hl7.eu/fhir/laboratory/StructureDefinition/Observation-resultslab-eu-lab"
          ]
        },
        "performer": [
          {
            "display": "The Central European Lab"
          }
        ],
        "category": [
          {
            "coding": [
              {
                "system": "http://terminology.hl7.org/CodeSystem/observation-category",
                "code": "laboratory"
              }
            ]
          }
        ],
        "code": {
          "coding": [
            {
              "code": "4548-4",
              "system": "http://loinc.org",
              "display": "Hemoglobin A1c/Hemoglobin.total in Blood"
            }
          ],
          "text": "Hemoglobin A1c/Hemoglobin.total in Blood"
        },
        "valueQuantity": {
          "system": "http://unitsofmeasure.org",
          "value": 3.2,
          "unit": "%",
          "code": "%"
        },
        "referenceRange": [
          {
            "low": {
              "value": 4,
              "code": "%",
              "system": "http://unitsofmeasure.org"
            }
          },
          {
            "high": {
              "value": 6,
              "code": "%",
              "system": "http://unitsofmeasure.org"
            }
          }
        ],
        "interpretation": [
          {
            "coding": [
              {
                "code": "L",
                "system": "http://terminology.hl7.org/CodeSystem/v3-ObservationInterpretation",
                "display": "Low"
              }
            ]
          }
        ],
        "text": {
          "status": "generated",
          "div": "<div xmlns=\"http://www.w3.org/1999/xhtml\"><table class=\"hl7__eu__lab__report\"><tr><th>Test</th><th>11-Jul-2019</th><th>Reference&#xA0;Range</th><th>Unit</th></tr><tr><td>Hemoglobin A1c/Hemoglobin.total in Blood</td><td>3.2</td><td>4 - 6</td><td>L</td><td>%</td></tr></table></div>"
        },
        "status": "final",
        "subject": {
          "reference": "urn:uuid:88d06c3b-e5a4-4d77-b949-0ca2238db3f1",
          "display": "Molly Jenkins"
        },
        "effectiveDateTime": "2019-07-11T14:42:11Z",
        "specimen": {
          "reference": "urn:uuid:5ab25437-d7b4-4021-b2bd-ec86e3640759"
        }
      }
    },
    {
      "fullUrl": "urn:uuid:16b46259-5629-4a48-abd4-75f71537a1b4",
      "resource": {
        "resourceType": "Observation",
        "id": "16b46259-5629-4a48-abd4-75f71537a1b4",
        "meta": {
          "profile": [
            "http://hl7.eu/fhir/laboratory/StructureDefinition/Observation-resultslab-eu-lab"
          ]
        },
        "performer": [
          {
            "display": "The Central European Lab"
          }
        ],
        "category": [
          {
            "coding": [
              {
                "system": "http://terminology.hl7.org/CodeSystem/observation-category",
                "code": "laboratory"
              }
            ]
          }
        ],
        "code": {
          "coding": [
            {
              "code": "2339-0",
              "system": "http://loinc.org",
              "display": "Glucose [Mass/volume] in Blood"
            }
          ],
          "text": "Glucose [Mass/volume] in Blood"
        },
        "valueQuantity": {
          "system": "http://unitsofmeasure.org",
          "value": 70.1,
          "unit": "mg/dL",
          "code": "mg/dL"
        },
        "referenceRange": [
          {
            "low": {
              "value": 70,
              "code": "mg/dL",
              "system": "http://unitsofmeasure.org"
            }
          },
          {
            "high": {
              "value": 100,
              "code": "mg/dL",
              "system": "http://unitsofmeasure.org"
            }
          }
        ],
        "text": {
          "status": "generated",
          "div": "<div xmlns=\"http://www.w3.org/1999/xhtml\"><table class=\"hl7__eu__lab__report\"><tr><th>Test</th><th>11-Jul-2019</th><th>Reference&#xA0;Range</th><th>Unit</th></tr><tr><td>Glucose [Mass/volume] in Blood</td><td>70.1</td><td>70 - 100</td><td></td><td>mg/dL</td></tr></table></div>"
        },
        "status": "final",
        "subject": {
          "reference": "urn:uuid:88d06c3b-e5a4-4d77-b949-0ca2238db3f1",
          "display": "Molly Jenkins"
        },
        "effectiveDateTime": "2019-07-11T14:42:11Z",
        "specimen": {
          "reference": "urn:uuid:5ab25437-d7b4-4021-b2bd-ec86e3640759"
        }
      }
    },
    {
      "fullUrl": "urn:uuid:27fd1c25-1baa-4f17-b96f-37d72219420d",
      "resource": {
        "resourceType": "Observation",
        "id": "27fd1c25-1baa-4f17-b96f-37d72219420d",
        "meta": {
          "profile": [
            "http://hl7.eu/fhir/laboratory/StructureDefinition/Observation-resultslab-eu-lab"
          ]
        },
        "performer": [
          {
            "display": "The Central European Lab"
          }
        ],
        "category": [
          {
            "coding": [
              {
                "system": "http://terminology.hl7.org/CodeSystem/observation-category",
                "code": "laboratory"
              }
            ]
          }
        ],
        "code": {
          "coding": [
            {
              "code": "6299-2",
              "system": "http://loinc.org",
              "display": "Urea nitrogen [Mass/volume] in Blood"
            }
          ],
          "text": "Urea nitrogen [Mass/volume] in Blood"
        },
        "valueQuantity": {
          "system": "http://unitsofmeasure.org",
          "value": 8,
          "unit": "mg/dL",
          "code": "mg/dL"
        },
        "referenceRange": [
          {
            "low": {
              "value": 7,
              "code": "mg/dL",
              "system": "http://unitsofmeasure.org"
            }
          },
          {
            "high": {
              "value": 20,
              "code": "mg/dL",
              "system": "http://unitsofmeasure.org"
            }
          }
        ],
        "text": {
          "status": "generated",
          "div": "<div xmlns=\"http://www.w3.org/1999/xhtml\"><table class=\"hl7__eu__lab__report\"><tr><th>Test</th><th>11-Jul-2019</th><th>Reference&#xA0;Range</th><th>Unit</th></tr><tr><td>Urea nitrogen [Mass/volume] in Blood</td><td>8.0</td><td>7 - 20</td><td></td><td>mg/dL</td></tr></table></div>"
        },
        "status": "final",
        "subject": {
          "reference": "urn:uuid:88d06c3b-e5a4-4d77-b949-0ca2238db3f1",
          "display": "Molly Jenkins"
        },
        "effectiveDateTime": "2019-07-11T14:42:11Z",
        "specimen": {
          "reference": "urn:uuid:5ab25437-d7b4-4021-b2bd-ec86e3640759"
        }
      }
    },
    {
      "fullUrl": "urn:uuid:5165ad36-705a-4beb-96ed-1466a036783b",
      "resource": {
        "resourceType": "Observation",
        "id": "5165ad36-705a-4beb-96ed-1466a036783b",
        "meta": {
          "profile": [
            "http://hl7.eu/fhir/laboratory/StructureDefinition/Observation-resultslab-eu-lab"
          ]
        },
        "performer": [
          {
            "display": "The Central European Lab"
          }
        ],
        "category": [
          {
            "coding": [
              {
                "system": "http://terminology.hl7.org/CodeSystem/observation-category",
                "code": "laboratory"
              }
            ]
          }
        ],
        "code": {
          "coding": [
            {
              "code": "38483-4",
              "system": "http://loinc.org",
              "display": "Creatinine [Mass/volume] in Blood"
            }
          ],
          "text": "Creatinine [Mass/volume] in Blood"
        },
        "valueQuantity": {
          "system": "http://unitsofmeasure.org",
          "value": 1.8,
          "unit": "mg/dL",
          "code": "mg/dL"
        },
        "referenceRange": [
          {
            "low": {
              "value": 0.6,
              "code": "mg/dL",
              "system": "http://unitsofmeasure.org"
            }
          },
          {
            "high": {
              "value": 1.3,
              "code": "mg/dL",
              "system": "http://unitsofmeasure.org"
            }
          }
        ],
        "interpretation": [
          {
            "coding": [
              {
                "code": "H",
                "system": "http://terminology.hl7.org/CodeSystem/v3-ObservationInterpretation",
                "display": "High"
              }
            ]
          }
        ],
        "text": {
          "status": "generated",
          "div": "<div xmlns=\"http://www.w3.org/1999/xhtml\"><table class=\"hl7__eu__lab__report\"><tr><th>Test</th><th>11-Jul-2019</th><th>Reference&#xA0;Range</th><th>Unit</th></tr><tr><td>Creatinine [Mass/volume] in Blood</td><td>1.8</td><td>0.6 - 1.3</td><td>H</td><td>mg/dL</td></tr></table></div>"
        },
        "status": "final",
        "subject": {
          "reference": "urn:uuid:88d06c3b-e5a4-4d77-b949-0ca2238db3f1",
          "display": "Molly Jenkins"
        },
        "effectiveDateTime": "2019-07-11T14:42:11Z",
        "specimen": {
          "reference": "urn:uuid:5ab25437-d7b4-4021-b2bd-ec86e3640759"
        }
      }
    },
    {
      "fullUrl": "urn:uuid:a760869d-503d-410e-b225-024fc4959308",
      "resource": {
        "resourceType": "Observation",
        "id": "a760869d-503d-410e-b225-024fc4959308",
        "meta": {
          "profile": [
            "http://hl7.eu/fhir/laboratory/StructureDefinition/Observation-resultslab-eu-lab"
          ]
        },
        "performer": [
          {
            "display": "The Central European Lab"
          }
        ],
        "category": [
          {
            "coding": [
              {
                "system": "http://terminology.hl7.org/CodeSystem/observation-category",
                "code": "laboratory"
              }
            ]
          }
        ],
        "code": {
          "coding": [
            {
              "code": "49765-1",
              "system": "http://loinc.org",
              "display": "Calcium [Mass/volume] in Blood"
            }
          ],
          "text": "Calcium [Mass/volume] in Blood"
        },
        "valueQuantity": {
          "system": "http://unitsofmeasure.org",
          "value": 8.6,
          "unit": "mg/dL",
          "code": "mg/dL"
        },
        "referenceRange": [
          {
            "low": {
              "value": 8.6,
              "code": "mg/dL",
              "system": "http://unitsofmeasure.org"
            }
          },
          {
            "high": {
              "value": 10.4,
              "code": "mg/dL",
              "system": "http://unitsofmeasure.org"
            }
          }
        ],
        "text": {
          "status": "generated",
          "div": "<div xmlns=\"http://www.w3.org/1999/xhtml\"><table class=\"hl7__eu__lab__report\"><tr><th>Test</th><th>11-Jul-2019</th><th>Reference&#xA0;Range</th><th>Unit</th></tr><tr><td>Calcium [Mass/volume] in Blood</td><td>8.6</td><td>8.6 - 10.4</td><td></td><td>mg/dL</td></tr></table></div>"
        },
        "status": "final",
        "subject": {
          "reference": "urn:uuid:88d06c3b-e5a4-4d77-b949-0ca2238db3f1",
          "display": "Molly Jenkins"
        },
        "effectiveDateTime": "2019-07-11T14:42:11Z",
        "specimen": {
          "reference": "urn:uuid:5ab25437-d7b4-4021-b2bd-ec86e3640759"
        }
      }
    },
    {
      "fullUrl": "urn:uuid:b43cc0b4-88a1-4257-bb89-fd18731444ea",
      "resource": {
        "resourceType": "Observation",
        "id": "b43cc0b4-88a1-4257-bb89-fd18731444ea",
        "meta": {
          "profile": [
            "http://hl7.eu/fhir/laboratory/StructureDefinition/Observation-resultslab-eu-lab"
          ]
        },
        "performer": [
          {
            "display": "The Central European Lab"
          }
        ],
        "category": [
          {
            "coding": [
              {
                "system": "http://terminology.hl7.org/CodeSystem/observation-category",
                "code": "laboratory"
              }
            ]
          }
        ],
        "code": {
          "coding": [
            {
              "code": "2947-0",
              "system": "http://loinc.org",
              "display": "Sodium [Moles/volume] in Blood"
            }
          ],
          "text": "Sodium [Moles/volume] in Blood"
        },
        "valueQuantity": {
          "system": "http://unitsofmeasure.org",
          "value": 141.3,
          "unit": "mmol/L",
          "code": "mmol/L"
        },
        "referenceRange": [
          {
            "low": {
              "value": 135,
              "code": "mmol/L",
              "system": "http://unitsofmeasure.org"
            }
          },
          {
            "high": {
              "value": 145,
              "code": "mmol/L",
              "system": "http://unitsofmeasure.org"
            }
          }
        ],
        "text": {
          "status": "generated",
          "div": "<div xmlns=\"http://www.w3.org/1999/xhtml\"><table class=\"hl7__eu__lab__report\"><tr><th>Test</th><th>11-Jul-2019</th><th>Reference&#xA0;Range</th><th>Unit</th></tr><tr><td>Sodium [Moles/volume] in Blood</td><td>141.3</td><td>135 - 145</td><td></td><td>mmol/L</td></tr></table></div>"
        },
        "status": "final",
        "subject": {
          "reference": "urn:uuid:88d06c3b-e5a4-4d77-b949-0ca2238db3f1",
          "display": "Molly Jenkins"
        },
        "effectiveDateTime": "2019-07-11T14:42:11Z",
        "specimen": {
          "reference": "urn:uuid:5ab25437-d7b4-4021-b2bd-ec86e3640759"
        }
      }
    },
    {
      "fullUrl": "urn:uuid:39ee8b37-43cc-43be-884f-51410f31f9cb",
      "resource": {
        "resourceType": "Observation",
        "id": "39ee8b37-43cc-43be-884f-51410f31f9cb",
        "meta": {
          "profile": [
            "http://hl7.eu/fhir/laboratory/StructureDefinition/Observation-resultslab-eu-lab"
          ]
        },
        "performer": [
          {
            "display": "The Central European Lab"
          }
        ],
        "category": [
          {
            "coding": [
              {
                "system": "http://terminology.hl7.org/CodeSystem/observation-category",
                "code": "laboratory"
              }
            ]
          }
        ],
        "code": {
          "coding": [
            {
              "code": "6298-4",
              "system": "http://loinc.org",
              "display": "Potassium [Moles/volume] in Blood"
            }
          ],
          "text": "Potassium [Moles/volume] in Blood"
        },
        "valueQuantity": {
          "system": "http://unitsofmeasure.org",
          "value": 5,
          "unit": "mmol/L",
          "code": "mmol/L"
        },
        "referenceRange": [
          {
            "low": {
              "value": 3.5,
              "code": "mmol/L",
              "system": "http://unitsofmeasure.org"
            }
          },
          {
            "high": {
              "value": 5.1,
              "code": "mmol/L",
              "system": "http://unitsofmeasure.org"
            }
          }
        ],
        "text": {
          "status": "generated",
          "div": "<div xmlns=\"http://www.w3.org/1999/xhtml\"><table class=\"hl7__eu__lab__report\"><tr><th>Test</th><th>11-Jul-2019</th><th>Reference&#xA0;Range</th><th>Unit</th></tr><tr><td>Potassium [Moles/volume] in Blood</td><td>5.0</td><td>3.5 - 5.1</td><td></td><td>mmol/L</td></tr></table></div>"
        },
        "status": "final",
        "subject": {
          "reference": "urn:uuid:88d06c3b-e5a4-4d77-b949-0ca2238db3f1",
          "display": "Molly Jenkins"
        },
        "effectiveDateTime": "2019-07-11T14:42:11Z",
        "specimen": {
          "reference": "urn:uuid:5ab25437-d7b4-4021-b2bd-ec86e3640759"
        }
      }
    },
    {
      "fullUrl": "urn:uuid:875c0a9f-4e7f-4425-88e0-fa088f9e3f68",
      "resource": {
        "resourceType": "Observation",
        "id": "875c0a9f-4e7f-4425-88e0-fa088f9e3f68",
        "meta": {
          "profile": [
            "http://hl7.eu/fhir/laboratory/StructureDefinition/Observation-resultslab-eu-lab"
          ]
        },
        "performer": [
          {
            "display": "The Central European Lab"
          }
        ],
        "category": [
          {
            "coding": [
              {
                "system": "http://terminology.hl7.org/CodeSystem/observation-category",
                "code": "laboratory"
              }
            ]
          }
        ],
        "code": {
          "coding": [
            {
              "code": "2069-3",
              "system": "http://loinc.org",
              "display": "Chloride [Moles/volume] in Blood"
            }
          ],
          "text": "Chloride [Moles/volume] in Blood"
        },
        "valueQuantity": {
          "system": "http://unitsofmeasure.org",
          "value": 104.8,
          "unit": "mmol/L",
          "code": "mmol/L"
        },
        "referenceRange": [
          {
            "low": {
              "value": 98,
              "code": "mmol/L",
              "system": "http://unitsofmeasure.org"
            }
          },
          {
            "high": {
              "value": 110,
              "code": "mmol/L",
              "system": "http://unitsofmeasure.org"
            }
          }
        ],
        "text": {
          "status": "generated",
          "div": "<div xmlns=\"http://www.w3.org/1999/xhtml\"><table class=\"hl7__eu__lab__report\"><tr><th>Test</th><th>11-Jul-2019</th><th>Reference&#xA0;Range</th><th>Unit</th></tr><tr><td>Chloride [Moles/volume] in Blood</td><td>104.8</td><td>98 - 110</td><td></td><td>mmol/L</td></tr></table></div>"
        },
        "status": "final",
        "subject": {
          "reference": "urn:uuid:88d06c3b-e5a4-4d77-b949-0ca2238db3f1",
          "display": "Molly Jenkins"
        },
        "effectiveDateTime": "2019-07-11T14:42:11Z",
        "specimen": {
          "reference": "urn:uuid:5ab25437-d7b4-4021-b2bd-ec86e3640759"
        }
      }
    },
    {
      "fullUrl": "urn:uuid:8899eac9-06a4-4a2f-b187-141720fce477",
      "resource": {
        "resourceType": "Observation",
        "id": "8899eac9-06a4-4a2f-b187-141720fce477",
        "meta": {
          "profile": [
            "http://hl7.eu/fhir/laboratory/StructureDefinition/Observation-resultslab-eu-lab"
          ]
        },
        "performer": [
          {
            "display": "The Central European Lab"
          }
        ],
        "category": [
          {
            "coding": [
              {
                "system": "http://terminology.hl7.org/CodeSystem/observation-category",
                "code": "laboratory"
              }
            ]
          }
        ],
        "code": {
          "coding": [
            {
              "code": "20565-8",
              "system": "http://loinc.org",
              "display": "Carbon dioxide, total [Moles/volume] in Blood"
            }
          ],
          "text": "Carbon dioxide, total [Moles/volume] in Blood"
        },
        "valueQuantity": {
          "system": "http://unitsofmeasure.org",
          "value": 23.4,
          "unit": "mmol/L",
          "code": "mmol/L"
        },
        "referenceRange": [
          {
            "low": {
              "value": 22,
              "code": "mmol/L",
              "system": "http://unitsofmeasure.org"
            }
          },
          {
            "high": {
              "value": 29,
              "code": "mmol/L",
              "system": "http://unitsofmeasure.org"
            }
          }
        ],
        "text": {
          "status": "generated",
          "div": "<div xmlns=\"http://www.w3.org/1999/xhtml\"><table class=\"hl7__eu__lab__report\"><tr><th>Test</th><th>11-Jul-2019</th><th>Reference&#xA0;Range</th><th>Unit</th></tr><tr><td>Carbon dioxide, total [Moles/volume] in Blood</td><td>23.4</td><td>22 - 29</td><td></td><td>mmol/L</td></tr></table></div>"
        },
        "status": "final",
        "subject": {
          "reference": "urn:uuid:88d06c3b-e5a4-4d77-b949-0ca2238db3f1",
          "display": "Molly Jenkins"
        },
        "effectiveDateTime": "2019-07-11T14:42:11Z",
        "specimen": {
          "reference": "urn:uuid:5ab25437-d7b4-4021-b2bd-ec86e3640759"
        }
      }
    },
    {
      "fullUrl": "urn:uuid:fafb392d-eea8-4fd0-b810-6f60b68aa199",
      "resource": {
        "resourceType": "Device",
        "id": "fafb392d-eea8-4fd0-b810-6f60b68aa199",
        "deviceName": [
          {
            "name": "SYNDERAI Synthetic Generator",
            "type": "manufacturer-name"
          }
        ],
        "version": [
          {
            "value": "5.0"
          }
        ],
        "text": {
          "status": "generated",
          "div": "<div xmlns=\"http://www.w3.org/1999/xhtml\">SYNDERAI Synthetic Generator v5.0</div>"
        },
        "status": "active\"",
        "distinctIdentifier": "synderai-generator-50",
        "manufacturer": "SYNDERAI Project"
      }
    },
    {
      "fullUrl": "urn:uuid:aa4268ce-7b2b-4845-89ea-ce8ca85e762d",
      "resource": {
        "resourceType": "Provenance",
        "id": "aa4268ce-7b2b-4845-89ea-ce8ca85e762d",
        "target": [
          {
            "reference": "Patient/88d06c3b-e5a4-4d77-b949-0ca2238db3f1"
          },
          {
            "reference": "Bundle/841d9331-6db1-4210-ad53-f998ffbaa4e2"
          },
          {
            "reference": "Composition/1d1c151c-585c-4521-a460-75ee718615cd"
          },
          {
            "reference": "PractitionerRole/143f8fdf-3a75-4b18-b113-c1d7b6c133dc"
          },
          {
            "reference": "Practitioner/8977be34-f63e-4c7e-a43d-ffcc2c0192d6"
          },
          {
            "reference": "PractitionerRole/fa185095-4236-4a37-ad38-3f41291baa36"
          },
          {
            "reference": "Organization/3d8c4933-9b58-4be2-a2ec-57a85cba375d"
          }
        ],
        "activity": {
          "text": "Synthetic Example Data Generation"
        },
        "policy": [
          "https://synderai.net/synderai-synthetic-data-policy"
        ],
        "agent": [
          {
            "type": {
              "text": "author"
            },
            "who": {
              "reference": "Device/fafb392d-eea8-4fd0-b810-6f60b68aa199"
            }
          }
        ],
        "reason": [
          {
            "text": "Interoperability Testing and Training (non-clinical use)"
          }
        ],
        "text": {
          "status": "generated",
          "div": "<div xmlns=\"http://www.w3.org/1999/xhtml\">Provenance for SYNDERAI Synthetic Example Data Resource</div>"
        },
        "recorded": "2019-07-11T16:42:11Z"
      }
    },
    {
      "fullUrl": "urn:uuid:143f8fdf-3a75-4b18-b113-c1d7b6c133dc",
      "resource": {
        "resourceType": "PractitionerRole",
        "id": "143f8fdf-3a75-4b18-b113-c1d7b6c133dc",
        "meta": {
          "profile": [
            "http://hl7.eu/fhir/base/StructureDefinition/practitionerRole-eu"
          ]
        },
        "text": {
          "status": "generated",
          "div": "<div xmlns=\"http://www.w3.org/1999/xhtml\">Laboratory Role Id: 143f8fdf-3a75-4b18-b113-c1d7b6c133dc</div>"
        },
        "practitioner": {
          "reference": "urn:uuid:8977be34-f63e-4c7e-a43d-ffcc2c0192d6"
        }
      }
    },
    {
      "fullUrl": "urn:uuid:8977be34-f63e-4c7e-a43d-ffcc2c0192d6",
      "resource": {
        "resourceType": "Practitioner",
        "id": "8977be34-f63e-4c7e-a43d-ffcc2c0192d6",
        "meta": {
          "profile": [
            "http://hl7.eu/fhir/base/StructureDefinition/practitioner-eu"
          ]
        },
        "identifier": [
          {
            "assigner": {
              "display": "HL7 Europe"
            },
            "system": "urn:oid:2.16.840.1.113883.2.51.999",
            "value": "a142823a-03ea-4fd5-88db-a80e0795744c"
          }
        ],
        "name": [
          {
            "prefix": [
              "dr"
            ],
            "given": [
              "Ex"
            ],
            "family": "Ample"
          }
        ],
        "address": [
          {
            "line": [
              "Laboratoire Central Européenne",
              "Boulevard du Jardin Botanique 32"
            ],
            "postalCode": "1000",
            "city": "Brussels",
            "country": "Belgium"
          }
        ],
        "text": {
          "status": "generated",
          "div": "<div xmlns=\"http://www.w3.org/1999/xhtml\">Laboratory: Laboratoire Central Européenne, 1000 Brussels, Belgium</div>"
        }
      }
    }
  ],
  "type": "document",
  "timestamp": "2019-07-11T16:42:11Z"
}
