{
  "resourceType": "Bundle",
  "id": "0dc66511-1784-465b-9ff3-d6cfd6794142",
  "meta": {
    "profile": [
      "http://hl7.eu/fhir/laboratory/StructureDefinition/Bundle-eu-lab"
    ]
  },
  "identifier": {
    "assigner": {
      "display": "HL7 Europe"
    },
    "system": "urn:oid:2.16.840.1.113883.2.51.999",
    "value": "5e8f057a-314e-4e64-a7b9-45ada010fc38"
  },
  "entry": [
    {
      "fullUrl": "urn:uuid:ef168e14-dc21-4334-acfd-4e43cf7953b0",
      "resource": {
        "resourceType": "Composition",
        "id": "ef168e14-dc21-4334-acfd-4e43cf7953b0",
        "meta": {
          "profile": [
            "http://hl7.eu/fhir/laboratory/StructureDefinition/Composition-eu-lab"
          ]
        },
        "identifier": {
          "assigner": {
            "display": "HL7 Europe"
          },
          "system": "urn:oid:2.16.840.1.113883.2.51.999",
          "value": "ba3cb96c-282f-42b5-ae51-d286c2d76de0"
        },
        "author": [
          {
            "reference": "urn:uuid:90091d8a-42bb-4b4c-a69b-390e682cee45"
          }
        ],
        "category": [
          {
            "coding": [
              {
                "code": "26436-6",
                "system": "http://loinc.org",
                "display": "Laboratory studies (set)"
              }
            ]
          }
        ],
        "type": {
          "coding": [
            {
              "code": "11502-2",
              "system": "http://loinc.org",
              "display": "Laboratory report"
            }
          ],
          "text": "Laboratory Report"
        },
        "section": [
          {
            "code": {
              "coding": [
                {
                  "code": "26436-6",
                  "system": "http://loinc.org",
                  "display": "Laboratory studies (set)"
                }
              ],
              "text": "Laboratory studies"
            },
            "section": [
              {
                "code": {
                  "coding": [
                    {
                      "code": "$18719-5",
                      "system": "http://loinc.org",
                      "display": "Chemistry studies (set)"
                    }
                  ],
                  "text": "Chemistry"
                },
                "entry": [
                  {
                    "reference": "urn:uuid:77c82db9-21f1-4285-a4e8-6d8e58f3c277"
                  },
                  {
                    "reference": "urn:uuid:a906f151-7cfa-4fc1-91cc-da21c0f6471c"
                  },
                  {
                    "reference": "urn:uuid:5d6e96b0-649d-4624-8836-d2e16cc29d0b"
                  },
                  {
                    "reference": "urn:uuid:f949abf2-562b-49c4-9be2-a417577ee6fe"
                  },
                  {
                    "reference": "urn:uuid:db24dd67-5f38-4fbb-bb1d-f8a0a7e75a62"
                  },
                  {
                    "reference": "urn:uuid:d20fd615-9b32-45ad-a5ba-09a4b11ee4b9"
                  },
                  {
                    "reference": "urn:uuid:74febe68-77ba-495d-8964-292a3a8e15ad"
                  },
                  {
                    "reference": "urn:uuid:ffe5839e-85c3-48a3-8119-60e7737046c9"
                  },
                  {
                    "reference": "urn:uuid:c9b84ebe-19e9-4444-9da8-369096a64d38"
                  }
                ],
                "text": {
                  "status": "generated",
                  "div": "<div xmlns=\"http://www.w3.org/1999/xhtml\"><h3>Chemistry</h3><table class=\"hl7__eu__lab__report\"><thead><tr><th>Test</th><th>28-FEB-2016</th><th>Reference&#xA0;Range</th><th>Unit</th></tr></thead><tbody><tr><td>Hemoglobin A1c/Hemoglobin.total in Blood</td><td>6.0</td><td>4 - 6</td><td>%</td></tr><tr><td>Glucose [Mass/volume] in Blood</td><td><strong>64.4 L</strong></td><td>70 - 99</td><td>mg/dL</td></tr><tr><td>Urea nitrogen [Mass/volume] in Blood</td><td>10.6</td><td>7 - 20</td><td>mg/dL</td></tr><tr><td>Creatinine [Mass/volume] in Blood</td><td>1.3</td><td>0.6 - 1.3</td><td>mg/dL</td></tr><tr><td>Calcium [Mass/volume] in Blood</td><td>8.9</td><td>8.5 - 10.5</td><td>mg/dL</td></tr><tr><td>Sodium [Moles/volume] in Blood</td><td>137.1</td><td>135 - 145</td><td>mmol/L</td></tr><tr><td>Potassium [Moles/volume] in Blood</td><td>4.7</td><td>3.5 - 5.2</td><td>mmol/L</td></tr><tr><td>Chloride [Moles/volume] in Blood</td><td>104.5</td><td>98 - 114</td><td>mmol/L</td></tr><tr><td>Carbon dioxide, total [Moles/volume] in Blood</td><td><strong>23.6 L</strong></td><td>24 - 29</td><td>mmol/L</td></tr></tbody></table></div>"
                },
                "title": "Chemistry"
              }
            ],
            "title": "Laboratory Report"
          },
          {
            "text": {
              "status": "generated",
              "div": "<div xmlns=\"http://www.w3.org/1999/xhtml\"><h3>Annotation</h3><table class=\"hl7__eu__lab__report\"><tr><th>Conclusion and Recommendations based on this report and previous findings known to us</th></tr><tr><td>The results show a slightly elevated HbA1c at the upper limit of normal, suggesting possible impaired glucose regulation, and mild fasting hypoglycemia. Renal function, electrolytes, and calcium are within normal limits. Mildly decreased total CO₂ may indicate a tendency toward mild metabolic acidosis. Clinical correlation is recommended, especially regarding glucose metabolism and acid-base status.</td></tr></table></div>"
            },
            "code": {
              "coding": [
                {
                  "system": "http://loinc.org",
                  "code": "48767-8",
                  "display": "Annotation comment"
                }
              ]
            },
            "title": "Annotation comment"
          }
        ],
        "status": "final",
        "subject": {
          "reference": "urn:uuid:1e3a0c8c-8b55-456d-b77a-922a91a2ff0a",
          "display": "Benedetto Lombroso"
        },
        "date": "2016-02-28T08:22:02Z",
        "title": "Laboratory Report",
        "confidentiality": "N"
      }
    },
    {
      "fullUrl": "urn:uuid:ec24be65-194d-4470-aeed-d59090845a15",
      "resource": {
        "resourceType": "DiagnosticReport",
        "id": "ec24be65-194d-4470-aeed-d59090845a15",
        "meta": {
          "profile": [
            "http://hl7.eu/fhir/laboratory/StructureDefinition/DiagnosticReport-eu-lab"
          ]
        },
        "identifier": [
          {
            "assigner": {
              "display": "HL7 Europe"
            },
            "system": "urn:oid:2.16.840.1.113883.2.51.999",
            "value": "1235b154-544b-4c31-91bf-0cc4f4f5b6af"
          }
        ],
        "extension": [
          {
            "url": "http://hl7.org/fhir/5.0/StructureDefinition/extension-DiagnosticReport.composition",
            "valueReference": {
              "reference": "urn:uuid:ba3cb96c-282f-42b5-ae51-d286c2d76de0"
            }
          }
        ],
        "category": [
          {
            "coding": [
              {
                "code": "26436-6",
                "system": "http://loinc.org",
                "display": "Laboratory studies (set)"
              }
            ]
          }
        ],
        "specimen": [
          {
            "reference": "urn:uuid:f9a6203f-abe6-4bde-bf46-7f7b7e7c9bd7"
          }
        ],
        "result": [
          {
            "reference": "urn:uuid:77c82db9-21f1-4285-a4e8-6d8e58f3c277"
          },
          {
            "reference": "urn:uuid:a906f151-7cfa-4fc1-91cc-da21c0f6471c"
          },
          {
            "reference": "urn:uuid:5d6e96b0-649d-4624-8836-d2e16cc29d0b"
          },
          {
            "reference": "urn:uuid:f949abf2-562b-49c4-9be2-a417577ee6fe"
          },
          {
            "reference": "urn:uuid:db24dd67-5f38-4fbb-bb1d-f8a0a7e75a62"
          },
          {
            "reference": "urn:uuid:d20fd615-9b32-45ad-a5ba-09a4b11ee4b9"
          },
          {
            "reference": "urn:uuid:74febe68-77ba-495d-8964-292a3a8e15ad"
          },
          {
            "reference": "urn:uuid:ffe5839e-85c3-48a3-8119-60e7737046c9"
          },
          {
            "reference": "urn:uuid:c9b84ebe-19e9-4444-9da8-369096a64d38"
          }
        ],
        "status": "registered",
        "code": {
          "coding": [
            {
              "code": "11502-2",
              "system": "http://loinc.org",
              "display": "Laboratory report"
            }
          ]
        },
        "subject": {
          "reference": "urn:uuid:1e3a0c8c-8b55-456d-b77a-922a91a2ff0a",
          "display": "Benedetto Lombroso"
        }
      }
    },
    {
      "fullUrl": "urn:uuid:1e3a0c8c-8b55-456d-b77a-922a91a2ff0a",
      "resource": {
        "resourceType": "Patient",
        "id": "1e3a0c8c-8b55-456d-b77a-922a91a2ff0a",
        "meta": {
          "security": [
            {
              "system": "http://terminology.hl7.org/CodeSystem/v3-ActReason",
              "code": "HTEST"
            },
            {
              "system": "http://terminology.hl7.org/CodeSystem/v3-ActReason",
              "code": "TRAIN"
            }
          ],
          "tag": [
            {
              "system": "https://synderai.net/fhir/CodeSystem/tags",
              "code": "synthetic",
              "display": "SYNDERAI Synthetic data"
            }
          ],
          "profile": [
            "http://hl7.eu/fhir/base/StructureDefinition/patient-eu-core"
          ]
        },
        "identifier": [
          {
            "type": {
              "coding": [
                {
                  "code": "PT",
                  "system": "http://terminology.hl7.org/CodeSystem/v2-0203"
                }
              ]
            },
            "system": "http://ec.europa.eu/identifier/eci",
            "value": "9244-804304-9"
          },
          {
            "type": {
              "coding": [
                {
                  "code": "MR",
                  "system": "http://terminology.hl7.org/CodeSystem/v2-0203"
                }
              ]
            },
            "system": "http://local.setting.eu/identifier",
            "value": "320c36e6-403e-bb27-4756-8ebdd21bc0e5"
          }
        ],
        "name": [
          {
            "family": "Lombroso"
          },
          {
            "given": [
              "Benedetto"
            ]
          },
          {
            "text": "Benedetto Lombroso"
          }
        ],
        "address": [
          {
            "line": [
              "Stretto Zaccagnini, 924"
            ],
            "use": "home",
            "type": "physical",
            "postalCode": "37121",
            "city": "Verona",
            "country": "Italy"
          }
        ],
        "telecom": [
          {
            "system": "phone",
            "value": "+39 016691228"
          }
        ],
        "extension": [
          {
            "url": "http://hl7.org/fhir/StructureDefinition/patient-nationality",
            "valueCodeableConcept": {
              "coding": [
                {
                  "code": "IT",
                  "system": "http://hl7.org/fhir/ValueSet/country"
                }
              ]
            }
          }
        ],
        "text": {
          "status": "generated",
          "div": "<div xmlns=\"http://www.w3.org/1999/xhtml\"><table class=\"hl7__ips\"><tr><td>Benedetto Lombroso</td><td>male</td><td>07-May-1989</td></tr></table></div>"
        },
        "gender": "male",
        "birthDate": "1989-05-07"
      }
    },
    {
      "fullUrl": "urn:uuid:310bbd4e-d17c-48a6-b9d8-d2e10c164cd9",
      "resource": {
        "resourceType": "ServiceRequest",
        "id": "310bbd4e-d17c-48a6-b9d8-d2e10c164cd9",
        "meta": {
          "profile": [
            "http://hl7.eu/fhir/laboratory/StructureDefinition/ServiceRequest-eu-lab"
          ]
        },
        "identifier": [
          {
            "system": "http://example.org",
            "value": "ac70bc94-a1b1-4b7e-a7c1-bb79521f3ee6"
          }
        ],
        "specimen": [
          {
            "reference": "urn:uuid:f9a6203f-abe6-4bde-bf46-7f7b7e7c9bd7"
          }
        ],
        "reasonCode": [
          {
            "coding": [
              {
                "code": "15777000",
                "system": "http://snomed.info/sct",
                "display": "Prediabetes"
              }
            ]
          },
          {
            "coding": [
              {
                "code": "271737000",
                "system": "http://snomed.info/sct",
                "display": "Anemia"
              }
            ]
          }
        ],
        "status": "active",
        "intent": "order",
        "code": {
          "coding": [
            {
              "code": "108252007",
              "system": "http://snomed.info/sct",
              "display": "Laboratory procedure"
            }
          ]
        },
        "subject": {
          "reference": "urn:uuid:1e3a0c8c-8b55-456d-b77a-922a91a2ff0a",
          "display": "Benedetto Lombroso"
        },
        "requester": {
          "reference": "urn:uuid:cd785a5d-8571-4863-bdb9-7e7ee10642bf"
        }
      }
    },
    {
      "fullUrl": "urn:uuid:cd785a5d-8571-4863-bdb9-7e7ee10642bf",
      "resource": {
        "resourceType": "PractitionerRole",
        "id": "cd785a5d-8571-4863-bdb9-7e7ee10642bf",
        "meta": {
          "profile": [
            "http://hl7.eu/fhir/base/StructureDefinition/practitionerRole-eu"
          ]
        },
        "text": {
          "status": "generated",
          "div": "<div xmlns=\"http://www.w3.org/1999/xhtml\">Provider Role Id: cd785a5d-8571-4863-bdb9-7e7ee10642bf</div>"
        },
        "organization": {
          "reference": "urn:uuid:d93ce6a4-e5a2-4722-9682-17cd07c7254f"
        }
      }
    },
    {
      "fullUrl": "urn:uuid:d93ce6a4-e5a2-4722-9682-17cd07c7254f",
      "resource": {
        "resourceType": "Organization",
        "id": "d93ce6a4-e5a2-4722-9682-17cd07c7254f",
        "meta": {
          "profile": [
            "http://hl7.eu/fhir/base/StructureDefinition/organization-eu"
          ]
        },
        "identifier": [
          {
            "assigner": {
              "display": "HL7 Europe"
            },
            "system": "urn:oid:2.16.840.1.113883.2.51.999",
            "value": "fe79bac6-dff5-4f51-9621-2f45261f1bea"
          }
        ],
        "address": [
          {
            "line": [
              "Piazzale Aristide Stefani 1"
            ],
            "city": "Verona",
            "postalCode": "37124",
            "country": "Italy"
          }
        ],
        "text": {
          "status": "generated",
          "div": "<div xmlns=\"http://www.w3.org/1999/xhtml\">Provider Organization: Ospedale Civile Maggiore</div>"
        },
        "name": "Ospedale Civile Maggiore"
      }
    },
    {
      "fullUrl": "urn:uuid:f9a6203f-abe6-4bde-bf46-7f7b7e7c9bd7",
      "resource": {
        "resourceType": "Specimen",
        "id": "f9a6203f-abe6-4bde-bf46-7f7b7e7c9bd7",
        "meta": {
          "profile": [
            "http://hl7.eu/fhir/laboratory/StructureDefinition/Specimen-eu-lab"
          ]
        },
        "collection": {
          "collectedDateTime": "2016-02-28"
        },
        "text": {
          "status": "generated",
          "div": "<div xmlns=\"http://www.w3.org/1999/xhtml\"><table class=\"hl7__eu__lab__report\"><tr><th>Specimen</th><th>Collection Date</th></tr><tr><td>Whole blood specimen (specimen)</td><td><span class=\"nb\">28-Feb-2016</span></td></tr></table></div>"
        },
        "type": {
          "coding": [
            {
              "code": "258580003",
              "system": "http://snomed.info/sct",
              "display": "Whole blood specimen (specimen)"
            }
          ]
        }
      }
    },
    {
      "fullUrl": "urn:uuid:77c82db9-21f1-4285-a4e8-6d8e58f3c277",
      "resource": {
        "resourceType": "Observation",
        "id": "77c82db9-21f1-4285-a4e8-6d8e58f3c277",
        "meta": {
          "profile": [
            "http://hl7.eu/fhir/laboratory/StructureDefinition/Observation-resultslab-eu-lab"
          ]
        },
        "performer": [
          {
            "display": "The Central European Lab"
          }
        ],
        "category": [
          {
            "coding": [
              {
                "system": "http://terminology.hl7.org/CodeSystem/observation-category",
                "code": "laboratory"
              }
            ]
          }
        ],
        "code": {
          "coding": [
            {
              "code": "4548-4",
              "system": "http://loinc.org",
              "display": "Hemoglobin A1c/Hemoglobin.total in Blood"
            }
          ],
          "text": "Hemoglobin A1c/Hemoglobin.total in Blood"
        },
        "valueQuantity": {
          "system": "http://unitsofmeasure.org",
          "value": 6,
          "unit": "%",
          "code": "%"
        },
        "referenceRange": [
          {
            "low": {
              "value": 4,
              "code": "%",
              "system": "http://unitsofmeasure.org"
            }
          },
          {
            "high": {
              "value": 6,
              "code": "%",
              "system": "http://unitsofmeasure.org"
            }
          }
        ],
        "text": {
          "status": "generated",
          "div": "<div xmlns=\"http://www.w3.org/1999/xhtml\"><table class=\"hl7__eu__lab__report\"><tr><th>Test</th><th>28-Feb-2016</th><th>Reference&#xA0;Range</th><th>Unit</th></tr><tr><td>Hemoglobin A1c/Hemoglobin.total in Blood</td><td>6.0</td><td>4 - 6</td><td></td><td>%</td></tr></table></div>"
        },
        "status": "final",
        "subject": {
          "reference": "urn:uuid:1e3a0c8c-8b55-456d-b77a-922a91a2ff0a",
          "display": "Benedetto Lombroso"
        },
        "effectiveDateTime": "2016-02-28T07:22:02Z",
        "specimen": {
          "reference": "urn:uuid:f9a6203f-abe6-4bde-bf46-7f7b7e7c9bd7"
        }
      }
    },
    {
      "fullUrl": "urn:uuid:a906f151-7cfa-4fc1-91cc-da21c0f6471c",
      "resource": {
        "resourceType": "Observation",
        "id": "a906f151-7cfa-4fc1-91cc-da21c0f6471c",
        "meta": {
          "profile": [
            "http://hl7.eu/fhir/laboratory/StructureDefinition/Observation-resultslab-eu-lab"
          ]
        },
        "performer": [
          {
            "display": "The Central European Lab"
          }
        ],
        "category": [
          {
            "coding": [
              {
                "system": "http://terminology.hl7.org/CodeSystem/observation-category",
                "code": "laboratory"
              }
            ]
          }
        ],
        "code": {
          "coding": [
            {
              "code": "2339-0",
              "system": "http://loinc.org",
              "display": "Glucose [Mass/volume] in Blood"
            }
          ],
          "text": "Glucose [Mass/volume] in Blood"
        },
        "valueQuantity": {
          "system": "http://unitsofmeasure.org",
          "value": 64.4,
          "unit": "mg/dL",
          "code": "mg/dL"
        },
        "referenceRange": [
          {
            "low": {
              "value": 70,
              "code": "mg/dL",
              "system": "http://unitsofmeasure.org"
            }
          },
          {
            "high": {
              "value": 99,
              "code": "mg/dL",
              "system": "http://unitsofmeasure.org"
            }
          }
        ],
        "interpretation": [
          {
            "coding": [
              {
                "code": "L",
                "system": "http://terminology.hl7.org/CodeSystem/v3-ObservationInterpretation",
                "display": "Low"
              }
            ]
          }
        ],
        "text": {
          "status": "generated",
          "div": "<div xmlns=\"http://www.w3.org/1999/xhtml\"><table class=\"hl7__eu__lab__report\"><tr><th>Test</th><th>28-Feb-2016</th><th>Reference&#xA0;Range</th><th>Unit</th></tr><tr><td>Glucose [Mass/volume] in Blood</td><td>64.4</td><td>70 - 99</td><td>L</td><td>mg/dL</td></tr></table></div>"
        },
        "status": "final",
        "subject": {
          "reference": "urn:uuid:1e3a0c8c-8b55-456d-b77a-922a91a2ff0a",
          "display": "Benedetto Lombroso"
        },
        "effectiveDateTime": "2016-02-28T07:22:02Z",
        "specimen": {
          "reference": "urn:uuid:f9a6203f-abe6-4bde-bf46-7f7b7e7c9bd7"
        }
      }
    },
    {
      "fullUrl": "urn:uuid:5d6e96b0-649d-4624-8836-d2e16cc29d0b",
      "resource": {
        "resourceType": "Observation",
        "id": "5d6e96b0-649d-4624-8836-d2e16cc29d0b",
        "meta": {
          "profile": [
            "http://hl7.eu/fhir/laboratory/StructureDefinition/Observation-resultslab-eu-lab"
          ]
        },
        "performer": [
          {
            "display": "The Central European Lab"
          }
        ],
        "category": [
          {
            "coding": [
              {
                "system": "http://terminology.hl7.org/CodeSystem/observation-category",
                "code": "laboratory"
              }
            ]
          }
        ],
        "code": {
          "coding": [
            {
              "code": "6299-2",
              "system": "http://loinc.org",
              "display": "Urea nitrogen [Mass/volume] in Blood"
            }
          ],
          "text": "Urea nitrogen [Mass/volume] in Blood"
        },
        "valueQuantity": {
          "system": "http://unitsofmeasure.org",
          "value": 10.6,
          "unit": "mg/dL",
          "code": "mg/dL"
        },
        "referenceRange": [
          {
            "low": {
              "value": 7,
              "code": "mg/dL",
              "system": "http://unitsofmeasure.org"
            }
          },
          {
            "high": {
              "value": 20,
              "code": "mg/dL",
              "system": "http://unitsofmeasure.org"
            }
          }
        ],
        "text": {
          "status": "generated",
          "div": "<div xmlns=\"http://www.w3.org/1999/xhtml\"><table class=\"hl7__eu__lab__report\"><tr><th>Test</th><th>28-Feb-2016</th><th>Reference&#xA0;Range</th><th>Unit</th></tr><tr><td>Urea nitrogen [Mass/volume] in Blood</td><td>10.6</td><td>7 - 20</td><td></td><td>mg/dL</td></tr></table></div>"
        },
        "status": "final",
        "subject": {
          "reference": "urn:uuid:1e3a0c8c-8b55-456d-b77a-922a91a2ff0a",
          "display": "Benedetto Lombroso"
        },
        "effectiveDateTime": "2016-02-28T07:22:02Z",
        "specimen": {
          "reference": "urn:uuid:f9a6203f-abe6-4bde-bf46-7f7b7e7c9bd7"
        }
      }
    },
    {
      "fullUrl": "urn:uuid:f949abf2-562b-49c4-9be2-a417577ee6fe",
      "resource": {
        "resourceType": "Observation",
        "id": "f949abf2-562b-49c4-9be2-a417577ee6fe",
        "meta": {
          "profile": [
            "http://hl7.eu/fhir/laboratory/StructureDefinition/Observation-resultslab-eu-lab"
          ]
        },
        "performer": [
          {
            "display": "The Central European Lab"
          }
        ],
        "category": [
          {
            "coding": [
              {
                "system": "http://terminology.hl7.org/CodeSystem/observation-category",
                "code": "laboratory"
              }
            ]
          }
        ],
        "code": {
          "coding": [
            {
              "code": "38483-4",
              "system": "http://loinc.org",
              "display": "Creatinine [Mass/volume] in Blood"
            }
          ],
          "text": "Creatinine [Mass/volume] in Blood"
        },
        "valueQuantity": {
          "system": "http://unitsofmeasure.org",
          "value": 1.3,
          "unit": "mg/dL",
          "code": "mg/dL"
        },
        "referenceRange": [
          {
            "low": {
              "value": 0.6,
              "code": "mg/dL",
              "system": "http://unitsofmeasure.org"
            }
          },
          {
            "high": {
              "value": 1.3,
              "code": "mg/dL",
              "system": "http://unitsofmeasure.org"
            }
          }
        ],
        "text": {
          "status": "generated",
          "div": "<div xmlns=\"http://www.w3.org/1999/xhtml\"><table class=\"hl7__eu__lab__report\"><tr><th>Test</th><th>28-Feb-2016</th><th>Reference&#xA0;Range</th><th>Unit</th></tr><tr><td>Creatinine [Mass/volume] in Blood</td><td>1.3</td><td>0.6 - 1.3</td><td></td><td>mg/dL</td></tr></table></div>"
        },
        "status": "final",
        "subject": {
          "reference": "urn:uuid:1e3a0c8c-8b55-456d-b77a-922a91a2ff0a",
          "display": "Benedetto Lombroso"
        },
        "effectiveDateTime": "2016-02-28T07:22:02Z",
        "specimen": {
          "reference": "urn:uuid:f9a6203f-abe6-4bde-bf46-7f7b7e7c9bd7"
        }
      }
    },
    {
      "fullUrl": "urn:uuid:db24dd67-5f38-4fbb-bb1d-f8a0a7e75a62",
      "resource": {
        "resourceType": "Observation",
        "id": "db24dd67-5f38-4fbb-bb1d-f8a0a7e75a62",
        "meta": {
          "profile": [
            "http://hl7.eu/fhir/laboratory/StructureDefinition/Observation-resultslab-eu-lab"
          ]
        },
        "performer": [
          {
            "display": "The Central European Lab"
          }
        ],
        "category": [
          {
            "coding": [
              {
                "system": "http://terminology.hl7.org/CodeSystem/observation-category",
                "code": "laboratory"
              }
            ]
          }
        ],
        "code": {
          "coding": [
            {
              "code": "49765-1",
              "system": "http://loinc.org",
              "display": "Calcium [Mass/volume] in Blood"
            }
          ],
          "text": "Calcium [Mass/volume] in Blood"
        },
        "valueQuantity": {
          "system": "http://unitsofmeasure.org",
          "value": 8.9,
          "unit": "mg/dL",
          "code": "mg/dL"
        },
        "referenceRange": [
          {
            "low": {
              "value": 8.5,
              "code": "mg/dL",
              "system": "http://unitsofmeasure.org"
            }
          },
          {
            "high": {
              "value": 10.5,
              "code": "mg/dL",
              "system": "http://unitsofmeasure.org"
            }
          }
        ],
        "text": {
          "status": "generated",
          "div": "<div xmlns=\"http://www.w3.org/1999/xhtml\"><table class=\"hl7__eu__lab__report\"><tr><th>Test</th><th>28-Feb-2016</th><th>Reference&#xA0;Range</th><th>Unit</th></tr><tr><td>Calcium [Mass/volume] in Blood</td><td>8.9</td><td>8.5 - 10.5</td><td></td><td>mg/dL</td></tr></table></div>"
        },
        "status": "final",
        "subject": {
          "reference": "urn:uuid:1e3a0c8c-8b55-456d-b77a-922a91a2ff0a",
          "display": "Benedetto Lombroso"
        },
        "effectiveDateTime": "2016-02-28T07:22:02Z",
        "specimen": {
          "reference": "urn:uuid:f9a6203f-abe6-4bde-bf46-7f7b7e7c9bd7"
        }
      }
    },
    {
      "fullUrl": "urn:uuid:d20fd615-9b32-45ad-a5ba-09a4b11ee4b9",
      "resource": {
        "resourceType": "Observation",
        "id": "d20fd615-9b32-45ad-a5ba-09a4b11ee4b9",
        "meta": {
          "profile": [
            "http://hl7.eu/fhir/laboratory/StructureDefinition/Observation-resultslab-eu-lab"
          ]
        },
        "performer": [
          {
            "display": "The Central European Lab"
          }
        ],
        "category": [
          {
            "coding": [
              {
                "system": "http://terminology.hl7.org/CodeSystem/observation-category",
                "code": "laboratory"
              }
            ]
          }
        ],
        "code": {
          "coding": [
            {
              "code": "2947-0",
              "system": "http://loinc.org",
              "display": "Sodium [Moles/volume] in Blood"
            }
          ],
          "text": "Sodium [Moles/volume] in Blood"
        },
        "valueQuantity": {
          "system": "http://unitsofmeasure.org",
          "value": 137.1,
          "unit": "mmol/L",
          "code": "mmol/L"
        },
        "referenceRange": [
          {
            "low": {
              "value": 135,
              "code": "mmol/L",
              "system": "http://unitsofmeasure.org"
            }
          },
          {
            "high": {
              "value": 145,
              "code": "mmol/L",
              "system": "http://unitsofmeasure.org"
            }
          }
        ],
        "text": {
          "status": "generated",
          "div": "<div xmlns=\"http://www.w3.org/1999/xhtml\"><table class=\"hl7__eu__lab__report\"><tr><th>Test</th><th>28-Feb-2016</th><th>Reference&#xA0;Range</th><th>Unit</th></tr><tr><td>Sodium [Moles/volume] in Blood</td><td>137.1</td><td>135 - 145</td><td></td><td>mmol/L</td></tr></table></div>"
        },
        "status": "final",
        "subject": {
          "reference": "urn:uuid:1e3a0c8c-8b55-456d-b77a-922a91a2ff0a",
          "display": "Benedetto Lombroso"
        },
        "effectiveDateTime": "2016-02-28T07:22:02Z",
        "specimen": {
          "reference": "urn:uuid:f9a6203f-abe6-4bde-bf46-7f7b7e7c9bd7"
        }
      }
    },
    {
      "fullUrl": "urn:uuid:74febe68-77ba-495d-8964-292a3a8e15ad",
      "resource": {
        "resourceType": "Observation",
        "id": "74febe68-77ba-495d-8964-292a3a8e15ad",
        "meta": {
          "profile": [
            "http://hl7.eu/fhir/laboratory/StructureDefinition/Observation-resultslab-eu-lab"
          ]
        },
        "performer": [
          {
            "display": "The Central European Lab"
          }
        ],
        "category": [
          {
            "coding": [
              {
                "system": "http://terminology.hl7.org/CodeSystem/observation-category",
                "code": "laboratory"
              }
            ]
          }
        ],
        "code": {
          "coding": [
            {
              "code": "6298-4",
              "system": "http://loinc.org",
              "display": "Potassium [Moles/volume] in Blood"
            }
          ],
          "text": "Potassium [Moles/volume] in Blood"
        },
        "valueQuantity": {
          "system": "http://unitsofmeasure.org",
          "value": 4.7,
          "unit": "mmol/L",
          "code": "mmol/L"
        },
        "referenceRange": [
          {
            "low": {
              "value": 3.5,
              "code": "mmol/L",
              "system": "http://unitsofmeasure.org"
            }
          },
          {
            "high": {
              "value": 5.2,
              "code": "mmol/L",
              "system": "http://unitsofmeasure.org"
            }
          }
        ],
        "text": {
          "status": "generated",
          "div": "<div xmlns=\"http://www.w3.org/1999/xhtml\"><table class=\"hl7__eu__lab__report\"><tr><th>Test</th><th>28-Feb-2016</th><th>Reference&#xA0;Range</th><th>Unit</th></tr><tr><td>Potassium [Moles/volume] in Blood</td><td>4.7</td><td>3.5 - 5.2</td><td></td><td>mmol/L</td></tr></table></div>"
        },
        "status": "final",
        "subject": {
          "reference": "urn:uuid:1e3a0c8c-8b55-456d-b77a-922a91a2ff0a",
          "display": "Benedetto Lombroso"
        },
        "effectiveDateTime": "2016-02-28T07:22:02Z",
        "specimen": {
          "reference": "urn:uuid:f9a6203f-abe6-4bde-bf46-7f7b7e7c9bd7"
        }
      }
    },
    {
      "fullUrl": "urn:uuid:ffe5839e-85c3-48a3-8119-60e7737046c9",
      "resource": {
        "resourceType": "Observation",
        "id": "ffe5839e-85c3-48a3-8119-60e7737046c9",
        "meta": {
          "profile": [
            "http://hl7.eu/fhir/laboratory/StructureDefinition/Observation-resultslab-eu-lab"
          ]
        },
        "performer": [
          {
            "display": "The Central European Lab"
          }
        ],
        "category": [
          {
            "coding": [
              {
                "system": "http://terminology.hl7.org/CodeSystem/observation-category",
                "code": "laboratory"
              }
            ]
          }
        ],
        "code": {
          "coding": [
            {
              "code": "2069-3",
              "system": "http://loinc.org",
              "display": "Chloride [Moles/volume] in Blood"
            }
          ],
          "text": "Chloride [Moles/volume] in Blood"
        },
        "valueQuantity": {
          "system": "http://unitsofmeasure.org",
          "value": 104.5,
          "unit": "mmol/L",
          "code": "mmol/L"
        },
        "referenceRange": [
          {
            "low": {
              "value": 98,
              "code": "mmol/L",
              "system": "http://unitsofmeasure.org"
            }
          },
          {
            "high": {
              "value": 114,
              "code": "mmol/L",
              "system": "http://unitsofmeasure.org"
            }
          }
        ],
        "text": {
          "status": "generated",
          "div": "<div xmlns=\"http://www.w3.org/1999/xhtml\"><table class=\"hl7__eu__lab__report\"><tr><th>Test</th><th>28-Feb-2016</th><th>Reference&#xA0;Range</th><th>Unit</th></tr><tr><td>Chloride [Moles/volume] in Blood</td><td>104.5</td><td>98 - 114</td><td></td><td>mmol/L</td></tr></table></div>"
        },
        "status": "final",
        "subject": {
          "reference": "urn:uuid:1e3a0c8c-8b55-456d-b77a-922a91a2ff0a",
          "display": "Benedetto Lombroso"
        },
        "effectiveDateTime": "2016-02-28T07:22:02Z",
        "specimen": {
          "reference": "urn:uuid:f9a6203f-abe6-4bde-bf46-7f7b7e7c9bd7"
        }
      }
    },
    {
      "fullUrl": "urn:uuid:c9b84ebe-19e9-4444-9da8-369096a64d38",
      "resource": {
        "resourceType": "Observation",
        "id": "c9b84ebe-19e9-4444-9da8-369096a64d38",
        "meta": {
          "profile": [
            "http://hl7.eu/fhir/laboratory/StructureDefinition/Observation-resultslab-eu-lab"
          ]
        },
        "performer": [
          {
            "display": "The Central European Lab"
          }
        ],
        "category": [
          {
            "coding": [
              {
                "system": "http://terminology.hl7.org/CodeSystem/observation-category",
                "code": "laboratory"
              }
            ]
          }
        ],
        "code": {
          "coding": [
            {
              "code": "20565-8",
              "system": "http://loinc.org",
              "display": "Carbon dioxide, total [Moles/volume] in Blood"
            }
          ],
          "text": "Carbon dioxide, total [Moles/volume] in Blood"
        },
        "valueQuantity": {
          "system": "http://unitsofmeasure.org",
          "value": 23.6,
          "unit": "mmol/L",
          "code": "mmol/L"
        },
        "referenceRange": [
          {
            "low": {
              "value": 24,
              "code": "mmol/L",
              "system": "http://unitsofmeasure.org"
            }
          },
          {
            "high": {
              "value": 29,
              "code": "mmol/L",
              "system": "http://unitsofmeasure.org"
            }
          }
        ],
        "interpretation": [
          {
            "coding": [
              {
                "code": "L",
                "system": "http://terminology.hl7.org/CodeSystem/v3-ObservationInterpretation",
                "display": "Low"
              }
            ]
          }
        ],
        "text": {
          "status": "generated",
          "div": "<div xmlns=\"http://www.w3.org/1999/xhtml\"><table class=\"hl7__eu__lab__report\"><tr><th>Test</th><th>28-Feb-2016</th><th>Reference&#xA0;Range</th><th>Unit</th></tr><tr><td>Carbon dioxide, total [Moles/volume] in Blood</td><td>23.6</td><td>24 - 29</td><td>L</td><td>mmol/L</td></tr></table></div>"
        },
        "status": "final",
        "subject": {
          "reference": "urn:uuid:1e3a0c8c-8b55-456d-b77a-922a91a2ff0a",
          "display": "Benedetto Lombroso"
        },
        "effectiveDateTime": "2016-02-28T07:22:02Z",
        "specimen": {
          "reference": "urn:uuid:f9a6203f-abe6-4bde-bf46-7f7b7e7c9bd7"
        }
      }
    },
    {
      "fullUrl": "urn:uuid:9ee43ec6-518a-4971-a646-3d4159eced47",
      "resource": {
        "resourceType": "Device",
        "id": "9ee43ec6-518a-4971-a646-3d4159eced47",
        "deviceName": [
          {
            "name": "SYNDERAI Synthetic Generator",
            "type": "manufacturer-name"
          }
        ],
        "version": [
          {
            "value": "5.0"
          }
        ],
        "text": {
          "status": "generated",
          "div": "<div xmlns=\"http://www.w3.org/1999/xhtml\">SYNDERAI Synthetic Generator v5.0</div>"
        },
        "status": "active\"",
        "distinctIdentifier": "synderai-generator-50",
        "manufacturer": "SYNDERAI Project"
      }
    },
    {
      "fullUrl": "urn:uuid:87c36130-8bd1-4925-95c9-ed7fa9e829af",
      "resource": {
        "resourceType": "Provenance",
        "id": "87c36130-8bd1-4925-95c9-ed7fa9e829af",
        "target": [
          {
            "reference": "Patient/1e3a0c8c-8b55-456d-b77a-922a91a2ff0a"
          },
          {
            "reference": "Bundle/0dc66511-1784-465b-9ff3-d6cfd6794142"
          },
          {
            "reference": "Composition/ef168e14-dc21-4334-acfd-4e43cf7953b0"
          },
          {
            "reference": "PractitionerRole/90091d8a-42bb-4b4c-a69b-390e682cee45"
          },
          {
            "reference": "Practitioner/2a7daff5-379e-47cf-8a47-dadcb87451a7"
          },
          {
            "reference": "PractitionerRole/cd785a5d-8571-4863-bdb9-7e7ee10642bf"
          },
          {
            "reference": "Organization/d93ce6a4-e5a2-4722-9682-17cd07c7254f"
          }
        ],
        "activity": {
          "text": "Synthetic Example Data Generation"
        },
        "policy": [
          "https://synderai.net/synderai-synthetic-data-policy"
        ],
        "agent": [
          {
            "type": {
              "text": "author"
            },
            "who": {
              "reference": "Device/9ee43ec6-518a-4971-a646-3d4159eced47"
            }
          }
        ],
        "reason": [
          {
            "text": "Interoperability Testing and Training (non-clinical use)"
          }
        ],
        "text": {
          "status": "generated",
          "div": "<div xmlns=\"http://www.w3.org/1999/xhtml\">Provenance for SYNDERAI Synthetic Example Data Resource</div>"
        },
        "recorded": "2016-02-28T08:22:02Z"
      }
    },
    {
      "fullUrl": "urn:uuid:90091d8a-42bb-4b4c-a69b-390e682cee45",
      "resource": {
        "resourceType": "PractitionerRole",
        "id": "90091d8a-42bb-4b4c-a69b-390e682cee45",
        "meta": {
          "profile": [
            "http://hl7.eu/fhir/base/StructureDefinition/practitionerRole-eu"
          ]
        },
        "text": {
          "status": "generated",
          "div": "<div xmlns=\"http://www.w3.org/1999/xhtml\">Laboratory Role Id: 90091d8a-42bb-4b4c-a69b-390e682cee45</div>"
        },
        "practitioner": {
          "reference": "urn:uuid:2a7daff5-379e-47cf-8a47-dadcb87451a7"
        }
      }
    },
    {
      "fullUrl": "urn:uuid:2a7daff5-379e-47cf-8a47-dadcb87451a7",
      "resource": {
        "resourceType": "Practitioner",
        "id": "2a7daff5-379e-47cf-8a47-dadcb87451a7",
        "meta": {
          "profile": [
            "http://hl7.eu/fhir/base/StructureDefinition/practitioner-eu"
          ]
        },
        "identifier": [
          {
            "assigner": {
              "display": "HL7 Europe"
            },
            "system": "urn:oid:2.16.840.1.113883.2.51.999",
            "value": "7dc55fe3-9a90-4894-991f-41ce8775b252"
          }
        ],
        "name": [
          {
            "prefix": [
              "dr"
            ],
            "given": [
              "Ex"
            ],
            "family": "Ample"
          }
        ],
        "address": [
          {
            "line": [
              "Laboratoire Central Européenne",
              "Boulevard du Jardin Botanique 32"
            ],
            "postalCode": "1000",
            "city": "Brussels",
            "country": "Belgium"
          }
        ],
        "text": {
          "status": "generated",
          "div": "<div xmlns=\"http://www.w3.org/1999/xhtml\">Laboratory: Laboratoire Central Européenne, 1000 Brussels, Belgium</div>"
        }
      }
    }
  ],
  "type": "document",
  "timestamp": "2016-02-28T08:22:02Z"
}
