{
  "resourceType": "Bundle",
  "id": "eaf6032c-5b2c-496a-bae1-ef769370f891",
  "meta": {
    "profile": [
      "http://hl7.eu/fhir/laboratory/StructureDefinition/Bundle-eu-lab"
    ]
  },
  "identifier": {
    "assigner": {
      "display": "HL7 Europe"
    },
    "system": "urn:oid:2.16.840.1.113883.2.51.999",
    "value": "2cac0d41-e78b-474d-af8f-88e54bcd51e6"
  },
  "entry": [
    {
      "fullUrl": "urn:uuid:19d99fb6-4e76-45a3-a0d4-19ea81c3faaf",
      "resource": {
        "resourceType": "Composition",
        "id": "19d99fb6-4e76-45a3-a0d4-19ea81c3faaf",
        "meta": {
          "profile": [
            "http://hl7.eu/fhir/laboratory/StructureDefinition/Composition-eu-lab"
          ]
        },
        "identifier": {
          "assigner": {
            "display": "HL7 Europe"
          },
          "system": "urn:oid:2.16.840.1.113883.2.51.999",
          "value": "67d12eba-7aa4-4d0c-af22-51cb56985744"
        },
        "author": [
          {
            "reference": "urn:uuid:4b06587c-a5b2-4cfd-b157-0b4de8f0d560"
          }
        ],
        "category": [
          {
            "coding": [
              {
                "code": "26436-6",
                "system": "http://loinc.org",
                "display": "Laboratory studies (set)"
              }
            ]
          }
        ],
        "type": {
          "coding": [
            {
              "code": "11502-2",
              "system": "http://loinc.org",
              "display": "Laboratory report"
            }
          ],
          "text": "Laboratory Report"
        },
        "section": [
          {
            "code": {
              "coding": [
                {
                  "code": "26436-6",
                  "system": "http://loinc.org",
                  "display": "Laboratory studies (set)"
                }
              ],
              "text": "Laboratory studies"
            },
            "section": [
              {
                "code": {
                  "coding": [
                    {
                      "code": "$18719-5",
                      "system": "http://loinc.org",
                      "display": "Chemistry studies (set)"
                    }
                  ],
                  "text": "Chemistry"
                },
                "entry": [
                  {
                    "reference": "urn:uuid:b906af85-14de-4173-92eb-bd7fc4660205"
                  },
                  {
                    "reference": "urn:uuid:710b0a52-0522-4d04-92b5-2ee70fe6fc15"
                  },
                  {
                    "reference": "urn:uuid:bc364edc-5718-4da9-882c-a48b31ebe5cf"
                  },
                  {
                    "reference": "urn:uuid:e19bba66-60b8-4b00-bdfa-ce50832bc8f3"
                  },
                  {
                    "reference": "urn:uuid:0cca7fd1-32e7-4683-957c-69c86aefa4d1"
                  },
                  {
                    "reference": "urn:uuid:9f126a3d-e370-4e41-8ea8-611fae565959"
                  },
                  {
                    "reference": "urn:uuid:957e0ae6-2e60-4992-8177-7016b30c9d22"
                  },
                  {
                    "reference": "urn:uuid:1cb9ea12-3045-4582-8dc1-12dcb348e24f"
                  },
                  {
                    "reference": "urn:uuid:562431a5-460f-45f8-ae4e-3563ff76701d"
                  },
                  {
                    "reference": "urn:uuid:1a471360-9747-43ec-986f-9bd38579d5e7"
                  },
                  {
                    "reference": "urn:uuid:74ea7999-f4f8-40fc-a82e-6ad6084773d0"
                  },
                  {
                    "reference": "urn:uuid:e39c9296-b242-41b7-a687-c9fd2d2656eb"
                  },
                  {
                    "reference": "urn:uuid:f65f82e8-6561-4d04-a862-af5fb56d2e9d"
                  }
                ],
                "text": {
                  "status": "generated",
                  "div": "<div xmlns=\"http://www.w3.org/1999/xhtml\"><h3>Chemistry</h3><table class=\"hl7__eu__lab__report\"><thead><tr><th>Test</th><th>05-FEB-2020</th><th>Reference&#xA0;Range</th><th>Unit</th></tr></thead><tbody><tr><td>Hemoglobin A1c/Hemoglobin.total in Blood</td><td><strong>6.4 H</strong></td><td>4 - 6</td><td>%</td></tr><tr><td>Glucose [Mass/volume] in Blood</td><td>76.3</td><td>70 - 140</td><td>mg/dL</td></tr><tr><td>Urea nitrogen [Mass/volume] in Blood</td><td>18.2</td><td>7 - 50</td><td>mg/dL</td></tr><tr><td>Creatinine [Mass/volume] in Blood</td><td>0.6</td><td>0.5 - 1.3</td><td>mg/dL</td></tr><tr><td>Calcium [Mass/volume] in Blood</td><td>9.8</td><td>8.5 - 10.4</td><td>mg/dL</td></tr><tr><td>Sodium [Moles/volume] in Blood</td><td>141.3</td><td>135 - 145</td><td>mmol/L</td></tr><tr><td>Potassium [Moles/volume] in Blood</td><td>3.9</td><td>3.5 - 5.3</td><td>mmol/L</td></tr><tr><td>Chloride [Moles/volume] in Blood</td><td>103.8</td><td>98 - 110</td><td>mmol/L</td></tr><tr><td>Carbon dioxide, total [Moles/volume] in Blood</td><td><strong>21.5 L</strong></td><td>22 - 32</td><td>mmol/L</td></tr><tr><td>Cholesterol [Mass/volume] in Serum or Plasma</td><td>143.8</td><td>125 - 200</td><td>mg/dL</td></tr><tr><td>Triglyceride [Mass/volume] in Serum or Plasma</td><td>133.8</td><td>0 - 199</td><td>mg/dL</td></tr><tr><td>Cholesterol in LDL [Mass/volume] in Serum or Plasma by Direct assay</td><td>82.3</td><td>0 - 130</td><td>mg/dL</td></tr><tr><td>Cholesterol in HDL [Mass/volume] in Serum or Plasma</td><td><strong>34.8 L</strong></td><td>50 - 100</td><td>mg/dL</td></tr></tbody></table></div>"
                },
                "title": "Chemistry"
              }
            ],
            "title": "Laboratory Report"
          },
          {
            "text": {
              "status": "generated",
              "div": "<div xmlns=\"http://www.w3.org/1999/xhtml\"><h3>Annotation</h3><table class=\"hl7__eu__lab__report\"><tr><th>Conclusion and Recommendations based on this report and previous findings known to us</th></tr><tr><td>The patient shows mildly elevated HbA1c, indicating impaired glucose control or possible diabetes, and low HDL cholesterol, which increases cardiovascular risk. Total CO₂ is slightly low, which may suggest mild metabolic acidosis or compensation. Other parameters, including renal function, electrolytes, and lipid profile, are within normal limits. Clinical correlation and follow-up are recommended.</td></tr></table></div>"
            },
            "code": {
              "coding": [
                {
                  "system": "http://loinc.org",
                  "code": "48767-8",
                  "display": "Annotation comment"
                }
              ]
            },
            "title": "Annotation comment"
          }
        ],
        "status": "final",
        "subject": {
          "reference": "urn:uuid:dd5bc225-474c-4b5b-9c85-7f5941b65e78",
          "display": "Jele Jurković"
        },
        "date": "2020-02-05T19:07:38Z",
        "title": "Laboratory Report",
        "confidentiality": "N"
      }
    },
    {
      "fullUrl": "urn:uuid:c56489c5-7a50-4a4d-a49a-8d261ef6bf5e",
      "resource": {
        "resourceType": "DiagnosticReport",
        "id": "c56489c5-7a50-4a4d-a49a-8d261ef6bf5e",
        "meta": {
          "profile": [
            "http://hl7.eu/fhir/laboratory/StructureDefinition/DiagnosticReport-eu-lab"
          ]
        },
        "identifier": [
          {
            "assigner": {
              "display": "HL7 Europe"
            },
            "system": "urn:oid:2.16.840.1.113883.2.51.999",
            "value": "bfb4fda0-3925-4ed5-b0f7-6c9e108eca32"
          }
        ],
        "extension": [
          {
            "url": "http://hl7.org/fhir/5.0/StructureDefinition/extension-DiagnosticReport.composition",
            "valueReference": {
              "reference": "urn:uuid:67d12eba-7aa4-4d0c-af22-51cb56985744"
            }
          }
        ],
        "category": [
          {
            "coding": [
              {
                "code": "26436-6",
                "system": "http://loinc.org",
                "display": "Laboratory studies (set)"
              }
            ]
          }
        ],
        "specimen": [
          {
            "reference": "urn:uuid:b84f714c-62fa-4f7a-b652-2fb494ae14e4"
          },
          {
            "reference": "urn:uuid:900521d5-7967-4db6-af7d-057f61e716cb"
          }
        ],
        "result": [
          {
            "reference": "urn:uuid:b906af85-14de-4173-92eb-bd7fc4660205"
          },
          {
            "reference": "urn:uuid:710b0a52-0522-4d04-92b5-2ee70fe6fc15"
          },
          {
            "reference": "urn:uuid:bc364edc-5718-4da9-882c-a48b31ebe5cf"
          },
          {
            "reference": "urn:uuid:e19bba66-60b8-4b00-bdfa-ce50832bc8f3"
          },
          {
            "reference": "urn:uuid:0cca7fd1-32e7-4683-957c-69c86aefa4d1"
          },
          {
            "reference": "urn:uuid:9f126a3d-e370-4e41-8ea8-611fae565959"
          },
          {
            "reference": "urn:uuid:957e0ae6-2e60-4992-8177-7016b30c9d22"
          },
          {
            "reference": "urn:uuid:1cb9ea12-3045-4582-8dc1-12dcb348e24f"
          },
          {
            "reference": "urn:uuid:562431a5-460f-45f8-ae4e-3563ff76701d"
          },
          {
            "reference": "urn:uuid:1a471360-9747-43ec-986f-9bd38579d5e7"
          },
          {
            "reference": "urn:uuid:74ea7999-f4f8-40fc-a82e-6ad6084773d0"
          },
          {
            "reference": "urn:uuid:e39c9296-b242-41b7-a687-c9fd2d2656eb"
          },
          {
            "reference": "urn:uuid:f65f82e8-6561-4d04-a862-af5fb56d2e9d"
          }
        ],
        "status": "registered",
        "code": {
          "coding": [
            {
              "code": "11502-2",
              "system": "http://loinc.org",
              "display": "Laboratory report"
            }
          ]
        },
        "subject": {
          "reference": "urn:uuid:dd5bc225-474c-4b5b-9c85-7f5941b65e78",
          "display": "Jele Jurković"
        }
      }
    },
    {
      "fullUrl": "urn:uuid:dd5bc225-474c-4b5b-9c85-7f5941b65e78",
      "resource": {
        "resourceType": "Patient",
        "id": "dd5bc225-474c-4b5b-9c85-7f5941b65e78",
        "meta": {
          "security": [
            {
              "system": "http://terminology.hl7.org/CodeSystem/v3-ActReason",
              "code": "HTEST"
            },
            {
              "system": "http://terminology.hl7.org/CodeSystem/v3-ActReason",
              "code": "TRAIN"
            }
          ],
          "tag": [
            {
              "system": "https://synderai.net/fhir/CodeSystem/tags",
              "code": "synthetic",
              "display": "SYNDERAI Synthetic data"
            }
          ],
          "profile": [
            "http://hl7.eu/fhir/base/StructureDefinition/patient-eu-core"
          ]
        },
        "identifier": [
          {
            "type": {
              "coding": [
                {
                  "code": "PT",
                  "system": "http://terminology.hl7.org/CodeSystem/v2-0203"
                }
              ]
            },
            "system": "http://ec.europa.eu/identifier/eci",
            "value": "3583-291434-1"
          },
          {
            "type": {
              "coding": [
                {
                  "code": "MR",
                  "system": "http://terminology.hl7.org/CodeSystem/v2-0203"
                }
              ]
            },
            "system": "http://local.setting.eu/identifier",
            "value": "9d4fea2d-eece-b99f-3e16-832f0f5813f5"
          }
        ],
        "name": [
          {
            "family": "Jurković"
          },
          {
            "given": [
              "Jele"
            ]
          },
          {
            "text": "Jele Jurković"
          }
        ],
        "address": [
          {
            "line": [
              "Klesarski put 7b/8"
            ],
            "use": "home",
            "type": "physical",
            "postalCode": "34310",
            "city": "Pleternica",
            "country": "Croatia"
          }
        ],
        "telecom": [
          {
            "system": "phone",
            "value": "021 083 354"
          }
        ],
        "extension": [
          {
            "url": "http://hl7.org/fhir/StructureDefinition/patient-nationality",
            "valueCodeableConcept": {
              "coding": [
                {
                  "code": "HR",
                  "system": "http://hl7.org/fhir/ValueSet/country"
                }
              ]
            }
          }
        ],
        "text": {
          "status": "generated",
          "div": "<div xmlns=\"http://www.w3.org/1999/xhtml\"><table class=\"hl7__ips\"><tr><td>Jele Jurković</td><td>female</td><td>07-Jan-1953</td></tr></table></div>"
        },
        "gender": "female",
        "birthDate": "1953-01-07"
      }
    },
    {
      "fullUrl": "urn:uuid:2b122b2b-cb85-4e9b-a814-78330339542b",
      "resource": {
        "resourceType": "ServiceRequest",
        "id": "2b122b2b-cb85-4e9b-a814-78330339542b",
        "meta": {
          "profile": [
            "http://hl7.eu/fhir/laboratory/StructureDefinition/ServiceRequest-eu-lab"
          ]
        },
        "identifier": [
          {
            "system": "http://example.org",
            "value": "f231991d-e735-4bc7-b8f7-03aaa0bb2b63"
          }
        ],
        "specimen": [
          {
            "reference": "urn:uuid:b84f714c-62fa-4f7a-b652-2fb494ae14e4"
          },
          {
            "reference": "urn:uuid:900521d5-7967-4db6-af7d-057f61e716cb"
          }
        ],
        "reasonCode": [
          {
            "coding": [
              {
                "code": "64859006",
                "system": "http://snomed.info/sct",
                "display": "Osteoporosis"
              }
            ]
          },
          {
            "coding": [
              {
                "code": "6525002",
                "system": "http://snomed.info/sct",
                "display": "Dependent drug abuse"
              }
            ]
          },
          {
            "coding": [
              {
                "code": "15777000",
                "system": "http://snomed.info/sct",
                "display": "Prediabetes"
              }
            ]
          }
        ],
        "status": "active",
        "intent": "order",
        "code": {
          "coding": [
            {
              "code": "108252007",
              "system": "http://snomed.info/sct",
              "display": "Laboratory procedure"
            }
          ]
        },
        "subject": {
          "reference": "urn:uuid:dd5bc225-474c-4b5b-9c85-7f5941b65e78",
          "display": "Jele Jurković"
        },
        "requester": {
          "reference": "urn:uuid:e6147d3c-ce5b-4c72-8c92-d98d24c6f44a"
        }
      }
    },
    {
      "fullUrl": "urn:uuid:e6147d3c-ce5b-4c72-8c92-d98d24c6f44a",
      "resource": {
        "resourceType": "PractitionerRole",
        "id": "e6147d3c-ce5b-4c72-8c92-d98d24c6f44a",
        "meta": {
          "profile": [
            "http://hl7.eu/fhir/base/StructureDefinition/practitionerRole-eu"
          ]
        },
        "text": {
          "status": "generated",
          "div": "<div xmlns=\"http://www.w3.org/1999/xhtml\">Provider Role Id: e6147d3c-ce5b-4c72-8c92-d98d24c6f44a</div>"
        },
        "organization": {
          "reference": "urn:uuid:bf0f1eb5-fa44-4cfd-b2c4-0b21c0dbc668"
        }
      }
    },
    {
      "fullUrl": "urn:uuid:bf0f1eb5-fa44-4cfd-b2c4-0b21c0dbc668",
      "resource": {
        "resourceType": "Organization",
        "id": "bf0f1eb5-fa44-4cfd-b2c4-0b21c0dbc668",
        "meta": {
          "profile": [
            "http://hl7.eu/fhir/base/StructureDefinition/organization-eu"
          ]
        },
        "identifier": [
          {
            "assigner": {
              "display": "HL7 Europe"
            },
            "system": "urn:oid:2.16.840.1.113883.2.51.999",
            "value": "20ec2b38-494d-4b8e-95be-226c2757a8f0"
          }
        ],
        "address": [
          {
            "line": [
              "Osječka ulica 107"
            ],
            "city": "Požega",
            "postalCode": "34000",
            "country": "Croatia"
          }
        ],
        "text": {
          "status": "generated",
          "div": "<div xmlns=\"http://www.w3.org/1999/xhtml\">Provider Organization: Opća županijska bolnica Požega</div>"
        },
        "name": "Opća županijska bolnica Požega"
      }
    },
    {
      "fullUrl": "urn:uuid:b84f714c-62fa-4f7a-b652-2fb494ae14e4",
      "resource": {
        "resourceType": "Specimen",
        "id": "b84f714c-62fa-4f7a-b652-2fb494ae14e4",
        "meta": {
          "profile": [
            "http://hl7.eu/fhir/laboratory/StructureDefinition/Specimen-eu-lab"
          ]
        },
        "collection": {
          "collectedDateTime": "2020-02-05"
        },
        "text": {
          "status": "generated",
          "div": "<div xmlns=\"http://www.w3.org/1999/xhtml\"><table class=\"hl7__eu__lab__report\"><tr><th>Specimen</th><th>Collection Date</th></tr><tr><td>Whole blood specimen (specimen)</td><td><span class=\"nb\">05-Feb-2020</span></td></tr></table></div>"
        },
        "type": {
          "coding": [
            {
              "code": "258580003",
              "system": "http://snomed.info/sct",
              "display": "Whole blood specimen (specimen)"
            }
          ]
        }
      }
    },
    {
      "fullUrl": "urn:uuid:900521d5-7967-4db6-af7d-057f61e716cb",
      "resource": {
        "resourceType": "Specimen",
        "id": "900521d5-7967-4db6-af7d-057f61e716cb",
        "meta": {
          "profile": [
            "http://hl7.eu/fhir/laboratory/StructureDefinition/Specimen-eu-lab"
          ]
        },
        "collection": {
          "collectedDateTime": "2020-02-05"
        },
        "text": {
          "status": "generated",
          "div": "<div xmlns=\"http://www.w3.org/1999/xhtml\"><table class=\"hl7__eu__lab__report\"><tr><th>Specimen</th><th>Collection Date</th></tr><tr><td>Acellular blood (serum or plasma) specimen</td><td><span class=\"nb\">05-Feb-2020</span></td></tr></table></div>"
        },
        "type": {
          "coding": [
            {
              "code": "122592007",
              "system": "http://snomed.info/sct",
              "display": "Acellular blood (serum or plasma) specimen"
            }
          ]
        }
      }
    },
    {
      "fullUrl": "urn:uuid:b906af85-14de-4173-92eb-bd7fc4660205",
      "resource": {
        "resourceType": "Observation",
        "id": "b906af85-14de-4173-92eb-bd7fc4660205",
        "meta": {
          "profile": [
            "http://hl7.eu/fhir/laboratory/StructureDefinition/Observation-resultslab-eu-lab"
          ]
        },
        "performer": [
          {
            "display": "The Central European Lab"
          }
        ],
        "category": [
          {
            "coding": [
              {
                "system": "http://terminology.hl7.org/CodeSystem/observation-category",
                "code": "laboratory"
              }
            ]
          }
        ],
        "code": {
          "coding": [
            {
              "code": "4548-4",
              "system": "http://loinc.org",
              "display": "Hemoglobin A1c/Hemoglobin.total in Blood"
            }
          ],
          "text": "Hemoglobin A1c/Hemoglobin.total in Blood"
        },
        "valueQuantity": {
          "system": "http://unitsofmeasure.org",
          "value": 6.4,
          "unit": "%",
          "code": "%"
        },
        "referenceRange": [
          {
            "low": {
              "value": 4,
              "code": "%",
              "system": "http://unitsofmeasure.org"
            }
          },
          {
            "high": {
              "value": 6,
              "code": "%",
              "system": "http://unitsofmeasure.org"
            }
          }
        ],
        "interpretation": [
          {
            "coding": [
              {
                "code": "H",
                "system": "http://terminology.hl7.org/CodeSystem/v3-ObservationInterpretation",
                "display": "High"
              }
            ]
          }
        ],
        "text": {
          "status": "generated",
          "div": "<div xmlns=\"http://www.w3.org/1999/xhtml\"><table class=\"hl7__eu__lab__report\"><tr><th>Test</th><th>05-Feb-2020</th><th>Reference&#xA0;Range</th><th>Unit</th></tr><tr><td>Hemoglobin A1c/Hemoglobin.total in Blood</td><td>6.4</td><td>4 - 6</td><td>H</td><td>%</td></tr></table></div>"
        },
        "status": "final",
        "subject": {
          "reference": "urn:uuid:dd5bc225-474c-4b5b-9c85-7f5941b65e78",
          "display": "Jele Jurković"
        },
        "effectiveDateTime": "2020-02-05T18:07:38Z",
        "specimen": {
          "reference": "urn:uuid:b84f714c-62fa-4f7a-b652-2fb494ae14e4"
        }
      }
    },
    {
      "fullUrl": "urn:uuid:710b0a52-0522-4d04-92b5-2ee70fe6fc15",
      "resource": {
        "resourceType": "Observation",
        "id": "710b0a52-0522-4d04-92b5-2ee70fe6fc15",
        "meta": {
          "profile": [
            "http://hl7.eu/fhir/laboratory/StructureDefinition/Observation-resultslab-eu-lab"
          ]
        },
        "performer": [
          {
            "display": "The Central European Lab"
          }
        ],
        "category": [
          {
            "coding": [
              {
                "system": "http://terminology.hl7.org/CodeSystem/observation-category",
                "code": "laboratory"
              }
            ]
          }
        ],
        "code": {
          "coding": [
            {
              "code": "2339-0",
              "system": "http://loinc.org",
              "display": "Glucose [Mass/volume] in Blood"
            }
          ],
          "text": "Glucose [Mass/volume] in Blood"
        },
        "valueQuantity": {
          "system": "http://unitsofmeasure.org",
          "value": 76.3,
          "unit": "mg/dL",
          "code": "mg/dL"
        },
        "referenceRange": [
          {
            "low": {
              "value": 70,
              "code": "mg/dL",
              "system": "http://unitsofmeasure.org"
            }
          },
          {
            "high": {
              "value": 140,
              "code": "mg/dL",
              "system": "http://unitsofmeasure.org"
            }
          }
        ],
        "text": {
          "status": "generated",
          "div": "<div xmlns=\"http://www.w3.org/1999/xhtml\"><table class=\"hl7__eu__lab__report\"><tr><th>Test</th><th>05-Feb-2020</th><th>Reference&#xA0;Range</th><th>Unit</th></tr><tr><td>Glucose [Mass/volume] in Blood</td><td>76.3</td><td>70 - 140</td><td></td><td>mg/dL</td></tr></table></div>"
        },
        "status": "final",
        "subject": {
          "reference": "urn:uuid:dd5bc225-474c-4b5b-9c85-7f5941b65e78",
          "display": "Jele Jurković"
        },
        "effectiveDateTime": "2020-02-05T18:07:38Z",
        "specimen": {
          "reference": "urn:uuid:b84f714c-62fa-4f7a-b652-2fb494ae14e4"
        }
      }
    },
    {
      "fullUrl": "urn:uuid:bc364edc-5718-4da9-882c-a48b31ebe5cf",
      "resource": {
        "resourceType": "Observation",
        "id": "bc364edc-5718-4da9-882c-a48b31ebe5cf",
        "meta": {
          "profile": [
            "http://hl7.eu/fhir/laboratory/StructureDefinition/Observation-resultslab-eu-lab"
          ]
        },
        "performer": [
          {
            "display": "The Central European Lab"
          }
        ],
        "category": [
          {
            "coding": [
              {
                "system": "http://terminology.hl7.org/CodeSystem/observation-category",
                "code": "laboratory"
              }
            ]
          }
        ],
        "code": {
          "coding": [
            {
              "code": "6299-2",
              "system": "http://loinc.org",
              "display": "Urea nitrogen [Mass/volume] in Blood"
            }
          ],
          "text": "Urea nitrogen [Mass/volume] in Blood"
        },
        "valueQuantity": {
          "system": "http://unitsofmeasure.org",
          "value": 18.2,
          "unit": "mg/dL",
          "code": "mg/dL"
        },
        "referenceRange": [
          {
            "low": {
              "value": 7,
              "code": "mg/dL",
              "system": "http://unitsofmeasure.org"
            }
          },
          {
            "high": {
              "value": 50,
              "code": "mg/dL",
              "system": "http://unitsofmeasure.org"
            }
          }
        ],
        "text": {
          "status": "generated",
          "div": "<div xmlns=\"http://www.w3.org/1999/xhtml\"><table class=\"hl7__eu__lab__report\"><tr><th>Test</th><th>05-Feb-2020</th><th>Reference&#xA0;Range</th><th>Unit</th></tr><tr><td>Urea nitrogen [Mass/volume] in Blood</td><td>18.2</td><td>7 - 50</td><td></td><td>mg/dL</td></tr></table></div>"
        },
        "status": "final",
        "subject": {
          "reference": "urn:uuid:dd5bc225-474c-4b5b-9c85-7f5941b65e78",
          "display": "Jele Jurković"
        },
        "effectiveDateTime": "2020-02-05T18:07:38Z",
        "specimen": {
          "reference": "urn:uuid:b84f714c-62fa-4f7a-b652-2fb494ae14e4"
        }
      }
    },
    {
      "fullUrl": "urn:uuid:e19bba66-60b8-4b00-bdfa-ce50832bc8f3",
      "resource": {
        "resourceType": "Observation",
        "id": "e19bba66-60b8-4b00-bdfa-ce50832bc8f3",
        "meta": {
          "profile": [
            "http://hl7.eu/fhir/laboratory/StructureDefinition/Observation-resultslab-eu-lab"
          ]
        },
        "performer": [
          {
            "display": "The Central European Lab"
          }
        ],
        "category": [
          {
            "coding": [
              {
                "system": "http://terminology.hl7.org/CodeSystem/observation-category",
                "code": "laboratory"
              }
            ]
          }
        ],
        "code": {
          "coding": [
            {
              "code": "38483-4",
              "system": "http://loinc.org",
              "display": "Creatinine [Mass/volume] in Blood"
            }
          ],
          "text": "Creatinine [Mass/volume] in Blood"
        },
        "valueQuantity": {
          "system": "http://unitsofmeasure.org",
          "value": 0.6,
          "unit": "mg/dL",
          "code": "mg/dL"
        },
        "referenceRange": [
          {
            "low": {
              "value": 0.5,
              "code": "mg/dL",
              "system": "http://unitsofmeasure.org"
            }
          },
          {
            "high": {
              "value": 1.3,
              "code": "mg/dL",
              "system": "http://unitsofmeasure.org"
            }
          }
        ],
        "text": {
          "status": "generated",
          "div": "<div xmlns=\"http://www.w3.org/1999/xhtml\"><table class=\"hl7__eu__lab__report\"><tr><th>Test</th><th>05-Feb-2020</th><th>Reference&#xA0;Range</th><th>Unit</th></tr><tr><td>Creatinine [Mass/volume] in Blood</td><td>0.6</td><td>0.5 - 1.3</td><td></td><td>mg/dL</td></tr></table></div>"
        },
        "status": "final",
        "subject": {
          "reference": "urn:uuid:dd5bc225-474c-4b5b-9c85-7f5941b65e78",
          "display": "Jele Jurković"
        },
        "effectiveDateTime": "2020-02-05T18:07:38Z",
        "specimen": {
          "reference": "urn:uuid:b84f714c-62fa-4f7a-b652-2fb494ae14e4"
        }
      }
    },
    {
      "fullUrl": "urn:uuid:0cca7fd1-32e7-4683-957c-69c86aefa4d1",
      "resource": {
        "resourceType": "Observation",
        "id": "0cca7fd1-32e7-4683-957c-69c86aefa4d1",
        "meta": {
          "profile": [
            "http://hl7.eu/fhir/laboratory/StructureDefinition/Observation-resultslab-eu-lab"
          ]
        },
        "performer": [
          {
            "display": "The Central European Lab"
          }
        ],
        "category": [
          {
            "coding": [
              {
                "system": "http://terminology.hl7.org/CodeSystem/observation-category",
                "code": "laboratory"
              }
            ]
          }
        ],
        "code": {
          "coding": [
            {
              "code": "49765-1",
              "system": "http://loinc.org",
              "display": "Calcium [Mass/volume] in Blood"
            }
          ],
          "text": "Calcium [Mass/volume] in Blood"
        },
        "valueQuantity": {
          "system": "http://unitsofmeasure.org",
          "value": 9.8,
          "unit": "mg/dL",
          "code": "mg/dL"
        },
        "referenceRange": [
          {
            "low": {
              "value": 8.5,
              "code": "mg/dL",
              "system": "http://unitsofmeasure.org"
            }
          },
          {
            "high": {
              "value": 10.4,
              "code": "mg/dL",
              "system": "http://unitsofmeasure.org"
            }
          }
        ],
        "text": {
          "status": "generated",
          "div": "<div xmlns=\"http://www.w3.org/1999/xhtml\"><table class=\"hl7__eu__lab__report\"><tr><th>Test</th><th>05-Feb-2020</th><th>Reference&#xA0;Range</th><th>Unit</th></tr><tr><td>Calcium [Mass/volume] in Blood</td><td>9.8</td><td>8.5 - 10.4</td><td></td><td>mg/dL</td></tr></table></div>"
        },
        "status": "final",
        "subject": {
          "reference": "urn:uuid:dd5bc225-474c-4b5b-9c85-7f5941b65e78",
          "display": "Jele Jurković"
        },
        "effectiveDateTime": "2020-02-05T18:07:38Z",
        "specimen": {
          "reference": "urn:uuid:b84f714c-62fa-4f7a-b652-2fb494ae14e4"
        }
      }
    },
    {
      "fullUrl": "urn:uuid:9f126a3d-e370-4e41-8ea8-611fae565959",
      "resource": {
        "resourceType": "Observation",
        "id": "9f126a3d-e370-4e41-8ea8-611fae565959",
        "meta": {
          "profile": [
            "http://hl7.eu/fhir/laboratory/StructureDefinition/Observation-resultslab-eu-lab"
          ]
        },
        "performer": [
          {
            "display": "The Central European Lab"
          }
        ],
        "category": [
          {
            "coding": [
              {
                "system": "http://terminology.hl7.org/CodeSystem/observation-category",
                "code": "laboratory"
              }
            ]
          }
        ],
        "code": {
          "coding": [
            {
              "code": "2947-0",
              "system": "http://loinc.org",
              "display": "Sodium [Moles/volume] in Blood"
            }
          ],
          "text": "Sodium [Moles/volume] in Blood"
        },
        "valueQuantity": {
          "system": "http://unitsofmeasure.org",
          "value": 141.3,
          "unit": "mmol/L",
          "code": "mmol/L"
        },
        "referenceRange": [
          {
            "low": {
              "value": 135,
              "code": "mmol/L",
              "system": "http://unitsofmeasure.org"
            }
          },
          {
            "high": {
              "value": 145,
              "code": "mmol/L",
              "system": "http://unitsofmeasure.org"
            }
          }
        ],
        "text": {
          "status": "generated",
          "div": "<div xmlns=\"http://www.w3.org/1999/xhtml\"><table class=\"hl7__eu__lab__report\"><tr><th>Test</th><th>05-Feb-2020</th><th>Reference&#xA0;Range</th><th>Unit</th></tr><tr><td>Sodium [Moles/volume] in Blood</td><td>141.3</td><td>135 - 145</td><td></td><td>mmol/L</td></tr></table></div>"
        },
        "status": "final",
        "subject": {
          "reference": "urn:uuid:dd5bc225-474c-4b5b-9c85-7f5941b65e78",
          "display": "Jele Jurković"
        },
        "effectiveDateTime": "2020-02-05T18:07:38Z",
        "specimen": {
          "reference": "urn:uuid:b84f714c-62fa-4f7a-b652-2fb494ae14e4"
        }
      }
    },
    {
      "fullUrl": "urn:uuid:957e0ae6-2e60-4992-8177-7016b30c9d22",
      "resource": {
        "resourceType": "Observation",
        "id": "957e0ae6-2e60-4992-8177-7016b30c9d22",
        "meta": {
          "profile": [
            "http://hl7.eu/fhir/laboratory/StructureDefinition/Observation-resultslab-eu-lab"
          ]
        },
        "performer": [
          {
            "display": "The Central European Lab"
          }
        ],
        "category": [
          {
            "coding": [
              {
                "system": "http://terminology.hl7.org/CodeSystem/observation-category",
                "code": "laboratory"
              }
            ]
          }
        ],
        "code": {
          "coding": [
            {
              "code": "6298-4",
              "system": "http://loinc.org",
              "display": "Potassium [Moles/volume] in Blood"
            }
          ],
          "text": "Potassium [Moles/volume] in Blood"
        },
        "valueQuantity": {
          "system": "http://unitsofmeasure.org",
          "value": 3.9,
          "unit": "mmol/L",
          "code": "mmol/L"
        },
        "referenceRange": [
          {
            "low": {
              "value": 3.5,
              "code": "mmol/L",
              "system": "http://unitsofmeasure.org"
            }
          },
          {
            "high": {
              "value": 5.3,
              "code": "mmol/L",
              "system": "http://unitsofmeasure.org"
            }
          }
        ],
        "text": {
          "status": "generated",
          "div": "<div xmlns=\"http://www.w3.org/1999/xhtml\"><table class=\"hl7__eu__lab__report\"><tr><th>Test</th><th>05-Feb-2020</th><th>Reference&#xA0;Range</th><th>Unit</th></tr><tr><td>Potassium [Moles/volume] in Blood</td><td>3.9</td><td>3.5 - 5.3</td><td></td><td>mmol/L</td></tr></table></div>"
        },
        "status": "final",
        "subject": {
          "reference": "urn:uuid:dd5bc225-474c-4b5b-9c85-7f5941b65e78",
          "display": "Jele Jurković"
        },
        "effectiveDateTime": "2020-02-05T18:07:38Z",
        "specimen": {
          "reference": "urn:uuid:b84f714c-62fa-4f7a-b652-2fb494ae14e4"
        }
      }
    },
    {
      "fullUrl": "urn:uuid:1cb9ea12-3045-4582-8dc1-12dcb348e24f",
      "resource": {
        "resourceType": "Observation",
        "id": "1cb9ea12-3045-4582-8dc1-12dcb348e24f",
        "meta": {
          "profile": [
            "http://hl7.eu/fhir/laboratory/StructureDefinition/Observation-resultslab-eu-lab"
          ]
        },
        "performer": [
          {
            "display": "The Central European Lab"
          }
        ],
        "category": [
          {
            "coding": [
              {
                "system": "http://terminology.hl7.org/CodeSystem/observation-category",
                "code": "laboratory"
              }
            ]
          }
        ],
        "code": {
          "coding": [
            {
              "code": "2069-3",
              "system": "http://loinc.org",
              "display": "Chloride [Moles/volume] in Blood"
            }
          ],
          "text": "Chloride [Moles/volume] in Blood"
        },
        "valueQuantity": {
          "system": "http://unitsofmeasure.org",
          "value": 103.8,
          "unit": "mmol/L",
          "code": "mmol/L"
        },
        "referenceRange": [
          {
            "low": {
              "value": 98,
              "code": "mmol/L",
              "system": "http://unitsofmeasure.org"
            }
          },
          {
            "high": {
              "value": 110,
              "code": "mmol/L",
              "system": "http://unitsofmeasure.org"
            }
          }
        ],
        "text": {
          "status": "generated",
          "div": "<div xmlns=\"http://www.w3.org/1999/xhtml\"><table class=\"hl7__eu__lab__report\"><tr><th>Test</th><th>05-Feb-2020</th><th>Reference&#xA0;Range</th><th>Unit</th></tr><tr><td>Chloride [Moles/volume] in Blood</td><td>103.8</td><td>98 - 110</td><td></td><td>mmol/L</td></tr></table></div>"
        },
        "status": "final",
        "subject": {
          "reference": "urn:uuid:dd5bc225-474c-4b5b-9c85-7f5941b65e78",
          "display": "Jele Jurković"
        },
        "effectiveDateTime": "2020-02-05T18:07:38Z",
        "specimen": {
          "reference": "urn:uuid:b84f714c-62fa-4f7a-b652-2fb494ae14e4"
        }
      }
    },
    {
      "fullUrl": "urn:uuid:562431a5-460f-45f8-ae4e-3563ff76701d",
      "resource": {
        "resourceType": "Observation",
        "id": "562431a5-460f-45f8-ae4e-3563ff76701d",
        "meta": {
          "profile": [
            "http://hl7.eu/fhir/laboratory/StructureDefinition/Observation-resultslab-eu-lab"
          ]
        },
        "performer": [
          {
            "display": "The Central European Lab"
          }
        ],
        "category": [
          {
            "coding": [
              {
                "system": "http://terminology.hl7.org/CodeSystem/observation-category",
                "code": "laboratory"
              }
            ]
          }
        ],
        "code": {
          "coding": [
            {
              "code": "20565-8",
              "system": "http://loinc.org",
              "display": "Carbon dioxide, total [Moles/volume] in Blood"
            }
          ],
          "text": "Carbon dioxide, total [Moles/volume] in Blood"
        },
        "valueQuantity": {
          "system": "http://unitsofmeasure.org",
          "value": 21.5,
          "unit": "mmol/L",
          "code": "mmol/L"
        },
        "referenceRange": [
          {
            "low": {
              "value": 22,
              "code": "mmol/L",
              "system": "http://unitsofmeasure.org"
            }
          },
          {
            "high": {
              "value": 32,
              "code": "mmol/L",
              "system": "http://unitsofmeasure.org"
            }
          }
        ],
        "interpretation": [
          {
            "coding": [
              {
                "code": "L",
                "system": "http://terminology.hl7.org/CodeSystem/v3-ObservationInterpretation",
                "display": "Low"
              }
            ]
          }
        ],
        "text": {
          "status": "generated",
          "div": "<div xmlns=\"http://www.w3.org/1999/xhtml\"><table class=\"hl7__eu__lab__report\"><tr><th>Test</th><th>05-Feb-2020</th><th>Reference&#xA0;Range</th><th>Unit</th></tr><tr><td>Carbon dioxide, total [Moles/volume] in Blood</td><td>21.5</td><td>22 - 32</td><td>L</td><td>mmol/L</td></tr></table></div>"
        },
        "status": "final",
        "subject": {
          "reference": "urn:uuid:dd5bc225-474c-4b5b-9c85-7f5941b65e78",
          "display": "Jele Jurković"
        },
        "effectiveDateTime": "2020-02-05T18:07:38Z",
        "specimen": {
          "reference": "urn:uuid:b84f714c-62fa-4f7a-b652-2fb494ae14e4"
        }
      }
    },
    {
      "fullUrl": "urn:uuid:1a471360-9747-43ec-986f-9bd38579d5e7",
      "resource": {
        "resourceType": "Observation",
        "id": "1a471360-9747-43ec-986f-9bd38579d5e7",
        "meta": {
          "profile": [
            "http://hl7.eu/fhir/laboratory/StructureDefinition/Observation-resultslab-eu-lab"
          ]
        },
        "performer": [
          {
            "display": "The Central European Lab"
          }
        ],
        "category": [
          {
            "coding": [
              {
                "system": "http://terminology.hl7.org/CodeSystem/observation-category",
                "code": "laboratory"
              }
            ]
          }
        ],
        "code": {
          "coding": [
            {
              "code": "2093-3",
              "system": "http://loinc.org",
              "display": "Cholesterol [Mass/volume] in Serum or Plasma"
            }
          ],
          "text": "Cholesterol [Mass/volume] in Serum or Plasma"
        },
        "valueQuantity": {
          "system": "http://unitsofmeasure.org",
          "value": 143.8,
          "unit": "mg/dL",
          "code": "mg/dL"
        },
        "referenceRange": [
          {
            "low": {
              "value": 125,
              "code": "mg/dL",
              "system": "http://unitsofmeasure.org"
            }
          },
          {
            "high": {
              "value": 200,
              "code": "mg/dL",
              "system": "http://unitsofmeasure.org"
            }
          }
        ],
        "text": {
          "status": "generated",
          "div": "<div xmlns=\"http://www.w3.org/1999/xhtml\"><table class=\"hl7__eu__lab__report\"><tr><th>Test</th><th>05-Feb-2020</th><th>Reference&#xA0;Range</th><th>Unit</th></tr><tr><td>Cholesterol [Mass/volume] in Serum or Plasma</td><td>143.8</td><td>125 - 200</td><td></td><td>mg/dL</td></tr></table></div>"
        },
        "status": "final",
        "subject": {
          "reference": "urn:uuid:dd5bc225-474c-4b5b-9c85-7f5941b65e78",
          "display": "Jele Jurković"
        },
        "effectiveDateTime": "2020-02-05T18:07:38Z",
        "specimen": {
          "reference": "urn:uuid:900521d5-7967-4db6-af7d-057f61e716cb"
        }
      }
    },
    {
      "fullUrl": "urn:uuid:74ea7999-f4f8-40fc-a82e-6ad6084773d0",
      "resource": {
        "resourceType": "Observation",
        "id": "74ea7999-f4f8-40fc-a82e-6ad6084773d0",
        "meta": {
          "profile": [
            "http://hl7.eu/fhir/laboratory/StructureDefinition/Observation-resultslab-eu-lab"
          ]
        },
        "performer": [
          {
            "display": "The Central European Lab"
          }
        ],
        "category": [
          {
            "coding": [
              {
                "system": "http://terminology.hl7.org/CodeSystem/observation-category",
                "code": "laboratory"
              }
            ]
          }
        ],
        "code": {
          "coding": [
            {
              "code": "2571-8",
              "system": "http://loinc.org",
              "display": "Triglyceride [Mass/volume] in Serum or Plasma"
            }
          ],
          "text": "Triglyceride [Mass/volume] in Serum or Plasma"
        },
        "valueQuantity": {
          "system": "http://unitsofmeasure.org",
          "value": 133.8,
          "unit": "mg/dL",
          "code": "mg/dL"
        },
        "referenceRange": [
          {
            "low": {
              "value": 0,
              "code": "mg/dL",
              "system": "http://unitsofmeasure.org"
            }
          },
          {
            "high": {
              "value": 199,
              "code": "mg/dL",
              "system": "http://unitsofmeasure.org"
            }
          }
        ],
        "text": {
          "status": "generated",
          "div": "<div xmlns=\"http://www.w3.org/1999/xhtml\"><table class=\"hl7__eu__lab__report\"><tr><th>Test</th><th>05-Feb-2020</th><th>Reference&#xA0;Range</th><th>Unit</th></tr><tr><td>Triglyceride [Mass/volume] in Serum or Plasma</td><td>133.8</td><td>0 - 199</td><td></td><td>mg/dL</td></tr></table></div>"
        },
        "status": "final",
        "subject": {
          "reference": "urn:uuid:dd5bc225-474c-4b5b-9c85-7f5941b65e78",
          "display": "Jele Jurković"
        },
        "effectiveDateTime": "2020-02-05T18:07:38Z",
        "specimen": {
          "reference": "urn:uuid:900521d5-7967-4db6-af7d-057f61e716cb"
        }
      }
    },
    {
      "fullUrl": "urn:uuid:e39c9296-b242-41b7-a687-c9fd2d2656eb",
      "resource": {
        "resourceType": "Observation",
        "id": "e39c9296-b242-41b7-a687-c9fd2d2656eb",
        "meta": {
          "profile": [
            "http://hl7.eu/fhir/laboratory/StructureDefinition/Observation-resultslab-eu-lab"
          ]
        },
        "performer": [
          {
            "display": "The Central European Lab"
          }
        ],
        "category": [
          {
            "coding": [
              {
                "system": "http://terminology.hl7.org/CodeSystem/observation-category",
                "code": "laboratory"
              }
            ]
          }
        ],
        "code": {
          "coding": [
            {
              "code": "18262-6",
              "system": "http://loinc.org",
              "display": "Cholesterol in LDL [Mass/volume] in Serum or Plasma by Direct assay"
            }
          ],
          "text": "Cholesterol in LDL [Mass/volume] in Serum or Plasma by Direct assay"
        },
        "valueQuantity": {
          "system": "http://unitsofmeasure.org",
          "value": 82.3,
          "unit": "mg/dL",
          "code": "mg/dL"
        },
        "referenceRange": [
          {
            "low": {
              "value": 0,
              "code": "mg/dL",
              "system": "http://unitsofmeasure.org"
            }
          },
          {
            "high": {
              "value": 130,
              "code": "mg/dL",
              "system": "http://unitsofmeasure.org"
            }
          }
        ],
        "text": {
          "status": "generated",
          "div": "<div xmlns=\"http://www.w3.org/1999/xhtml\"><table class=\"hl7__eu__lab__report\"><tr><th>Test</th><th>05-Feb-2020</th><th>Reference&#xA0;Range</th><th>Unit</th></tr><tr><td>Cholesterol in LDL [Mass/volume] in Serum or Plasma by Direct assay</td><td>82.3</td><td>0 - 130</td><td></td><td>mg/dL</td></tr></table></div>"
        },
        "status": "final",
        "subject": {
          "reference": "urn:uuid:dd5bc225-474c-4b5b-9c85-7f5941b65e78",
          "display": "Jele Jurković"
        },
        "effectiveDateTime": "2020-02-05T18:07:38Z",
        "specimen": {
          "reference": "urn:uuid:900521d5-7967-4db6-af7d-057f61e716cb"
        }
      }
    },
    {
      "fullUrl": "urn:uuid:f65f82e8-6561-4d04-a862-af5fb56d2e9d",
      "resource": {
        "resourceType": "Observation",
        "id": "f65f82e8-6561-4d04-a862-af5fb56d2e9d",
        "meta": {
          "profile": [
            "http://hl7.eu/fhir/laboratory/StructureDefinition/Observation-resultslab-eu-lab"
          ]
        },
        "performer": [
          {
            "display": "The Central European Lab"
          }
        ],
        "category": [
          {
            "coding": [
              {
                "system": "http://terminology.hl7.org/CodeSystem/observation-category",
                "code": "laboratory"
              }
            ]
          }
        ],
        "code": {
          "coding": [
            {
              "code": "2085-9",
              "system": "http://loinc.org",
              "display": "Cholesterol in HDL [Mass/volume] in Serum or Plasma"
            }
          ],
          "text": "Cholesterol in HDL [Mass/volume] in Serum or Plasma"
        },
        "valueQuantity": {
          "system": "http://unitsofmeasure.org",
          "value": 34.8,
          "unit": "mg/dL",
          "code": "mg/dL"
        },
        "referenceRange": [
          {
            "low": {
              "value": 50,
              "code": "mg/dL",
              "system": "http://unitsofmeasure.org"
            }
          },
          {
            "high": {
              "value": 100,
              "code": "mg/dL",
              "system": "http://unitsofmeasure.org"
            }
          }
        ],
        "interpretation": [
          {
            "coding": [
              {
                "code": "L",
                "system": "http://terminology.hl7.org/CodeSystem/v3-ObservationInterpretation",
                "display": "Low"
              }
            ]
          }
        ],
        "text": {
          "status": "generated",
          "div": "<div xmlns=\"http://www.w3.org/1999/xhtml\"><table class=\"hl7__eu__lab__report\"><tr><th>Test</th><th>05-Feb-2020</th><th>Reference&#xA0;Range</th><th>Unit</th></tr><tr><td>Cholesterol in HDL [Mass/volume] in Serum or Plasma</td><td>34.8</td><td>50 - 100</td><td>L</td><td>mg/dL</td></tr></table></div>"
        },
        "status": "final",
        "subject": {
          "reference": "urn:uuid:dd5bc225-474c-4b5b-9c85-7f5941b65e78",
          "display": "Jele Jurković"
        },
        "effectiveDateTime": "2020-02-05T18:07:38Z",
        "specimen": {
          "reference": "urn:uuid:900521d5-7967-4db6-af7d-057f61e716cb"
        }
      }
    },
    {
      "fullUrl": "urn:uuid:e6bf6482-f3e3-46a8-8c51-16402b90ea38",
      "resource": {
        "resourceType": "Device",
        "id": "e6bf6482-f3e3-46a8-8c51-16402b90ea38",
        "deviceName": [
          {
            "name": "SYNDERAI Synthetic Generator",
            "type": "manufacturer-name"
          }
        ],
        "version": [
          {
            "value": "5.0"
          }
        ],
        "text": {
          "status": "generated",
          "div": "<div xmlns=\"http://www.w3.org/1999/xhtml\">SYNDERAI Synthetic Generator v5.0</div>"
        },
        "status": "active\"",
        "distinctIdentifier": "synderai-generator-50",
        "manufacturer": "SYNDERAI Project"
      }
    },
    {
      "fullUrl": "urn:uuid:d602c705-48f0-4584-9968-3f60486187f2",
      "resource": {
        "resourceType": "Provenance",
        "id": "d602c705-48f0-4584-9968-3f60486187f2",
        "target": [
          {
            "reference": "Patient/dd5bc225-474c-4b5b-9c85-7f5941b65e78"
          },
          {
            "reference": "Bundle/eaf6032c-5b2c-496a-bae1-ef769370f891"
          },
          {
            "reference": "Composition/19d99fb6-4e76-45a3-a0d4-19ea81c3faaf"
          },
          {
            "reference": "PractitionerRole/4b06587c-a5b2-4cfd-b157-0b4de8f0d560"
          },
          {
            "reference": "Practitioner/7c6fc0d6-4f74-43d7-941e-be577c44c71d"
          },
          {
            "reference": "PractitionerRole/e6147d3c-ce5b-4c72-8c92-d98d24c6f44a"
          },
          {
            "reference": "Organization/bf0f1eb5-fa44-4cfd-b2c4-0b21c0dbc668"
          }
        ],
        "activity": {
          "text": "Synthetic Example Data Generation"
        },
        "policy": [
          "https://synderai.net/synderai-synthetic-data-policy"
        ],
        "agent": [
          {
            "type": {
              "text": "author"
            },
            "who": {
              "reference": "Device/e6bf6482-f3e3-46a8-8c51-16402b90ea38"
            }
          }
        ],
        "reason": [
          {
            "text": "Interoperability Testing and Training (non-clinical use)"
          }
        ],
        "text": {
          "status": "generated",
          "div": "<div xmlns=\"http://www.w3.org/1999/xhtml\">Provenance for SYNDERAI Synthetic Example Data Resource</div>"
        },
        "recorded": "2020-02-05T19:07:38Z"
      }
    },
    {
      "fullUrl": "urn:uuid:4b06587c-a5b2-4cfd-b157-0b4de8f0d560",
      "resource": {
        "resourceType": "PractitionerRole",
        "id": "4b06587c-a5b2-4cfd-b157-0b4de8f0d560",
        "meta": {
          "profile": [
            "http://hl7.eu/fhir/base/StructureDefinition/practitionerRole-eu"
          ]
        },
        "text": {
          "status": "generated",
          "div": "<div xmlns=\"http://www.w3.org/1999/xhtml\">Laboratory Role Id: 4b06587c-a5b2-4cfd-b157-0b4de8f0d560</div>"
        },
        "practitioner": {
          "reference": "urn:uuid:7c6fc0d6-4f74-43d7-941e-be577c44c71d"
        }
      }
    },
    {
      "fullUrl": "urn:uuid:7c6fc0d6-4f74-43d7-941e-be577c44c71d",
      "resource": {
        "resourceType": "Practitioner",
        "id": "7c6fc0d6-4f74-43d7-941e-be577c44c71d",
        "meta": {
          "profile": [
            "http://hl7.eu/fhir/base/StructureDefinition/practitioner-eu"
          ]
        },
        "identifier": [
          {
            "assigner": {
              "display": "HL7 Europe"
            },
            "system": "urn:oid:2.16.840.1.113883.2.51.999",
            "value": "3e7e96ff-955b-4f44-a73f-ac96a135ac84"
          }
        ],
        "name": [
          {
            "prefix": [
              "dr"
            ],
            "given": [
              "Ex"
            ],
            "family": "Ample"
          }
        ],
        "address": [
          {
            "line": [
              "Laboratoire Central Européenne",
              "Boulevard du Jardin Botanique 32"
            ],
            "postalCode": "1000",
            "city": "Brussels",
            "country": "Belgium"
          }
        ],
        "text": {
          "status": "generated",
          "div": "<div xmlns=\"http://www.w3.org/1999/xhtml\">Laboratory: Laboratoire Central Européenne, 1000 Brussels, Belgium</div>"
        }
      }
    }
  ],
  "type": "document",
  "timestamp": "2020-02-05T19:07:38Z"
}
