{
  "resourceType": "Bundle",
  "id": "b9bc471c-1d37-49ad-91d2-bcb5bd737389",
  "meta": {
    "profile": [
      "http://hl7.eu/fhir/laboratory/StructureDefinition/Bundle-eu-lab"
    ]
  },
  "identifier": {
    "assigner": {
      "display": "HL7 Europe"
    },
    "system": "urn:oid:2.16.840.1.113883.2.51.999",
    "value": "abbf28b1-30db-438c-80ea-19c17a989aab"
  },
  "entry": [
    {
      "fullUrl": "urn:uuid:d7cfe1ac-b1a0-4faa-99f9-3c8ad032891b",
      "resource": {
        "resourceType": "Composition",
        "id": "d7cfe1ac-b1a0-4faa-99f9-3c8ad032891b",
        "meta": {
          "profile": [
            "http://hl7.eu/fhir/laboratory/StructureDefinition/Composition-eu-lab"
          ]
        },
        "identifier": {
          "assigner": {
            "display": "HL7 Europe"
          },
          "system": "urn:oid:2.16.840.1.113883.2.51.999",
          "value": "bcd4e443-7336-4efc-91d8-2ed8bdf50f25"
        },
        "author": [
          {
            "reference": "urn:uuid:1badaeac-e363-4cd1-b7e6-3b297f8ee3c9"
          }
        ],
        "category": [
          {
            "coding": [
              {
                "code": "26436-6",
                "system": "http://loinc.org",
                "display": "Laboratory studies (set)"
              }
            ]
          }
        ],
        "type": {
          "coding": [
            {
              "code": "11502-2",
              "system": "http://loinc.org",
              "display": "Laboratory report"
            }
          ],
          "text": "Laboratory Report"
        },
        "section": [
          {
            "code": {
              "coding": [
                {
                  "code": "26436-6",
                  "system": "http://loinc.org",
                  "display": "Laboratory studies (set)"
                }
              ],
              "text": "Laboratory studies"
            },
            "section": [
              {
                "code": {
                  "coding": [
                    {
                      "code": "$18719-5",
                      "system": "http://loinc.org",
                      "display": "Chemistry studies (set)"
                    }
                  ],
                  "text": "Chemistry"
                },
                "entry": [
                  {
                    "reference": "urn:uuid:92fc475a-5e24-42bc-ac6a-1bcf7e912458"
                  },
                  {
                    "reference": "urn:uuid:2812bf6c-1da2-4142-b7a3-32fcf271f015"
                  },
                  {
                    "reference": "urn:uuid:e015c677-a628-4adc-b3e0-a97f596e6cc7"
                  },
                  {
                    "reference": "urn:uuid:a16c5e03-b48d-4571-a1d2-d05e16bcc672"
                  },
                  {
                    "reference": "urn:uuid:9a31b794-fc8d-45e4-bcc0-351ddb88cbc7"
                  },
                  {
                    "reference": "urn:uuid:23a03665-dacb-4bf2-a675-57e0f6c7f0cd"
                  },
                  {
                    "reference": "urn:uuid:097c1db2-e56f-4529-a021-e07f5c1f7a31"
                  },
                  {
                    "reference": "urn:uuid:b12f1b26-fd1b-428a-9a02-2540ffd0de32"
                  },
                  {
                    "reference": "urn:uuid:cbd3b4fd-c54d-406c-996d-019f9b56819a"
                  },
                  {
                    "reference": "urn:uuid:d3772275-ded2-4559-ba00-0b1912cee024"
                  },
                  {
                    "reference": "urn:uuid:a1552572-f272-4375-93ff-2a24a621e34f"
                  },
                  {
                    "reference": "urn:uuid:d3e9aeda-235d-411c-a457-1a839d47a6d1"
                  },
                  {
                    "reference": "urn:uuid:db1e31e5-2dab-4674-86e9-4cd268d4c6bd"
                  },
                  {
                    "reference": "urn:uuid:00ca6004-05e8-4e0b-8c79-7b7922e8ac51"
                  },
                  {
                    "reference": "urn:uuid:00fef770-7b99-45de-bd26-e1fd3845ad48"
                  },
                  {
                    "reference": "urn:uuid:b23af853-544e-4f2b-9542-d0ef69a08054"
                  },
                  {
                    "reference": "urn:uuid:e040dbff-b676-4e7a-9fc1-d51a8dad9d2f"
                  },
                  {
                    "reference": "urn:uuid:3e83276d-f84b-47fb-be3c-437ba2e1cb4a"
                  }
                ],
                "text": {
                  "status": "generated",
                  "div": "<div xmlns=\"http://www.w3.org/1999/xhtml\"><h3>Chemistry</h3><table class=\"hl7__eu__lab__report\"><thead><tr><th>Test</th><th>23-NOV-2015</th><th>Reference&#xA0;Range</th><th>Unit</th></tr></thead><tbody><tr><td>Glucose [Mass/volume] in Serum or Plasma</td><td>80.0</td><td>70 - 99</td><td>mg/dL</td></tr><tr><td>Urea nitrogen [Mass/volume] in Serum or Plasma</td><td>8.4</td><td>7 - 50</td><td>mg/dL</td></tr><tr><td>Creatinine [Mass/volume] in Serum or Plasma</td><td><strong>2.1 H</strong></td><td>0.6 - 1.1</td><td>mg/dL</td></tr><tr><td>Calcium [Mass/volume] in Serum or Plasma</td><td>8.8</td><td>8.6 - 10.4</td><td>mg/dL</td></tr><tr><td>Sodium [Moles/volume] in Serum or Plasma</td><td>141.7</td><td>135 - 145</td><td>mmol/L</td></tr><tr><td>Potassium [Moles/volume] in Serum or Plasma</td><td>4.0</td><td>3.5 - 5.1</td><td>mmol/L</td></tr><tr><td>Chloride [Moles/volume] in Serum or Plasma</td><td>106.6</td><td>98 - 108</td><td>mmol/L</td></tr><tr><td>Carbon dioxide, total [Moles/volume] in Serum or Plasma</td><td>25.3</td><td>22 - 32</td><td>mmol/L</td></tr><tr><td>Ketones [Presence] in Urine by Test strip</td><td>Urine ketone test = +</td><td></td><td></td></tr><tr><td>Hemoglobin A1c/Hemoglobin.total in Blood</td><td><strong>3.2 L</strong></td><td>4 - 6.4</td><td>%</td></tr><tr><td>Glucose [Mass/volume] in Blood</td><td>80.0</td><td>70 - 100</td><td>mg/dL</td></tr><tr><td>Urea nitrogen [Mass/volume] in Blood</td><td>8.4</td><td>7 - 43</td><td>mg/dL</td></tr><tr><td>Creatinine [Mass/volume] in Blood</td><td><strong>2.4 H</strong></td><td>0.6 - 1.1</td><td>mg/dL</td></tr><tr><td>Calcium [Mass/volume] in Blood</td><td>8.8</td><td>8.5 - 10.5</td><td>mg/dL</td></tr><tr><td>Sodium [Moles/volume] in Blood</td><td>141.7</td><td>135 - 145</td><td>mmol/L</td></tr><tr><td>Potassium [Moles/volume] in Blood</td><td>4.0</td><td>3.5 - 5.1</td><td>mmol/L</td></tr><tr><td>Chloride [Moles/volume] in Blood</td><td>106.6</td><td>98 - 108</td><td>mmol/L</td></tr><tr><td>Carbon dioxide, total [Moles/volume] in Blood</td><td>25.3</td><td>22 - 29</td><td>mmol/L</td></tr></tbody></table></div>"
                },
                "title": "Chemistry"
              },
              {
                "code": {
                  "coding": [
                    {
                      "code": "$18729-4",
                      "system": "http://loinc.org",
                      "display": "Urinalysis studies (set)"
                    }
                  ],
                  "text": "Urinalysis"
                },
                "entry": [
                  {
                    "reference": "urn:uuid:b65957be-44f5-40b4-9804-8f65e627d4eb"
                  },
                  {
                    "reference": "urn:uuid:ff88542f-c155-4aa1-8d08-dda077b37f5c"
                  },
                  {
                    "reference": "urn:uuid:09134f84-23cf-4cec-bdb4-4cf845aaead2"
                  },
                  {
                    "reference": "urn:uuid:31716c68-d49f-410c-9ff6-66fa2eaeeecb"
                  },
                  {
                    "reference": "urn:uuid:6ae161b9-4045-432a-bb01-f810bd45664c"
                  },
                  {
                    "reference": "urn:uuid:97ef7aec-0563-4761-bddf-4d4b7b5d69d6"
                  },
                  {
                    "reference": "urn:uuid:50f7a43e-d335-4f7e-bfd1-92b05540c2b5"
                  },
                  {
                    "reference": "urn:uuid:e90b8400-5ab8-449a-bcb5-95789fb71023"
                  },
                  {
                    "reference": "urn:uuid:2092e367-368b-4c13-bc19-33218103a5d8"
                  },
                  {
                    "reference": "urn:uuid:e525d65c-3f44-4963-aaba-88eacd22fc07"
                  },
                  {
                    "reference": "urn:uuid:c257a8c1-383a-4fd3-b59c-d1adbb2ed9e0"
                  },
                  {
                    "reference": "urn:uuid:8b12f357-d275-4d7d-887e-773b9add626d"
                  }
                ],
                "text": {
                  "status": "generated",
                  "div": "<div xmlns=\"http://www.w3.org/1999/xhtml\"><h3>Urinalysis</h3><table class=\"hl7__eu__lab__report\"><thead><tr><th>Test</th><th>23-NOV-2015</th><th>Reference&#xA0;Range</th><th>Unit</th></tr></thead><tbody><tr><td>Glucose [Mass/volume] in Urine by Test strip</td><td><strong>1.0 H</strong></td><td>0.8 - 0</td><td>mg/dL</td></tr><tr><td>Glucose [Presence] in Urine by Test strip</td><td>++</td><td></td><td></td></tr><tr><td>Bilirubin.total [Mass/volume] in Urine by Test strip</td><td>0.3</td><td>0 - 1</td><td>mg/dL</td></tr><tr><td>Bilirubin.total [Presence] in Urine by Test strip</td><td>Finding of bilirubin in urine</td><td></td><td></td></tr><tr><td>Ketones [Mass/volume] in Urine by Test strip</td><td>3.4</td><td>0 - 4</td><td>mg/dL</td></tr><tr><td>Specific gravity of Urine by Test strip</td><td><strong>1.0 L</strong></td><td>1.005 - 1.03</td><td>{nominal}</td></tr><tr><td>pH of Urine by Test strip</td><td>6.3</td><td>4.6 - 7</td><td>pH</td></tr><tr><td>Protein [Mass/volume] in Urine by Test strip</td><td><strong>311.3 H</strong></td><td>0 - 14</td><td>mg/dL</td></tr><tr><td>Protein [Presence] in Urine by Test strip</td><td>Urine protein test = ++</td><td></td><td></td></tr><tr><td>Nitrite [Presence] in Urine by Test strip</td><td>Urine nitrite negative</td><td></td><td></td></tr><tr><td>Hemoglobin [Presence] in Urine by Test strip</td><td>Urine blood test = negative</td><td></td><td></td></tr><tr><td>Leukocyte esterase [Presence] in Urine by Test strip</td><td>Urine leukocyte test negative</td><td></td><td></td></tr></tbody></table></div>"
                },
                "title": "Urinalysis"
              },
              {
                "code": {
                  "coding": [
                    {
                      "code": "$LP7846-1",
                      "system": "http://loinc.org",
                      "display": "Specimen information"
                    }
                  ],
                  "text": "Specimen information"
                },
                "entry": [
                  {
                    "reference": "urn:uuid:c1c09fe2-8e50-4c16-9e29-db27fc4db233"
                  },
                  {
                    "reference": "urn:uuid:3f2d26c8-3c33-44fc-a139-487836ded0bf"
                  },
                  {
                    "reference": "urn:uuid:14450998-bc7a-47e4-b714-4e90fd65485f"
                  },
                  {
                    "reference": "urn:uuid:50c27e45-5b64-493a-bcfe-47720249533a"
                  }
                ],
                "text": {
                  "status": "generated",
                  "div": "<div xmlns=\"http://www.w3.org/1999/xhtml\"><h3>Specimen information</h3><table class=\"hl7__eu__lab__report\"><thead><tr><th>Test</th><th>23-NOV-2015</th><th>Specimen</th><th></th></tr></thead><tbody><tr><td>Appearance of Urine</td><td>Cloudy urine</td><td>Urine</td><td></td></tr><tr><td>Odor of Urine</td><td>Urine smell ammoniacal</td><td>Urine</td><td></td></tr><tr><td>Clarity of Urine</td><td>Translucent</td><td>Urine</td><td></td></tr><tr><td>Color of Urine</td><td>Brown color</td><td>Urine</td><td></td></tr></tbody></table></div>"
                },
                "title": "Specimen information"
              }
            ],
            "title": "Laboratory Report"
          },
          {
            "text": {
              "status": "generated",
              "div": "<div xmlns=\"http://www.w3.org/1999/xhtml\"><h3>Annotation</h3><table class=\"hl7__eu__lab__report\"><tr><th>Conclusion and Recommendations based on this report and previous findings known to us</th></tr><tr><td>The patient shows elevated creatinine, significant proteinuria, and low urine specific gravity, suggesting impaired renal function, possibly chronic kidney disease. Urine findings (cloudy, brown, ammoniacal odor) may indicate urinary tract pathology, but no evidence of infection (negative nitrite, leukocytes). Blood glucose and HbA1c are not elevated, making diabetes unlikely. Recommend nephrology evaluation and further workup for renal disease.</td></tr></table></div>"
            },
            "code": {
              "coding": [
                {
                  "system": "http://loinc.org",
                  "code": "48767-8",
                  "display": "Annotation comment"
                }
              ]
            },
            "title": "Annotation comment"
          }
        ],
        "status": "final",
        "subject": {
          "reference": "urn:uuid:f3d27e26-2b0c-4a06-ad01-f69a292e6bf6",
          "display": "Meaghan Neary"
        },
        "date": "2015-11-23T23:11:04Z",
        "title": "Laboratory Report",
        "confidentiality": "N"
      }
    },
    {
      "fullUrl": "urn:uuid:d955069c-1690-42e0-9f35-e1a88b89fc35",
      "resource": {
        "resourceType": "DiagnosticReport",
        "id": "d955069c-1690-42e0-9f35-e1a88b89fc35",
        "meta": {
          "profile": [
            "http://hl7.eu/fhir/laboratory/StructureDefinition/DiagnosticReport-eu-lab"
          ]
        },
        "identifier": [
          {
            "assigner": {
              "display": "HL7 Europe"
            },
            "system": "urn:oid:2.16.840.1.113883.2.51.999",
            "value": "18654c35-233d-44f5-8cc6-8602844e82f2"
          }
        ],
        "extension": [
          {
            "url": "http://hl7.org/fhir/5.0/StructureDefinition/extension-DiagnosticReport.composition",
            "valueReference": {
              "reference": "urn:uuid:bcd4e443-7336-4efc-91d8-2ed8bdf50f25"
            }
          }
        ],
        "category": [
          {
            "coding": [
              {
                "code": "26436-6",
                "system": "http://loinc.org",
                "display": "Laboratory studies (set)"
              }
            ]
          }
        ],
        "specimen": [
          {
            "reference": "urn:uuid:a61c1683-3d18-4bf4-8779-291335bd9111"
          },
          {
            "reference": "urn:uuid:4827fe37-a19f-4c6c-b5b8-dbf9b25a62a7"
          },
          {
            "reference": "urn:uuid:7b439edc-7946-473a-9c84-eb911336e6d4"
          }
        ],
        "result": [
          {
            "reference": "urn:uuid:92fc475a-5e24-42bc-ac6a-1bcf7e912458"
          },
          {
            "reference": "urn:uuid:2812bf6c-1da2-4142-b7a3-32fcf271f015"
          },
          {
            "reference": "urn:uuid:e015c677-a628-4adc-b3e0-a97f596e6cc7"
          },
          {
            "reference": "urn:uuid:a16c5e03-b48d-4571-a1d2-d05e16bcc672"
          },
          {
            "reference": "urn:uuid:9a31b794-fc8d-45e4-bcc0-351ddb88cbc7"
          },
          {
            "reference": "urn:uuid:23a03665-dacb-4bf2-a675-57e0f6c7f0cd"
          },
          {
            "reference": "urn:uuid:097c1db2-e56f-4529-a021-e07f5c1f7a31"
          },
          {
            "reference": "urn:uuid:b12f1b26-fd1b-428a-9a02-2540ffd0de32"
          },
          {
            "reference": "urn:uuid:c1c09fe2-8e50-4c16-9e29-db27fc4db233"
          },
          {
            "reference": "urn:uuid:3f2d26c8-3c33-44fc-a139-487836ded0bf"
          },
          {
            "reference": "urn:uuid:14450998-bc7a-47e4-b714-4e90fd65485f"
          },
          {
            "reference": "urn:uuid:50c27e45-5b64-493a-bcfe-47720249533a"
          },
          {
            "reference": "urn:uuid:b65957be-44f5-40b4-9804-8f65e627d4eb"
          },
          {
            "reference": "urn:uuid:ff88542f-c155-4aa1-8d08-dda077b37f5c"
          },
          {
            "reference": "urn:uuid:09134f84-23cf-4cec-bdb4-4cf845aaead2"
          },
          {
            "reference": "urn:uuid:31716c68-d49f-410c-9ff6-66fa2eaeeecb"
          },
          {
            "reference": "urn:uuid:6ae161b9-4045-432a-bb01-f810bd45664c"
          },
          {
            "reference": "urn:uuid:cbd3b4fd-c54d-406c-996d-019f9b56819a"
          },
          {
            "reference": "urn:uuid:97ef7aec-0563-4761-bddf-4d4b7b5d69d6"
          },
          {
            "reference": "urn:uuid:50f7a43e-d335-4f7e-bfd1-92b05540c2b5"
          },
          {
            "reference": "urn:uuid:e90b8400-5ab8-449a-bcb5-95789fb71023"
          },
          {
            "reference": "urn:uuid:2092e367-368b-4c13-bc19-33218103a5d8"
          },
          {
            "reference": "urn:uuid:e525d65c-3f44-4963-aaba-88eacd22fc07"
          },
          {
            "reference": "urn:uuid:c257a8c1-383a-4fd3-b59c-d1adbb2ed9e0"
          },
          {
            "reference": "urn:uuid:8b12f357-d275-4d7d-887e-773b9add626d"
          },
          {
            "reference": "urn:uuid:d3772275-ded2-4559-ba00-0b1912cee024"
          },
          {
            "reference": "urn:uuid:a1552572-f272-4375-93ff-2a24a621e34f"
          },
          {
            "reference": "urn:uuid:d3e9aeda-235d-411c-a457-1a839d47a6d1"
          },
          {
            "reference": "urn:uuid:db1e31e5-2dab-4674-86e9-4cd268d4c6bd"
          },
          {
            "reference": "urn:uuid:00ca6004-05e8-4e0b-8c79-7b7922e8ac51"
          },
          {
            "reference": "urn:uuid:00fef770-7b99-45de-bd26-e1fd3845ad48"
          },
          {
            "reference": "urn:uuid:b23af853-544e-4f2b-9542-d0ef69a08054"
          },
          {
            "reference": "urn:uuid:e040dbff-b676-4e7a-9fc1-d51a8dad9d2f"
          },
          {
            "reference": "urn:uuid:3e83276d-f84b-47fb-be3c-437ba2e1cb4a"
          }
        ],
        "status": "registered",
        "code": {
          "coding": [
            {
              "code": "11502-2",
              "system": "http://loinc.org",
              "display": "Laboratory report"
            }
          ]
        },
        "subject": {
          "reference": "urn:uuid:f3d27e26-2b0c-4a06-ad01-f69a292e6bf6",
          "display": "Meaghan Neary"
        }
      }
    },
    {
      "fullUrl": "urn:uuid:f3d27e26-2b0c-4a06-ad01-f69a292e6bf6",
      "resource": {
        "resourceType": "Patient",
        "id": "f3d27e26-2b0c-4a06-ad01-f69a292e6bf6",
        "meta": {
          "security": [
            {
              "system": "http://terminology.hl7.org/CodeSystem/v3-ActReason",
              "code": "HTEST"
            },
            {
              "system": "http://terminology.hl7.org/CodeSystem/v3-ActReason",
              "code": "TRAIN"
            }
          ],
          "tag": [
            {
              "system": "https://synderai.net/fhir/CodeSystem/tags",
              "code": "synthetic",
              "display": "SYNDERAI Synthetic data"
            }
          ],
          "profile": [
            "http://hl7.eu/fhir/base/StructureDefinition/patient-eu-core"
          ]
        },
        "identifier": [
          {
            "type": {
              "coding": [
                {
                  "code": "PT",
                  "system": "http://terminology.hl7.org/CodeSystem/v2-0203"
                }
              ]
            },
            "system": "http://ec.europa.eu/identifier/eci",
            "value": "1586-567257-8"
          },
          {
            "type": {
              "coding": [
                {
                  "code": "MR",
                  "system": "http://terminology.hl7.org/CodeSystem/v2-0203"
                }
              ]
            },
            "system": "http://local.setting.eu/identifier",
            "value": "443e6379-f231-b364-3ccb-644740a1aa2a"
          }
        ],
        "name": [
          {
            "family": "Neary"
          },
          {
            "given": [
              "Meaghan"
            ]
          },
          {
            "text": "Meaghan Neary"
          }
        ],
        "address": [
          {
            "line": [
              "64 Linskey Street"
            ],
            "use": "home",
            "type": "physical",
            "postalCode": "D02",
            "city": "Dublin",
            "country": "Ireland"
          }
        ],
        "telecom": [
          {
            "system": "phone",
            "value": "001-967-573-0911x465"
          }
        ],
        "extension": [
          {
            "url": "http://hl7.org/fhir/StructureDefinition/patient-nationality",
            "valueCodeableConcept": {
              "coding": [
                {
                  "code": "IE",
                  "system": "http://hl7.org/fhir/ValueSet/country"
                }
              ]
            }
          }
        ],
        "text": {
          "status": "generated",
          "div": "<div xmlns=\"http://www.w3.org/1999/xhtml\"><table class=\"hl7__ips\"><tr><td>Meaghan Neary</td><td>female</td><td>19-Dec-1960</td></tr></table></div>"
        },
        "gender": "female",
        "birthDate": "1960-12-19"
      }
    },
    {
      "fullUrl": "urn:uuid:9dee6c66-e925-4695-82a1-f767cecd742c",
      "resource": {
        "resourceType": "ServiceRequest",
        "id": "9dee6c66-e925-4695-82a1-f767cecd742c",
        "meta": {
          "profile": [
            "http://hl7.eu/fhir/laboratory/StructureDefinition/ServiceRequest-eu-lab"
          ]
        },
        "identifier": [
          {
            "system": "http://example.org",
            "value": "0d127e96-f956-47fa-a29e-f5d89a0ec067"
          }
        ],
        "specimen": [
          {
            "reference": "urn:uuid:a61c1683-3d18-4bf4-8779-291335bd9111"
          },
          {
            "reference": "urn:uuid:4827fe37-a19f-4c6c-b5b8-dbf9b25a62a7"
          },
          {
            "reference": "urn:uuid:7b439edc-7946-473a-9c84-eb911336e6d4"
          }
        ],
        "reasonCode": [
          {
            "coding": [
              {
                "code": "55822004",
                "system": "http://snomed.info/sct",
                "display": "Hyperlipidemia"
              }
            ]
          },
          {
            "coding": [
              {
                "code": "433144002",
                "system": "http://snomed.info/sct",
                "display": "Chronic kidney disease stage 3"
              }
            ]
          },
          {
            "coding": [
              {
                "code": "157141000119108",
                "system": "http://snomed.info/sct",
                "display": "Proteinuria due to type 2 diabetes mellitus"
              }
            ]
          },
          {
            "coding": [
              {
                "code": "431856006",
                "system": "http://snomed.info/sct",
                "display": "Chronic kidney disease stage 2"
              }
            ]
          },
          {
            "coding": [
              {
                "code": "90781000119102",
                "system": "http://snomed.info/sct",
                "display": "Microalbuminuria due to type 2 diabetes mellitus"
              }
            ]
          },
          {
            "coding": [
              {
                "code": "127013003",
                "system": "http://snomed.info/sct",
                "display": "Disorder of kidney due to diabetes mellitus"
              }
            ]
          },
          {
            "coding": [
              {
                "code": "431855005",
                "system": "http://snomed.info/sct",
                "display": "Chronic kidney disease stage 1"
              }
            ]
          },
          {
            "coding": [
              {
                "code": "237602007",
                "system": "http://snomed.info/sct",
                "display": "Metabolic syndrome X"
              }
            ]
          },
          {
            "coding": [
              {
                "code": "271737000",
                "system": "http://snomed.info/sct",
                "display": "Anemia"
              }
            ]
          },
          {
            "coding": [
              {
                "code": "15777000",
                "system": "http://snomed.info/sct",
                "display": "Prediabetes"
              }
            ]
          },
          {
            "coding": [
              {
                "code": "59621000",
                "system": "http://snomed.info/sct",
                "display": "Essential hypertension"
              }
            ]
          }
        ],
        "status": "active",
        "intent": "order",
        "code": {
          "coding": [
            {
              "code": "108252007",
              "system": "http://snomed.info/sct",
              "display": "Laboratory procedure"
            }
          ]
        },
        "subject": {
          "reference": "urn:uuid:f3d27e26-2b0c-4a06-ad01-f69a292e6bf6",
          "display": "Meaghan Neary"
        },
        "requester": {
          "reference": "urn:uuid:05b3ca0f-0d2f-4d5f-a708-c4145539a617"
        }
      }
    },
    {
      "fullUrl": "urn:uuid:05b3ca0f-0d2f-4d5f-a708-c4145539a617",
      "resource": {
        "resourceType": "PractitionerRole",
        "id": "05b3ca0f-0d2f-4d5f-a708-c4145539a617",
        "meta": {
          "profile": [
            "http://hl7.eu/fhir/base/StructureDefinition/practitionerRole-eu"
          ]
        },
        "text": {
          "status": "generated",
          "div": "<div xmlns=\"http://www.w3.org/1999/xhtml\">Provider Role Id: 05b3ca0f-0d2f-4d5f-a708-c4145539a617</div>"
        },
        "organization": {
          "reference": "urn:uuid:12829c68-fd34-4c05-b289-da0ff8cf49c3"
        }
      }
    },
    {
      "fullUrl": "urn:uuid:12829c68-fd34-4c05-b289-da0ff8cf49c3",
      "resource": {
        "resourceType": "Organization",
        "id": "12829c68-fd34-4c05-b289-da0ff8cf49c3",
        "meta": {
          "profile": [
            "http://hl7.eu/fhir/base/StructureDefinition/organization-eu"
          ]
        },
        "identifier": [
          {
            "assigner": {
              "display": "HL7 Europe"
            },
            "system": "urn:oid:2.16.840.1.113883.2.51.999",
            "value": "b2af094b-f7c1-4455-ade6-f7dc338e3939"
          }
        ],
        "address": [
          {
            "line": [
              "Parnell Square West nan"
            ],
            "city": "Dublin",
            "postalCode": "D01",
            "country": "Ireland"
          }
        ],
        "text": {
          "status": "generated",
          "div": "<div xmlns=\"http://www.w3.org/1999/xhtml\">Provider Organization: Rotunda Hospital</div>"
        },
        "name": "Rotunda Hospital"
      }
    },
    {
      "fullUrl": "urn:uuid:a61c1683-3d18-4bf4-8779-291335bd9111",
      "resource": {
        "resourceType": "Specimen",
        "id": "a61c1683-3d18-4bf4-8779-291335bd9111",
        "meta": {
          "profile": [
            "http://hl7.eu/fhir/laboratory/StructureDefinition/Specimen-eu-lab"
          ]
        },
        "collection": {
          "collectedDateTime": "2015-11-23"
        },
        "text": {
          "status": "generated",
          "div": "<div xmlns=\"http://www.w3.org/1999/xhtml\"><table class=\"hl7__eu__lab__report\"><tr><th>Specimen</th><th>Collection Date</th></tr><tr><td>Acellular blood (serum or plasma) specimen</td><td><span class=\"nb\">23-Nov-2015</span></td></tr></table></div>"
        },
        "type": {
          "coding": [
            {
              "code": "122592007",
              "system": "http://snomed.info/sct",
              "display": "Acellular blood (serum or plasma) specimen"
            }
          ]
        }
      }
    },
    {
      "fullUrl": "urn:uuid:4827fe37-a19f-4c6c-b5b8-dbf9b25a62a7",
      "resource": {
        "resourceType": "Specimen",
        "id": "4827fe37-a19f-4c6c-b5b8-dbf9b25a62a7",
        "meta": {
          "profile": [
            "http://hl7.eu/fhir/laboratory/StructureDefinition/Specimen-eu-lab"
          ]
        },
        "collection": {
          "collectedDateTime": "2015-11-23"
        },
        "text": {
          "status": "generated",
          "div": "<div xmlns=\"http://www.w3.org/1999/xhtml\"><table class=\"hl7__eu__lab__report\"><tr><th>Specimen</th><th>Collection Date</th></tr><tr><td>Urine specimen</td><td><span class=\"nb\">23-Nov-2015</span></td></tr></table></div>"
        },
        "type": {
          "coding": [
            {
              "code": "122575003",
              "system": "http://snomed.info/sct",
              "display": "Urine specimen"
            }
          ]
        }
      }
    },
    {
      "fullUrl": "urn:uuid:7b439edc-7946-473a-9c84-eb911336e6d4",
      "resource": {
        "resourceType": "Specimen",
        "id": "7b439edc-7946-473a-9c84-eb911336e6d4",
        "meta": {
          "profile": [
            "http://hl7.eu/fhir/laboratory/StructureDefinition/Specimen-eu-lab"
          ]
        },
        "collection": {
          "collectedDateTime": "2015-11-23"
        },
        "text": {
          "status": "generated",
          "div": "<div xmlns=\"http://www.w3.org/1999/xhtml\"><table class=\"hl7__eu__lab__report\"><tr><th>Specimen</th><th>Collection Date</th></tr><tr><td>Whole blood specimen (specimen)</td><td><span class=\"nb\">23-Nov-2015</span></td></tr></table></div>"
        },
        "type": {
          "coding": [
            {
              "code": "258580003",
              "system": "http://snomed.info/sct",
              "display": "Whole blood specimen (specimen)"
            }
          ]
        }
      }
    },
    {
      "fullUrl": "urn:uuid:92fc475a-5e24-42bc-ac6a-1bcf7e912458",
      "resource": {
        "resourceType": "Observation",
        "id": "92fc475a-5e24-42bc-ac6a-1bcf7e912458",
        "meta": {
          "profile": [
            "http://hl7.eu/fhir/laboratory/StructureDefinition/Observation-resultslab-eu-lab"
          ]
        },
        "performer": [
          {
            "display": "The Central European Lab"
          }
        ],
        "category": [
          {
            "coding": [
              {
                "system": "http://terminology.hl7.org/CodeSystem/observation-category",
                "code": "laboratory"
              }
            ]
          }
        ],
        "code": {
          "coding": [
            {
              "code": "2345-7",
              "system": "http://loinc.org",
              "display": "Glucose [Mass/volume] in Serum or Plasma"
            }
          ],
          "text": "Glucose [Mass/volume] in Serum or Plasma"
        },
        "valueQuantity": {
          "system": "http://unitsofmeasure.org",
          "value": 80,
          "unit": "mg/dL",
          "code": "mg/dL"
        },
        "referenceRange": [
          {
            "low": {
              "value": 70,
              "code": "mg/dL",
              "system": "http://unitsofmeasure.org"
            }
          },
          {
            "high": {
              "value": 99,
              "code": "mg/dL",
              "system": "http://unitsofmeasure.org"
            }
          }
        ],
        "text": {
          "status": "generated",
          "div": "<div xmlns=\"http://www.w3.org/1999/xhtml\"><table class=\"hl7__eu__lab__report\"><tr><th>Test</th><th>23-Nov-2015</th><th>Reference&#xA0;Range</th><th>Unit</th></tr><tr><td>Glucose [Mass/volume] in Serum or Plasma</td><td>80.0</td><td>70 - 99</td><td></td><td>mg/dL</td></tr></table></div>"
        },
        "status": "final",
        "subject": {
          "reference": "urn:uuid:f3d27e26-2b0c-4a06-ad01-f69a292e6bf6",
          "display": "Meaghan Neary"
        },
        "effectiveDateTime": "2015-11-23T22:11:04Z",
        "specimen": {
          "reference": "urn:uuid:a61c1683-3d18-4bf4-8779-291335bd9111"
        }
      }
    },
    {
      "fullUrl": "urn:uuid:2812bf6c-1da2-4142-b7a3-32fcf271f015",
      "resource": {
        "resourceType": "Observation",
        "id": "2812bf6c-1da2-4142-b7a3-32fcf271f015",
        "meta": {
          "profile": [
            "http://hl7.eu/fhir/laboratory/StructureDefinition/Observation-resultslab-eu-lab"
          ]
        },
        "performer": [
          {
            "display": "The Central European Lab"
          }
        ],
        "category": [
          {
            "coding": [
              {
                "system": "http://terminology.hl7.org/CodeSystem/observation-category",
                "code": "laboratory"
              }
            ]
          }
        ],
        "code": {
          "coding": [
            {
              "code": "3094-0",
              "system": "http://loinc.org",
              "display": "Urea nitrogen [Mass/volume] in Serum or Plasma"
            }
          ],
          "text": "Urea nitrogen [Mass/volume] in Serum or Plasma"
        },
        "valueQuantity": {
          "system": "http://unitsofmeasure.org",
          "value": 8.4,
          "unit": "mg/dL",
          "code": "mg/dL"
        },
        "referenceRange": [
          {
            "low": {
              "value": 7,
              "code": "mg/dL",
              "system": "http://unitsofmeasure.org"
            }
          },
          {
            "high": {
              "value": 50,
              "code": "mg/dL",
              "system": "http://unitsofmeasure.org"
            }
          }
        ],
        "text": {
          "status": "generated",
          "div": "<div xmlns=\"http://www.w3.org/1999/xhtml\"><table class=\"hl7__eu__lab__report\"><tr><th>Test</th><th>23-Nov-2015</th><th>Reference&#xA0;Range</th><th>Unit</th></tr><tr><td>Urea nitrogen [Mass/volume] in Serum or Plasma</td><td>8.4</td><td>7 - 50</td><td></td><td>mg/dL</td></tr></table></div>"
        },
        "status": "final",
        "subject": {
          "reference": "urn:uuid:f3d27e26-2b0c-4a06-ad01-f69a292e6bf6",
          "display": "Meaghan Neary"
        },
        "effectiveDateTime": "2015-11-23T22:11:04Z",
        "specimen": {
          "reference": "urn:uuid:a61c1683-3d18-4bf4-8779-291335bd9111"
        }
      }
    },
    {
      "fullUrl": "urn:uuid:e015c677-a628-4adc-b3e0-a97f596e6cc7",
      "resource": {
        "resourceType": "Observation",
        "id": "e015c677-a628-4adc-b3e0-a97f596e6cc7",
        "meta": {
          "profile": [
            "http://hl7.eu/fhir/laboratory/StructureDefinition/Observation-resultslab-eu-lab"
          ]
        },
        "performer": [
          {
            "display": "The Central European Lab"
          }
        ],
        "category": [
          {
            "coding": [
              {
                "system": "http://terminology.hl7.org/CodeSystem/observation-category",
                "code": "laboratory"
              }
            ]
          }
        ],
        "code": {
          "coding": [
            {
              "code": "2160-0",
              "system": "http://loinc.org",
              "display": "Creatinine [Mass/volume] in Serum or Plasma"
            }
          ],
          "text": "Creatinine [Mass/volume] in Serum or Plasma"
        },
        "valueQuantity": {
          "system": "http://unitsofmeasure.org",
          "value": 2.1,
          "unit": "mg/dL",
          "code": "mg/dL"
        },
        "referenceRange": [
          {
            "low": {
              "value": 0.6,
              "code": "mg/dL",
              "system": "http://unitsofmeasure.org"
            }
          },
          {
            "high": {
              "value": 1.1,
              "code": "mg/dL",
              "system": "http://unitsofmeasure.org"
            }
          }
        ],
        "interpretation": [
          {
            "coding": [
              {
                "code": "H",
                "system": "http://terminology.hl7.org/CodeSystem/v3-ObservationInterpretation",
                "display": "High"
              }
            ]
          }
        ],
        "text": {
          "status": "generated",
          "div": "<div xmlns=\"http://www.w3.org/1999/xhtml\"><table class=\"hl7__eu__lab__report\"><tr><th>Test</th><th>23-Nov-2015</th><th>Reference&#xA0;Range</th><th>Unit</th></tr><tr><td>Creatinine [Mass/volume] in Serum or Plasma</td><td>2.1</td><td>0.6 - 1.1</td><td>H</td><td>mg/dL</td></tr></table></div>"
        },
        "status": "final",
        "subject": {
          "reference": "urn:uuid:f3d27e26-2b0c-4a06-ad01-f69a292e6bf6",
          "display": "Meaghan Neary"
        },
        "effectiveDateTime": "2015-11-23T22:11:04Z",
        "specimen": {
          "reference": "urn:uuid:a61c1683-3d18-4bf4-8779-291335bd9111"
        }
      }
    },
    {
      "fullUrl": "urn:uuid:a16c5e03-b48d-4571-a1d2-d05e16bcc672",
      "resource": {
        "resourceType": "Observation",
        "id": "a16c5e03-b48d-4571-a1d2-d05e16bcc672",
        "meta": {
          "profile": [
            "http://hl7.eu/fhir/laboratory/StructureDefinition/Observation-resultslab-eu-lab"
          ]
        },
        "performer": [
          {
            "display": "The Central European Lab"
          }
        ],
        "category": [
          {
            "coding": [
              {
                "system": "http://terminology.hl7.org/CodeSystem/observation-category",
                "code": "laboratory"
              }
            ]
          }
        ],
        "code": {
          "coding": [
            {
              "code": "17861-6",
              "system": "http://loinc.org",
              "display": "Calcium [Mass/volume] in Serum or Plasma"
            }
          ],
          "text": "Calcium [Mass/volume] in Serum or Plasma"
        },
        "valueQuantity": {
          "system": "http://unitsofmeasure.org",
          "value": 8.8,
          "unit": "mg/dL",
          "code": "mg/dL"
        },
        "referenceRange": [
          {
            "low": {
              "value": 8.6,
              "code": "mg/dL",
              "system": "http://unitsofmeasure.org"
            }
          },
          {
            "high": {
              "value": 10.4,
              "code": "mg/dL",
              "system": "http://unitsofmeasure.org"
            }
          }
        ],
        "text": {
          "status": "generated",
          "div": "<div xmlns=\"http://www.w3.org/1999/xhtml\"><table class=\"hl7__eu__lab__report\"><tr><th>Test</th><th>23-Nov-2015</th><th>Reference&#xA0;Range</th><th>Unit</th></tr><tr><td>Calcium [Mass/volume] in Serum or Plasma</td><td>8.8</td><td>8.6 - 10.4</td><td></td><td>mg/dL</td></tr></table></div>"
        },
        "status": "final",
        "subject": {
          "reference": "urn:uuid:f3d27e26-2b0c-4a06-ad01-f69a292e6bf6",
          "display": "Meaghan Neary"
        },
        "effectiveDateTime": "2015-11-23T22:11:04Z",
        "specimen": {
          "reference": "urn:uuid:a61c1683-3d18-4bf4-8779-291335bd9111"
        }
      }
    },
    {
      "fullUrl": "urn:uuid:9a31b794-fc8d-45e4-bcc0-351ddb88cbc7",
      "resource": {
        "resourceType": "Observation",
        "id": "9a31b794-fc8d-45e4-bcc0-351ddb88cbc7",
        "meta": {
          "profile": [
            "http://hl7.eu/fhir/laboratory/StructureDefinition/Observation-resultslab-eu-lab"
          ]
        },
        "performer": [
          {
            "display": "The Central European Lab"
          }
        ],
        "category": [
          {
            "coding": [
              {
                "system": "http://terminology.hl7.org/CodeSystem/observation-category",
                "code": "laboratory"
              }
            ]
          }
        ],
        "code": {
          "coding": [
            {
              "code": "2951-2",
              "system": "http://loinc.org",
              "display": "Sodium [Moles/volume] in Serum or Plasma"
            }
          ],
          "text": "Sodium [Moles/volume] in Serum or Plasma"
        },
        "valueQuantity": {
          "system": "http://unitsofmeasure.org",
          "value": 141.7,
          "unit": "mmol/L",
          "code": "mmol/L"
        },
        "referenceRange": [
          {
            "low": {
              "value": 135,
              "code": "mmol/L",
              "system": "http://unitsofmeasure.org"
            }
          },
          {
            "high": {
              "value": 145,
              "code": "mmol/L",
              "system": "http://unitsofmeasure.org"
            }
          }
        ],
        "text": {
          "status": "generated",
          "div": "<div xmlns=\"http://www.w3.org/1999/xhtml\"><table class=\"hl7__eu__lab__report\"><tr><th>Test</th><th>23-Nov-2015</th><th>Reference&#xA0;Range</th><th>Unit</th></tr><tr><td>Sodium [Moles/volume] in Serum or Plasma</td><td>141.7</td><td>135 - 145</td><td></td><td>mmol/L</td></tr></table></div>"
        },
        "status": "final",
        "subject": {
          "reference": "urn:uuid:f3d27e26-2b0c-4a06-ad01-f69a292e6bf6",
          "display": "Meaghan Neary"
        },
        "effectiveDateTime": "2015-11-23T22:11:04Z",
        "specimen": {
          "reference": "urn:uuid:a61c1683-3d18-4bf4-8779-291335bd9111"
        }
      }
    },
    {
      "fullUrl": "urn:uuid:23a03665-dacb-4bf2-a675-57e0f6c7f0cd",
      "resource": {
        "resourceType": "Observation",
        "id": "23a03665-dacb-4bf2-a675-57e0f6c7f0cd",
        "meta": {
          "profile": [
            "http://hl7.eu/fhir/laboratory/StructureDefinition/Observation-resultslab-eu-lab"
          ]
        },
        "performer": [
          {
            "display": "The Central European Lab"
          }
        ],
        "category": [
          {
            "coding": [
              {
                "system": "http://terminology.hl7.org/CodeSystem/observation-category",
                "code": "laboratory"
              }
            ]
          }
        ],
        "code": {
          "coding": [
            {
              "code": "2823-3",
              "system": "http://loinc.org",
              "display": "Potassium [Moles/volume] in Serum or Plasma"
            }
          ],
          "text": "Potassium [Moles/volume] in Serum or Plasma"
        },
        "valueQuantity": {
          "system": "http://unitsofmeasure.org",
          "value": 4,
          "unit": "mmol/L",
          "code": "mmol/L"
        },
        "referenceRange": [
          {
            "low": {
              "value": 3.5,
              "code": "mmol/L",
              "system": "http://unitsofmeasure.org"
            }
          },
          {
            "high": {
              "value": 5.1,
              "code": "mmol/L",
              "system": "http://unitsofmeasure.org"
            }
          }
        ],
        "text": {
          "status": "generated",
          "div": "<div xmlns=\"http://www.w3.org/1999/xhtml\"><table class=\"hl7__eu__lab__report\"><tr><th>Test</th><th>23-Nov-2015</th><th>Reference&#xA0;Range</th><th>Unit</th></tr><tr><td>Potassium [Moles/volume] in Serum or Plasma</td><td>4.0</td><td>3.5 - 5.1</td><td></td><td>mmol/L</td></tr></table></div>"
        },
        "status": "final",
        "subject": {
          "reference": "urn:uuid:f3d27e26-2b0c-4a06-ad01-f69a292e6bf6",
          "display": "Meaghan Neary"
        },
        "effectiveDateTime": "2015-11-23T22:11:04Z",
        "specimen": {
          "reference": "urn:uuid:a61c1683-3d18-4bf4-8779-291335bd9111"
        }
      }
    },
    {
      "fullUrl": "urn:uuid:097c1db2-e56f-4529-a021-e07f5c1f7a31",
      "resource": {
        "resourceType": "Observation",
        "id": "097c1db2-e56f-4529-a021-e07f5c1f7a31",
        "meta": {
          "profile": [
            "http://hl7.eu/fhir/laboratory/StructureDefinition/Observation-resultslab-eu-lab"
          ]
        },
        "performer": [
          {
            "display": "The Central European Lab"
          }
        ],
        "category": [
          {
            "coding": [
              {
                "system": "http://terminology.hl7.org/CodeSystem/observation-category",
                "code": "laboratory"
              }
            ]
          }
        ],
        "code": {
          "coding": [
            {
              "code": "2075-0",
              "system": "http://loinc.org",
              "display": "Chloride [Moles/volume] in Serum or Plasma"
            }
          ],
          "text": "Chloride [Moles/volume] in Serum or Plasma"
        },
        "valueQuantity": {
          "system": "http://unitsofmeasure.org",
          "value": 106.6,
          "unit": "mmol/L",
          "code": "mmol/L"
        },
        "referenceRange": [
          {
            "low": {
              "value": 98,
              "code": "mmol/L",
              "system": "http://unitsofmeasure.org"
            }
          },
          {
            "high": {
              "value": 108,
              "code": "mmol/L",
              "system": "http://unitsofmeasure.org"
            }
          }
        ],
        "text": {
          "status": "generated",
          "div": "<div xmlns=\"http://www.w3.org/1999/xhtml\"><table class=\"hl7__eu__lab__report\"><tr><th>Test</th><th>23-Nov-2015</th><th>Reference&#xA0;Range</th><th>Unit</th></tr><tr><td>Chloride [Moles/volume] in Serum or Plasma</td><td>106.6</td><td>98 - 108</td><td></td><td>mmol/L</td></tr></table></div>"
        },
        "status": "final",
        "subject": {
          "reference": "urn:uuid:f3d27e26-2b0c-4a06-ad01-f69a292e6bf6",
          "display": "Meaghan Neary"
        },
        "effectiveDateTime": "2015-11-23T22:11:04Z",
        "specimen": {
          "reference": "urn:uuid:a61c1683-3d18-4bf4-8779-291335bd9111"
        }
      }
    },
    {
      "fullUrl": "urn:uuid:b12f1b26-fd1b-428a-9a02-2540ffd0de32",
      "resource": {
        "resourceType": "Observation",
        "id": "b12f1b26-fd1b-428a-9a02-2540ffd0de32",
        "meta": {
          "profile": [
            "http://hl7.eu/fhir/laboratory/StructureDefinition/Observation-resultslab-eu-lab"
          ]
        },
        "performer": [
          {
            "display": "The Central European Lab"
          }
        ],
        "category": [
          {
            "coding": [
              {
                "system": "http://terminology.hl7.org/CodeSystem/observation-category",
                "code": "laboratory"
              }
            ]
          }
        ],
        "code": {
          "coding": [
            {
              "code": "2028-9",
              "system": "http://loinc.org",
              "display": "Carbon dioxide, total [Moles/volume] in Serum or Plasma"
            }
          ],
          "text": "Carbon dioxide, total [Moles/volume] in Serum or Plasma"
        },
        "valueQuantity": {
          "system": "http://unitsofmeasure.org",
          "value": 25.3,
          "unit": "mmol/L",
          "code": "mmol/L"
        },
        "referenceRange": [
          {
            "low": {
              "value": 22,
              "code": "mmol/L",
              "system": "http://unitsofmeasure.org"
            }
          },
          {
            "high": {
              "value": 32,
              "code": "mmol/L",
              "system": "http://unitsofmeasure.org"
            }
          }
        ],
        "text": {
          "status": "generated",
          "div": "<div xmlns=\"http://www.w3.org/1999/xhtml\"><table class=\"hl7__eu__lab__report\"><tr><th>Test</th><th>23-Nov-2015</th><th>Reference&#xA0;Range</th><th>Unit</th></tr><tr><td>Carbon dioxide, total [Moles/volume] in Serum or Plasma</td><td>25.3</td><td>22 - 32</td><td></td><td>mmol/L</td></tr></table></div>"
        },
        "status": "final",
        "subject": {
          "reference": "urn:uuid:f3d27e26-2b0c-4a06-ad01-f69a292e6bf6",
          "display": "Meaghan Neary"
        },
        "effectiveDateTime": "2015-11-23T22:11:04Z",
        "specimen": {
          "reference": "urn:uuid:a61c1683-3d18-4bf4-8779-291335bd9111"
        }
      }
    },
    {
      "fullUrl": "urn:uuid:c1c09fe2-8e50-4c16-9e29-db27fc4db233",
      "resource": {
        "resourceType": "Observation",
        "id": "c1c09fe2-8e50-4c16-9e29-db27fc4db233",
        "meta": {
          "profile": [
            "http://hl7.eu/fhir/laboratory/StructureDefinition/Observation-resultslab-eu-lab"
          ]
        },
        "performer": [
          {
            "display": "The Central European Lab"
          }
        ],
        "category": [
          {
            "coding": [
              {
                "system": "http://terminology.hl7.org/CodeSystem/observation-category",
                "code": "laboratory"
              }
            ]
          }
        ],
        "code": {
          "coding": [
            {
              "code": "5767-9",
              "system": "http://loinc.org",
              "display": "Appearance of Urine"
            }
          ],
          "text": "Appearance of Urine"
        },
        "text": {
          "status": "generated",
          "div": "<div xmlns=\"http://www.w3.org/1999/xhtml\"><table class=\"hl7__eu__lab__report\"><tr><th>Test</th><th>23-Nov-2015</th><th>Reference&#xA0;Range</th><th>Unit</th></tr><tr><td>Appearance of Urine</td></tr></table></div>"
        },
        "status": "final",
        "subject": {
          "reference": "urn:uuid:f3d27e26-2b0c-4a06-ad01-f69a292e6bf6",
          "display": "Meaghan Neary"
        },
        "effectiveDateTime": "2015-11-23T22:11:04Z",
        "specimen": {
          "reference": "urn:uuid:4827fe37-a19f-4c6c-b5b8-dbf9b25a62a7"
        }
      }
    },
    {
      "fullUrl": "urn:uuid:3f2d26c8-3c33-44fc-a139-487836ded0bf",
      "resource": {
        "resourceType": "Observation",
        "id": "3f2d26c8-3c33-44fc-a139-487836ded0bf",
        "meta": {
          "profile": [
            "http://hl7.eu/fhir/laboratory/StructureDefinition/Observation-resultslab-eu-lab"
          ]
        },
        "performer": [
          {
            "display": "The Central European Lab"
          }
        ],
        "category": [
          {
            "coding": [
              {
                "system": "http://terminology.hl7.org/CodeSystem/observation-category",
                "code": "laboratory"
              }
            ]
          }
        ],
        "code": {
          "coding": [
            {
              "code": "34533-0",
              "system": "http://loinc.org",
              "display": "Odor of Urine"
            }
          ],
          "text": "Odor of Urine"
        },
        "text": {
          "status": "generated",
          "div": "<div xmlns=\"http://www.w3.org/1999/xhtml\"><table class=\"hl7__eu__lab__report\"><tr><th>Test</th><th>23-Nov-2015</th><th>Reference&#xA0;Range</th><th>Unit</th></tr><tr><td>Odor of Urine</td></tr></table></div>"
        },
        "status": "final",
        "subject": {
          "reference": "urn:uuid:f3d27e26-2b0c-4a06-ad01-f69a292e6bf6",
          "display": "Meaghan Neary"
        },
        "effectiveDateTime": "2015-11-23T22:11:04Z",
        "specimen": {
          "reference": "urn:uuid:4827fe37-a19f-4c6c-b5b8-dbf9b25a62a7"
        }
      }
    },
    {
      "fullUrl": "urn:uuid:14450998-bc7a-47e4-b714-4e90fd65485f",
      "resource": {
        "resourceType": "Observation",
        "id": "14450998-bc7a-47e4-b714-4e90fd65485f",
        "meta": {
          "profile": [
            "http://hl7.eu/fhir/laboratory/StructureDefinition/Observation-resultslab-eu-lab"
          ]
        },
        "performer": [
          {
            "display": "The Central European Lab"
          }
        ],
        "category": [
          {
            "coding": [
              {
                "system": "http://terminology.hl7.org/CodeSystem/observation-category",
                "code": "laboratory"
              }
            ]
          }
        ],
        "code": {
          "coding": [
            {
              "code": "32167-9",
              "system": "http://loinc.org",
              "display": "Clarity of Urine"
            }
          ],
          "text": "Clarity of Urine"
        },
        "text": {
          "status": "generated",
          "div": "<div xmlns=\"http://www.w3.org/1999/xhtml\"><table class=\"hl7__eu__lab__report\"><tr><th>Test</th><th>23-Nov-2015</th><th>Reference&#xA0;Range</th><th>Unit</th></tr><tr><td>Clarity of Urine</td></tr></table></div>"
        },
        "status": "final",
        "subject": {
          "reference": "urn:uuid:f3d27e26-2b0c-4a06-ad01-f69a292e6bf6",
          "display": "Meaghan Neary"
        },
        "effectiveDateTime": "2015-11-23T22:11:04Z",
        "specimen": {
          "reference": "urn:uuid:4827fe37-a19f-4c6c-b5b8-dbf9b25a62a7"
        }
      }
    },
    {
      "fullUrl": "urn:uuid:50c27e45-5b64-493a-bcfe-47720249533a",
      "resource": {
        "resourceType": "Observation",
        "id": "50c27e45-5b64-493a-bcfe-47720249533a",
        "meta": {
          "profile": [
            "http://hl7.eu/fhir/laboratory/StructureDefinition/Observation-resultslab-eu-lab"
          ]
        },
        "performer": [
          {
            "display": "The Central European Lab"
          }
        ],
        "category": [
          {
            "coding": [
              {
                "system": "http://terminology.hl7.org/CodeSystem/observation-category",
                "code": "laboratory"
              }
            ]
          }
        ],
        "code": {
          "coding": [
            {
              "code": "5778-6",
              "system": "http://loinc.org",
              "display": "Color of Urine"
            }
          ],
          "text": "Color of Urine"
        },
        "text": {
          "status": "generated",
          "div": "<div xmlns=\"http://www.w3.org/1999/xhtml\"><table class=\"hl7__eu__lab__report\"><tr><th>Test</th><th>23-Nov-2015</th><th>Reference&#xA0;Range</th><th>Unit</th></tr><tr><td>Color of Urine</td></tr></table></div>"
        },
        "status": "final",
        "subject": {
          "reference": "urn:uuid:f3d27e26-2b0c-4a06-ad01-f69a292e6bf6",
          "display": "Meaghan Neary"
        },
        "effectiveDateTime": "2015-11-23T22:11:04Z",
        "specimen": {
          "reference": "urn:uuid:4827fe37-a19f-4c6c-b5b8-dbf9b25a62a7"
        }
      }
    },
    {
      "fullUrl": "urn:uuid:b65957be-44f5-40b4-9804-8f65e627d4eb",
      "resource": {
        "resourceType": "Observation",
        "id": "b65957be-44f5-40b4-9804-8f65e627d4eb",
        "meta": {
          "profile": [
            "http://hl7.eu/fhir/laboratory/StructureDefinition/Observation-resultslab-eu-lab"
          ]
        },
        "performer": [
          {
            "display": "The Central European Lab"
          }
        ],
        "category": [
          {
            "coding": [
              {
                "system": "http://terminology.hl7.org/CodeSystem/observation-category",
                "code": "laboratory"
              }
            ]
          }
        ],
        "code": {
          "coding": [
            {
              "code": "5792-7",
              "system": "http://loinc.org",
              "display": "Glucose [Mass/volume] in Urine by Test strip"
            }
          ],
          "text": "Glucose [Mass/volume] in Urine by Test strip"
        },
        "valueQuantity": {
          "system": "http://unitsofmeasure.org",
          "value": 1,
          "unit": "mg/dL",
          "code": "mg/dL"
        },
        "referenceRange": [
          {
            "low": {
              "value": 0.8,
              "code": "mg/dL",
              "system": "http://unitsofmeasure.org"
            }
          },
          {
            "high": {
              "value": 0,
              "code": "mg/dL",
              "system": "http://unitsofmeasure.org"
            }
          }
        ],
        "interpretation": [
          {
            "coding": [
              {
                "code": "H",
                "system": "http://terminology.hl7.org/CodeSystem/v3-ObservationInterpretation",
                "display": "High"
              }
            ]
          }
        ],
        "text": {
          "status": "generated",
          "div": "<div xmlns=\"http://www.w3.org/1999/xhtml\"><table class=\"hl7__eu__lab__report\"><tr><th>Test</th><th>23-Nov-2015</th><th>Reference&#xA0;Range</th><th>Unit</th></tr><tr><td>Glucose [Mass/volume] in Urine by Test strip</td><td>1.0</td><td>0.8 - 0</td><td>H</td><td>mg/dL</td></tr></table></div>"
        },
        "status": "final",
        "subject": {
          "reference": "urn:uuid:f3d27e26-2b0c-4a06-ad01-f69a292e6bf6",
          "display": "Meaghan Neary"
        },
        "effectiveDateTime": "2015-11-23T22:11:04Z",
        "specimen": {
          "reference": "urn:uuid:4827fe37-a19f-4c6c-b5b8-dbf9b25a62a7"
        }
      }
    },
    {
      "fullUrl": "urn:uuid:ff88542f-c155-4aa1-8d08-dda077b37f5c",
      "resource": {
        "resourceType": "Observation",
        "id": "ff88542f-c155-4aa1-8d08-dda077b37f5c",
        "meta": {
          "profile": [
            "http://hl7.eu/fhir/laboratory/StructureDefinition/Observation-resultslab-eu-lab"
          ]
        },
        "performer": [
          {
            "display": "The Central European Lab"
          }
        ],
        "category": [
          {
            "coding": [
              {
                "system": "http://terminology.hl7.org/CodeSystem/observation-category",
                "code": "laboratory"
              }
            ]
          }
        ],
        "code": {
          "coding": [
            {
              "code": "25428-4",
              "system": "http://loinc.org",
              "display": "Glucose [Presence] in Urine by Test strip"
            }
          ],
          "text": "Glucose [Presence] in Urine by Test strip"
        },
        "text": {
          "status": "generated",
          "div": "<div xmlns=\"http://www.w3.org/1999/xhtml\"><table class=\"hl7__eu__lab__report\"><tr><th>Test</th><th>23-Nov-2015</th><th>Reference&#xA0;Range</th><th>Unit</th></tr><tr><td>Glucose [Presence] in Urine by Test strip</td></tr></table></div>"
        },
        "status": "final",
        "subject": {
          "reference": "urn:uuid:f3d27e26-2b0c-4a06-ad01-f69a292e6bf6",
          "display": "Meaghan Neary"
        },
        "effectiveDateTime": "2015-11-23T22:11:04Z",
        "specimen": {
          "reference": "urn:uuid:4827fe37-a19f-4c6c-b5b8-dbf9b25a62a7"
        }
      }
    },
    {
      "fullUrl": "urn:uuid:09134f84-23cf-4cec-bdb4-4cf845aaead2",
      "resource": {
        "resourceType": "Observation",
        "id": "09134f84-23cf-4cec-bdb4-4cf845aaead2",
        "meta": {
          "profile": [
            "http://hl7.eu/fhir/laboratory/StructureDefinition/Observation-resultslab-eu-lab"
          ]
        },
        "performer": [
          {
            "display": "The Central European Lab"
          }
        ],
        "category": [
          {
            "coding": [
              {
                "system": "http://terminology.hl7.org/CodeSystem/observation-category",
                "code": "laboratory"
              }
            ]
          }
        ],
        "code": {
          "coding": [
            {
              "code": "20505-4",
              "system": "http://loinc.org",
              "display": "Bilirubin.total [Mass/volume] in Urine by Test strip"
            }
          ],
          "text": "Bilirubin.total [Mass/volume] in Urine by Test strip"
        },
        "valueQuantity": {
          "system": "http://unitsofmeasure.org",
          "value": 0.3,
          "unit": "mg/dL",
          "code": "mg/dL"
        },
        "referenceRange": [
          {
            "low": {
              "value": 0,
              "code": "mg/dL",
              "system": "http://unitsofmeasure.org"
            }
          },
          {
            "high": {
              "value": 1,
              "code": "mg/dL",
              "system": "http://unitsofmeasure.org"
            }
          }
        ],
        "text": {
          "status": "generated",
          "div": "<div xmlns=\"http://www.w3.org/1999/xhtml\"><table class=\"hl7__eu__lab__report\"><tr><th>Test</th><th>23-Nov-2015</th><th>Reference&#xA0;Range</th><th>Unit</th></tr><tr><td>Bilirubin.total [Mass/volume] in Urine by Test strip</td><td>0.3</td><td>0 - 1</td><td></td><td>mg/dL</td></tr></table></div>"
        },
        "status": "final",
        "subject": {
          "reference": "urn:uuid:f3d27e26-2b0c-4a06-ad01-f69a292e6bf6",
          "display": "Meaghan Neary"
        },
        "effectiveDateTime": "2015-11-23T22:11:04Z",
        "specimen": {
          "reference": "urn:uuid:4827fe37-a19f-4c6c-b5b8-dbf9b25a62a7"
        }
      }
    },
    {
      "fullUrl": "urn:uuid:31716c68-d49f-410c-9ff6-66fa2eaeeecb",
      "resource": {
        "resourceType": "Observation",
        "id": "31716c68-d49f-410c-9ff6-66fa2eaeeecb",
        "meta": {
          "profile": [
            "http://hl7.eu/fhir/laboratory/StructureDefinition/Observation-resultslab-eu-lab"
          ]
        },
        "performer": [
          {
            "display": "The Central European Lab"
          }
        ],
        "category": [
          {
            "coding": [
              {
                "system": "http://terminology.hl7.org/CodeSystem/observation-category",
                "code": "laboratory"
              }
            ]
          }
        ],
        "code": {
          "coding": [
            {
              "code": "5770-3",
              "system": "http://loinc.org",
              "display": "Bilirubin.total [Presence] in Urine by Test strip"
            }
          ],
          "text": "Bilirubin.total [Presence] in Urine by Test strip"
        },
        "text": {
          "status": "generated",
          "div": "<div xmlns=\"http://www.w3.org/1999/xhtml\"><table class=\"hl7__eu__lab__report\"><tr><th>Test</th><th>23-Nov-2015</th><th>Reference&#xA0;Range</th><th>Unit</th></tr><tr><td>Bilirubin.total [Presence] in Urine by Test strip</td></tr></table></div>"
        },
        "status": "final",
        "subject": {
          "reference": "urn:uuid:f3d27e26-2b0c-4a06-ad01-f69a292e6bf6",
          "display": "Meaghan Neary"
        },
        "effectiveDateTime": "2015-11-23T22:11:04Z",
        "specimen": {
          "reference": "urn:uuid:4827fe37-a19f-4c6c-b5b8-dbf9b25a62a7"
        }
      }
    },
    {
      "fullUrl": "urn:uuid:6ae161b9-4045-432a-bb01-f810bd45664c",
      "resource": {
        "resourceType": "Observation",
        "id": "6ae161b9-4045-432a-bb01-f810bd45664c",
        "meta": {
          "profile": [
            "http://hl7.eu/fhir/laboratory/StructureDefinition/Observation-resultslab-eu-lab"
          ]
        },
        "performer": [
          {
            "display": "The Central European Lab"
          }
        ],
        "category": [
          {
            "coding": [
              {
                "system": "http://terminology.hl7.org/CodeSystem/observation-category",
                "code": "laboratory"
              }
            ]
          }
        ],
        "code": {
          "coding": [
            {
              "code": "5797-6",
              "system": "http://loinc.org",
              "display": "Ketones [Mass/volume] in Urine by Test strip"
            }
          ],
          "text": "Ketones [Mass/volume] in Urine by Test strip"
        },
        "valueQuantity": {
          "system": "http://unitsofmeasure.org",
          "value": 3.4,
          "unit": "mg/dL",
          "code": "mg/dL"
        },
        "referenceRange": [
          {
            "low": {
              "value": 0,
              "code": "mg/dL",
              "system": "http://unitsofmeasure.org"
            }
          },
          {
            "high": {
              "value": 4,
              "code": "mg/dL",
              "system": "http://unitsofmeasure.org"
            }
          }
        ],
        "text": {
          "status": "generated",
          "div": "<div xmlns=\"http://www.w3.org/1999/xhtml\"><table class=\"hl7__eu__lab__report\"><tr><th>Test</th><th>23-Nov-2015</th><th>Reference&#xA0;Range</th><th>Unit</th></tr><tr><td>Ketones [Mass/volume] in Urine by Test strip</td><td>3.4</td><td>0 - 4</td><td></td><td>mg/dL</td></tr></table></div>"
        },
        "status": "final",
        "subject": {
          "reference": "urn:uuid:f3d27e26-2b0c-4a06-ad01-f69a292e6bf6",
          "display": "Meaghan Neary"
        },
        "effectiveDateTime": "2015-11-23T22:11:04Z",
        "specimen": {
          "reference": "urn:uuid:4827fe37-a19f-4c6c-b5b8-dbf9b25a62a7"
        }
      }
    },
    {
      "fullUrl": "urn:uuid:cbd3b4fd-c54d-406c-996d-019f9b56819a",
      "resource": {
        "resourceType": "Observation",
        "id": "cbd3b4fd-c54d-406c-996d-019f9b56819a",
        "meta": {
          "profile": [
            "http://hl7.eu/fhir/laboratory/StructureDefinition/Observation-resultslab-eu-lab"
          ]
        },
        "performer": [
          {
            "display": "The Central European Lab"
          }
        ],
        "category": [
          {
            "coding": [
              {
                "system": "http://terminology.hl7.org/CodeSystem/observation-category",
                "code": "laboratory"
              }
            ]
          }
        ],
        "code": {
          "coding": [
            {
              "code": "2514-8",
              "system": "http://loinc.org",
              "display": "Ketones [Presence] in Urine by Test strip"
            }
          ],
          "text": "Ketones [Presence] in Urine by Test strip"
        },
        "text": {
          "status": "generated",
          "div": "<div xmlns=\"http://www.w3.org/1999/xhtml\"><table class=\"hl7__eu__lab__report\"><tr><th>Test</th><th>23-Nov-2015</th><th>Reference&#xA0;Range</th><th>Unit</th></tr><tr><td>Ketones [Presence] in Urine by Test strip</td></tr></table></div>"
        },
        "status": "final",
        "subject": {
          "reference": "urn:uuid:f3d27e26-2b0c-4a06-ad01-f69a292e6bf6",
          "display": "Meaghan Neary"
        },
        "effectiveDateTime": "2015-11-23T22:11:04Z",
        "specimen": {
          "reference": "urn:uuid:4827fe37-a19f-4c6c-b5b8-dbf9b25a62a7"
        }
      }
    },
    {
      "fullUrl": "urn:uuid:97ef7aec-0563-4761-bddf-4d4b7b5d69d6",
      "resource": {
        "resourceType": "Observation",
        "id": "97ef7aec-0563-4761-bddf-4d4b7b5d69d6",
        "meta": {
          "profile": [
            "http://hl7.eu/fhir/laboratory/StructureDefinition/Observation-resultslab-eu-lab"
          ]
        },
        "performer": [
          {
            "display": "The Central European Lab"
          }
        ],
        "category": [
          {
            "coding": [
              {
                "system": "http://terminology.hl7.org/CodeSystem/observation-category",
                "code": "laboratory"
              }
            ]
          }
        ],
        "code": {
          "coding": [
            {
              "code": "5811-5",
              "system": "http://loinc.org",
              "display": "Specific gravity of Urine by Test strip"
            }
          ],
          "text": "Specific gravity of Urine by Test strip"
        },
        "valueQuantity": {
          "system": "http://unitsofmeasure.org",
          "value": 1,
          "unit": "{nominal}",
          "code": "{nominal}"
        },
        "referenceRange": [
          {
            "low": {
              "value": 1.005,
              "code": "g/mL",
              "system": "http://unitsofmeasure.org"
            }
          },
          {
            "high": {
              "value": 1.03,
              "code": "g/mL",
              "system": "http://unitsofmeasure.org"
            }
          }
        ],
        "interpretation": [
          {
            "coding": [
              {
                "code": "L",
                "system": "http://terminology.hl7.org/CodeSystem/v3-ObservationInterpretation",
                "display": "Low"
              }
            ]
          }
        ],
        "text": {
          "status": "generated",
          "div": "<div xmlns=\"http://www.w3.org/1999/xhtml\"><table class=\"hl7__eu__lab__report\"><tr><th>Test</th><th>23-Nov-2015</th><th>Reference&#xA0;Range</th><th>Unit</th></tr><tr><td>Specific gravity of Urine by Test strip</td><td>1.0</td><td>1.005 - 1.03</td><td>L</td><td>{nominal}</td></tr></table></div>"
        },
        "status": "final",
        "subject": {
          "reference": "urn:uuid:f3d27e26-2b0c-4a06-ad01-f69a292e6bf6",
          "display": "Meaghan Neary"
        },
        "effectiveDateTime": "2015-11-23T22:11:04Z",
        "specimen": {
          "reference": "urn:uuid:4827fe37-a19f-4c6c-b5b8-dbf9b25a62a7"
        }
      }
    },
    {
      "fullUrl": "urn:uuid:50f7a43e-d335-4f7e-bfd1-92b05540c2b5",
      "resource": {
        "resourceType": "Observation",
        "id": "50f7a43e-d335-4f7e-bfd1-92b05540c2b5",
        "meta": {
          "profile": [
            "http://hl7.eu/fhir/laboratory/StructureDefinition/Observation-resultslab-eu-lab"
          ]
        },
        "performer": [
          {
            "display": "The Central European Lab"
          }
        ],
        "category": [
          {
            "coding": [
              {
                "system": "http://terminology.hl7.org/CodeSystem/observation-category",
                "code": "laboratory"
              }
            ]
          }
        ],
        "code": {
          "coding": [
            {
              "code": "5803-2",
              "system": "http://loinc.org",
              "display": "pH of Urine by Test strip"
            }
          ],
          "text": "pH of Urine by Test strip"
        },
        "valueQuantity": {
          "system": "http://unitsofmeasure.org",
          "value": 6.3,
          "unit": "pH",
          "code": "pH"
        },
        "referenceRange": [
          {
            "low": {
              "value": 4.6,
              "code": "pH",
              "system": "http://unitsofmeasure.org"
            }
          },
          {
            "high": {
              "value": 7,
              "code": "pH",
              "system": "http://unitsofmeasure.org"
            }
          }
        ],
        "text": {
          "status": "generated",
          "div": "<div xmlns=\"http://www.w3.org/1999/xhtml\"><table class=\"hl7__eu__lab__report\"><tr><th>Test</th><th>23-Nov-2015</th><th>Reference&#xA0;Range</th><th>Unit</th></tr><tr><td>pH of Urine by Test strip</td><td>6.3</td><td>4.6 - 7</td><td></td><td>pH</td></tr></table></div>"
        },
        "status": "final",
        "subject": {
          "reference": "urn:uuid:f3d27e26-2b0c-4a06-ad01-f69a292e6bf6",
          "display": "Meaghan Neary"
        },
        "effectiveDateTime": "2015-11-23T22:11:04Z",
        "specimen": {
          "reference": "urn:uuid:4827fe37-a19f-4c6c-b5b8-dbf9b25a62a7"
        }
      }
    },
    {
      "fullUrl": "urn:uuid:e90b8400-5ab8-449a-bcb5-95789fb71023",
      "resource": {
        "resourceType": "Observation",
        "id": "e90b8400-5ab8-449a-bcb5-95789fb71023",
        "meta": {
          "profile": [
            "http://hl7.eu/fhir/laboratory/StructureDefinition/Observation-resultslab-eu-lab"
          ]
        },
        "performer": [
          {
            "display": "The Central European Lab"
          }
        ],
        "category": [
          {
            "coding": [
              {
                "system": "http://terminology.hl7.org/CodeSystem/observation-category",
                "code": "laboratory"
              }
            ]
          }
        ],
        "code": {
          "coding": [
            {
              "code": "5804-0",
              "system": "http://loinc.org",
              "display": "Protein [Mass/volume] in Urine by Test strip"
            }
          ],
          "text": "Protein [Mass/volume] in Urine by Test strip"
        },
        "valueQuantity": {
          "system": "http://unitsofmeasure.org",
          "value": 311.3,
          "unit": "mg/dL",
          "code": "mg/dL"
        },
        "referenceRange": [
          {
            "low": {
              "value": 0,
              "code": "mg/dL",
              "system": "http://unitsofmeasure.org"
            }
          },
          {
            "high": {
              "value": 14,
              "code": "mg/dL",
              "system": "http://unitsofmeasure.org"
            }
          }
        ],
        "interpretation": [
          {
            "coding": [
              {
                "code": "H",
                "system": "http://terminology.hl7.org/CodeSystem/v3-ObservationInterpretation",
                "display": "High"
              }
            ]
          }
        ],
        "text": {
          "status": "generated",
          "div": "<div xmlns=\"http://www.w3.org/1999/xhtml\"><table class=\"hl7__eu__lab__report\"><tr><th>Test</th><th>23-Nov-2015</th><th>Reference&#xA0;Range</th><th>Unit</th></tr><tr><td>Protein [Mass/volume] in Urine by Test strip</td><td>311.3</td><td>0 - 14</td><td>H</td><td>mg/dL</td></tr></table></div>"
        },
        "status": "final",
        "subject": {
          "reference": "urn:uuid:f3d27e26-2b0c-4a06-ad01-f69a292e6bf6",
          "display": "Meaghan Neary"
        },
        "effectiveDateTime": "2015-11-23T22:11:04Z",
        "specimen": {
          "reference": "urn:uuid:4827fe37-a19f-4c6c-b5b8-dbf9b25a62a7"
        }
      }
    },
    {
      "fullUrl": "urn:uuid:2092e367-368b-4c13-bc19-33218103a5d8",
      "resource": {
        "resourceType": "Observation",
        "id": "2092e367-368b-4c13-bc19-33218103a5d8",
        "meta": {
          "profile": [
            "http://hl7.eu/fhir/laboratory/StructureDefinition/Observation-resultslab-eu-lab"
          ]
        },
        "performer": [
          {
            "display": "The Central European Lab"
          }
        ],
        "category": [
          {
            "coding": [
              {
                "system": "http://terminology.hl7.org/CodeSystem/observation-category",
                "code": "laboratory"
              }
            ]
          }
        ],
        "code": {
          "coding": [
            {
              "code": "20454-5",
              "system": "http://loinc.org",
              "display": "Protein [Presence] in Urine by Test strip"
            }
          ],
          "text": "Protein [Presence] in Urine by Test strip"
        },
        "text": {
          "status": "generated",
          "div": "<div xmlns=\"http://www.w3.org/1999/xhtml\"><table class=\"hl7__eu__lab__report\"><tr><th>Test</th><th>23-Nov-2015</th><th>Reference&#xA0;Range</th><th>Unit</th></tr><tr><td>Protein [Presence] in Urine by Test strip</td></tr></table></div>"
        },
        "status": "final",
        "subject": {
          "reference": "urn:uuid:f3d27e26-2b0c-4a06-ad01-f69a292e6bf6",
          "display": "Meaghan Neary"
        },
        "effectiveDateTime": "2015-11-23T22:11:04Z",
        "specimen": {
          "reference": "urn:uuid:4827fe37-a19f-4c6c-b5b8-dbf9b25a62a7"
        }
      }
    },
    {
      "fullUrl": "urn:uuid:e525d65c-3f44-4963-aaba-88eacd22fc07",
      "resource": {
        "resourceType": "Observation",
        "id": "e525d65c-3f44-4963-aaba-88eacd22fc07",
        "meta": {
          "profile": [
            "http://hl7.eu/fhir/laboratory/StructureDefinition/Observation-resultslab-eu-lab"
          ]
        },
        "performer": [
          {
            "display": "The Central European Lab"
          }
        ],
        "category": [
          {
            "coding": [
              {
                "system": "http://terminology.hl7.org/CodeSystem/observation-category",
                "code": "laboratory"
              }
            ]
          }
        ],
        "code": {
          "coding": [
            {
              "code": "5802-4",
              "system": "http://loinc.org",
              "display": "Nitrite [Presence] in Urine by Test strip"
            }
          ],
          "text": "Nitrite [Presence] in Urine by Test strip"
        },
        "text": {
          "status": "generated",
          "div": "<div xmlns=\"http://www.w3.org/1999/xhtml\"><table class=\"hl7__eu__lab__report\"><tr><th>Test</th><th>23-Nov-2015</th><th>Reference&#xA0;Range</th><th>Unit</th></tr><tr><td>Nitrite [Presence] in Urine by Test strip</td></tr></table></div>"
        },
        "status": "final",
        "subject": {
          "reference": "urn:uuid:f3d27e26-2b0c-4a06-ad01-f69a292e6bf6",
          "display": "Meaghan Neary"
        },
        "effectiveDateTime": "2015-11-23T22:11:04Z",
        "specimen": {
          "reference": "urn:uuid:4827fe37-a19f-4c6c-b5b8-dbf9b25a62a7"
        }
      }
    },
    {
      "fullUrl": "urn:uuid:c257a8c1-383a-4fd3-b59c-d1adbb2ed9e0",
      "resource": {
        "resourceType": "Observation",
        "id": "c257a8c1-383a-4fd3-b59c-d1adbb2ed9e0",
        "meta": {
          "profile": [
            "http://hl7.eu/fhir/laboratory/StructureDefinition/Observation-resultslab-eu-lab"
          ]
        },
        "performer": [
          {
            "display": "The Central European Lab"
          }
        ],
        "category": [
          {
            "coding": [
              {
                "system": "http://terminology.hl7.org/CodeSystem/observation-category",
                "code": "laboratory"
              }
            ]
          }
        ],
        "code": {
          "coding": [
            {
              "code": "5794-3",
              "system": "http://loinc.org",
              "display": "Hemoglobin [Presence] in Urine by Test strip"
            }
          ],
          "text": "Hemoglobin [Presence] in Urine by Test strip"
        },
        "text": {
          "status": "generated",
          "div": "<div xmlns=\"http://www.w3.org/1999/xhtml\"><table class=\"hl7__eu__lab__report\"><tr><th>Test</th><th>23-Nov-2015</th><th>Reference&#xA0;Range</th><th>Unit</th></tr><tr><td>Hemoglobin [Presence] in Urine by Test strip</td></tr></table></div>"
        },
        "status": "final",
        "subject": {
          "reference": "urn:uuid:f3d27e26-2b0c-4a06-ad01-f69a292e6bf6",
          "display": "Meaghan Neary"
        },
        "effectiveDateTime": "2015-11-23T22:11:04Z",
        "specimen": {
          "reference": "urn:uuid:4827fe37-a19f-4c6c-b5b8-dbf9b25a62a7"
        }
      }
    },
    {
      "fullUrl": "urn:uuid:8b12f357-d275-4d7d-887e-773b9add626d",
      "resource": {
        "resourceType": "Observation",
        "id": "8b12f357-d275-4d7d-887e-773b9add626d",
        "meta": {
          "profile": [
            "http://hl7.eu/fhir/laboratory/StructureDefinition/Observation-resultslab-eu-lab"
          ]
        },
        "performer": [
          {
            "display": "The Central European Lab"
          }
        ],
        "category": [
          {
            "coding": [
              {
                "system": "http://terminology.hl7.org/CodeSystem/observation-category",
                "code": "laboratory"
              }
            ]
          }
        ],
        "code": {
          "coding": [
            {
              "code": "5799-2",
              "system": "http://loinc.org",
              "display": "Leukocyte esterase [Presence] in Urine by Test strip"
            }
          ],
          "text": "Leukocyte esterase [Presence] in Urine by Test strip"
        },
        "text": {
          "status": "generated",
          "div": "<div xmlns=\"http://www.w3.org/1999/xhtml\"><table class=\"hl7__eu__lab__report\"><tr><th>Test</th><th>23-Nov-2015</th><th>Reference&#xA0;Range</th><th>Unit</th></tr><tr><td>Leukocyte esterase [Presence] in Urine by Test strip</td></tr></table></div>"
        },
        "status": "final",
        "subject": {
          "reference": "urn:uuid:f3d27e26-2b0c-4a06-ad01-f69a292e6bf6",
          "display": "Meaghan Neary"
        },
        "effectiveDateTime": "2015-11-23T22:11:04Z",
        "specimen": {
          "reference": "urn:uuid:4827fe37-a19f-4c6c-b5b8-dbf9b25a62a7"
        }
      }
    },
    {
      "fullUrl": "urn:uuid:d3772275-ded2-4559-ba00-0b1912cee024",
      "resource": {
        "resourceType": "Observation",
        "id": "d3772275-ded2-4559-ba00-0b1912cee024",
        "meta": {
          "profile": [
            "http://hl7.eu/fhir/laboratory/StructureDefinition/Observation-resultslab-eu-lab"
          ]
        },
        "performer": [
          {
            "display": "The Central European Lab"
          }
        ],
        "category": [
          {
            "coding": [
              {
                "system": "http://terminology.hl7.org/CodeSystem/observation-category",
                "code": "laboratory"
              }
            ]
          }
        ],
        "code": {
          "coding": [
            {
              "code": "4548-4",
              "system": "http://loinc.org",
              "display": "Hemoglobin A1c/Hemoglobin.total in Blood"
            }
          ],
          "text": "Hemoglobin A1c/Hemoglobin.total in Blood"
        },
        "valueQuantity": {
          "system": "http://unitsofmeasure.org",
          "value": 3.2,
          "unit": "%",
          "code": "%"
        },
        "referenceRange": [
          {
            "low": {
              "value": 4,
              "code": "%",
              "system": "http://unitsofmeasure.org"
            }
          },
          {
            "high": {
              "value": 6.4,
              "code": "%",
              "system": "http://unitsofmeasure.org"
            }
          }
        ],
        "interpretation": [
          {
            "coding": [
              {
                "code": "L",
                "system": "http://terminology.hl7.org/CodeSystem/v3-ObservationInterpretation",
                "display": "Low"
              }
            ]
          }
        ],
        "text": {
          "status": "generated",
          "div": "<div xmlns=\"http://www.w3.org/1999/xhtml\"><table class=\"hl7__eu__lab__report\"><tr><th>Test</th><th>23-Nov-2015</th><th>Reference&#xA0;Range</th><th>Unit</th></tr><tr><td>Hemoglobin A1c/Hemoglobin.total in Blood</td><td>3.2</td><td>4 - 6.4</td><td>L</td><td>%</td></tr></table></div>"
        },
        "status": "final",
        "subject": {
          "reference": "urn:uuid:f3d27e26-2b0c-4a06-ad01-f69a292e6bf6",
          "display": "Meaghan Neary"
        },
        "effectiveDateTime": "2015-11-23T22:11:04Z",
        "specimen": {
          "reference": "urn:uuid:7b439edc-7946-473a-9c84-eb911336e6d4"
        }
      }
    },
    {
      "fullUrl": "urn:uuid:a1552572-f272-4375-93ff-2a24a621e34f",
      "resource": {
        "resourceType": "Observation",
        "id": "a1552572-f272-4375-93ff-2a24a621e34f",
        "meta": {
          "profile": [
            "http://hl7.eu/fhir/laboratory/StructureDefinition/Observation-resultslab-eu-lab"
          ]
        },
        "performer": [
          {
            "display": "The Central European Lab"
          }
        ],
        "category": [
          {
            "coding": [
              {
                "system": "http://terminology.hl7.org/CodeSystem/observation-category",
                "code": "laboratory"
              }
            ]
          }
        ],
        "code": {
          "coding": [
            {
              "code": "2339-0",
              "system": "http://loinc.org",
              "display": "Glucose [Mass/volume] in Blood"
            }
          ],
          "text": "Glucose [Mass/volume] in Blood"
        },
        "valueQuantity": {
          "system": "http://unitsofmeasure.org",
          "value": 80,
          "unit": "mg/dL",
          "code": "mg/dL"
        },
        "referenceRange": [
          {
            "low": {
              "value": 70,
              "code": "mg/dL",
              "system": "http://unitsofmeasure.org"
            }
          },
          {
            "high": {
              "value": 100,
              "code": "mg/dL",
              "system": "http://unitsofmeasure.org"
            }
          }
        ],
        "text": {
          "status": "generated",
          "div": "<div xmlns=\"http://www.w3.org/1999/xhtml\"><table class=\"hl7__eu__lab__report\"><tr><th>Test</th><th>23-Nov-2015</th><th>Reference&#xA0;Range</th><th>Unit</th></tr><tr><td>Glucose [Mass/volume] in Blood</td><td>80.0</td><td>70 - 100</td><td></td><td>mg/dL</td></tr></table></div>"
        },
        "status": "final",
        "subject": {
          "reference": "urn:uuid:f3d27e26-2b0c-4a06-ad01-f69a292e6bf6",
          "display": "Meaghan Neary"
        },
        "effectiveDateTime": "2015-11-23T22:11:04Z",
        "specimen": {
          "reference": "urn:uuid:7b439edc-7946-473a-9c84-eb911336e6d4"
        }
      }
    },
    {
      "fullUrl": "urn:uuid:d3e9aeda-235d-411c-a457-1a839d47a6d1",
      "resource": {
        "resourceType": "Observation",
        "id": "d3e9aeda-235d-411c-a457-1a839d47a6d1",
        "meta": {
          "profile": [
            "http://hl7.eu/fhir/laboratory/StructureDefinition/Observation-resultslab-eu-lab"
          ]
        },
        "performer": [
          {
            "display": "The Central European Lab"
          }
        ],
        "category": [
          {
            "coding": [
              {
                "system": "http://terminology.hl7.org/CodeSystem/observation-category",
                "code": "laboratory"
              }
            ]
          }
        ],
        "code": {
          "coding": [
            {
              "code": "6299-2",
              "system": "http://loinc.org",
              "display": "Urea nitrogen [Mass/volume] in Blood"
            }
          ],
          "text": "Urea nitrogen [Mass/volume] in Blood"
        },
        "valueQuantity": {
          "system": "http://unitsofmeasure.org",
          "value": 8.4,
          "unit": "mg/dL",
          "code": "mg/dL"
        },
        "referenceRange": [
          {
            "low": {
              "value": 7,
              "code": "mg/dL",
              "system": "http://unitsofmeasure.org"
            }
          },
          {
            "high": {
              "value": 43,
              "code": "mg/dL",
              "system": "http://unitsofmeasure.org"
            }
          }
        ],
        "text": {
          "status": "generated",
          "div": "<div xmlns=\"http://www.w3.org/1999/xhtml\"><table class=\"hl7__eu__lab__report\"><tr><th>Test</th><th>23-Nov-2015</th><th>Reference&#xA0;Range</th><th>Unit</th></tr><tr><td>Urea nitrogen [Mass/volume] in Blood</td><td>8.4</td><td>7 - 43</td><td></td><td>mg/dL</td></tr></table></div>"
        },
        "status": "final",
        "subject": {
          "reference": "urn:uuid:f3d27e26-2b0c-4a06-ad01-f69a292e6bf6",
          "display": "Meaghan Neary"
        },
        "effectiveDateTime": "2015-11-23T22:11:04Z",
        "specimen": {
          "reference": "urn:uuid:7b439edc-7946-473a-9c84-eb911336e6d4"
        }
      }
    },
    {
      "fullUrl": "urn:uuid:db1e31e5-2dab-4674-86e9-4cd268d4c6bd",
      "resource": {
        "resourceType": "Observation",
        "id": "db1e31e5-2dab-4674-86e9-4cd268d4c6bd",
        "meta": {
          "profile": [
            "http://hl7.eu/fhir/laboratory/StructureDefinition/Observation-resultslab-eu-lab"
          ]
        },
        "performer": [
          {
            "display": "The Central European Lab"
          }
        ],
        "category": [
          {
            "coding": [
              {
                "system": "http://terminology.hl7.org/CodeSystem/observation-category",
                "code": "laboratory"
              }
            ]
          }
        ],
        "code": {
          "coding": [
            {
              "code": "38483-4",
              "system": "http://loinc.org",
              "display": "Creatinine [Mass/volume] in Blood"
            }
          ],
          "text": "Creatinine [Mass/volume] in Blood"
        },
        "valueQuantity": {
          "system": "http://unitsofmeasure.org",
          "value": 2.4,
          "unit": "mg/dL",
          "code": "mg/dL"
        },
        "referenceRange": [
          {
            "low": {
              "value": 0.6,
              "code": "mg/dL",
              "system": "http://unitsofmeasure.org"
            }
          },
          {
            "high": {
              "value": 1.1,
              "code": "mg/dL",
              "system": "http://unitsofmeasure.org"
            }
          }
        ],
        "interpretation": [
          {
            "coding": [
              {
                "code": "H",
                "system": "http://terminology.hl7.org/CodeSystem/v3-ObservationInterpretation",
                "display": "High"
              }
            ]
          }
        ],
        "text": {
          "status": "generated",
          "div": "<div xmlns=\"http://www.w3.org/1999/xhtml\"><table class=\"hl7__eu__lab__report\"><tr><th>Test</th><th>23-Nov-2015</th><th>Reference&#xA0;Range</th><th>Unit</th></tr><tr><td>Creatinine [Mass/volume] in Blood</td><td>2.4</td><td>0.6 - 1.1</td><td>H</td><td>mg/dL</td></tr></table></div>"
        },
        "status": "final",
        "subject": {
          "reference": "urn:uuid:f3d27e26-2b0c-4a06-ad01-f69a292e6bf6",
          "display": "Meaghan Neary"
        },
        "effectiveDateTime": "2015-11-23T22:11:04Z",
        "specimen": {
          "reference": "urn:uuid:7b439edc-7946-473a-9c84-eb911336e6d4"
        }
      }
    },
    {
      "fullUrl": "urn:uuid:00ca6004-05e8-4e0b-8c79-7b7922e8ac51",
      "resource": {
        "resourceType": "Observation",
        "id": "00ca6004-05e8-4e0b-8c79-7b7922e8ac51",
        "meta": {
          "profile": [
            "http://hl7.eu/fhir/laboratory/StructureDefinition/Observation-resultslab-eu-lab"
          ]
        },
        "performer": [
          {
            "display": "The Central European Lab"
          }
        ],
        "category": [
          {
            "coding": [
              {
                "system": "http://terminology.hl7.org/CodeSystem/observation-category",
                "code": "laboratory"
              }
            ]
          }
        ],
        "code": {
          "coding": [
            {
              "code": "49765-1",
              "system": "http://loinc.org",
              "display": "Calcium [Mass/volume] in Blood"
            }
          ],
          "text": "Calcium [Mass/volume] in Blood"
        },
        "valueQuantity": {
          "system": "http://unitsofmeasure.org",
          "value": 8.8,
          "unit": "mg/dL",
          "code": "mg/dL"
        },
        "referenceRange": [
          {
            "low": {
              "value": 8.5,
              "code": "mg/dL",
              "system": "http://unitsofmeasure.org"
            }
          },
          {
            "high": {
              "value": 10.5,
              "code": "mg/dL",
              "system": "http://unitsofmeasure.org"
            }
          }
        ],
        "text": {
          "status": "generated",
          "div": "<div xmlns=\"http://www.w3.org/1999/xhtml\"><table class=\"hl7__eu__lab__report\"><tr><th>Test</th><th>23-Nov-2015</th><th>Reference&#xA0;Range</th><th>Unit</th></tr><tr><td>Calcium [Mass/volume] in Blood</td><td>8.8</td><td>8.5 - 10.5</td><td></td><td>mg/dL</td></tr></table></div>"
        },
        "status": "final",
        "subject": {
          "reference": "urn:uuid:f3d27e26-2b0c-4a06-ad01-f69a292e6bf6",
          "display": "Meaghan Neary"
        },
        "effectiveDateTime": "2015-11-23T22:11:04Z",
        "specimen": {
          "reference": "urn:uuid:7b439edc-7946-473a-9c84-eb911336e6d4"
        }
      }
    },
    {
      "fullUrl": "urn:uuid:00fef770-7b99-45de-bd26-e1fd3845ad48",
      "resource": {
        "resourceType": "Observation",
        "id": "00fef770-7b99-45de-bd26-e1fd3845ad48",
        "meta": {
          "profile": [
            "http://hl7.eu/fhir/laboratory/StructureDefinition/Observation-resultslab-eu-lab"
          ]
        },
        "performer": [
          {
            "display": "The Central European Lab"
          }
        ],
        "category": [
          {
            "coding": [
              {
                "system": "http://terminology.hl7.org/CodeSystem/observation-category",
                "code": "laboratory"
              }
            ]
          }
        ],
        "code": {
          "coding": [
            {
              "code": "2947-0",
              "system": "http://loinc.org",
              "display": "Sodium [Moles/volume] in Blood"
            }
          ],
          "text": "Sodium [Moles/volume] in Blood"
        },
        "valueQuantity": {
          "system": "http://unitsofmeasure.org",
          "value": 141.7,
          "unit": "mmol/L",
          "code": "mmol/L"
        },
        "referenceRange": [
          {
            "low": {
              "value": 135,
              "code": "mmol/L",
              "system": "http://unitsofmeasure.org"
            }
          },
          {
            "high": {
              "value": 145,
              "code": "mmol/L",
              "system": "http://unitsofmeasure.org"
            }
          }
        ],
        "text": {
          "status": "generated",
          "div": "<div xmlns=\"http://www.w3.org/1999/xhtml\"><table class=\"hl7__eu__lab__report\"><tr><th>Test</th><th>23-Nov-2015</th><th>Reference&#xA0;Range</th><th>Unit</th></tr><tr><td>Sodium [Moles/volume] in Blood</td><td>141.7</td><td>135 - 145</td><td></td><td>mmol/L</td></tr></table></div>"
        },
        "status": "final",
        "subject": {
          "reference": "urn:uuid:f3d27e26-2b0c-4a06-ad01-f69a292e6bf6",
          "display": "Meaghan Neary"
        },
        "effectiveDateTime": "2015-11-23T22:11:04Z",
        "specimen": {
          "reference": "urn:uuid:7b439edc-7946-473a-9c84-eb911336e6d4"
        }
      }
    },
    {
      "fullUrl": "urn:uuid:b23af853-544e-4f2b-9542-d0ef69a08054",
      "resource": {
        "resourceType": "Observation",
        "id": "b23af853-544e-4f2b-9542-d0ef69a08054",
        "meta": {
          "profile": [
            "http://hl7.eu/fhir/laboratory/StructureDefinition/Observation-resultslab-eu-lab"
          ]
        },
        "performer": [
          {
            "display": "The Central European Lab"
          }
        ],
        "category": [
          {
            "coding": [
              {
                "system": "http://terminology.hl7.org/CodeSystem/observation-category",
                "code": "laboratory"
              }
            ]
          }
        ],
        "code": {
          "coding": [
            {
              "code": "6298-4",
              "system": "http://loinc.org",
              "display": "Potassium [Moles/volume] in Blood"
            }
          ],
          "text": "Potassium [Moles/volume] in Blood"
        },
        "valueQuantity": {
          "system": "http://unitsofmeasure.org",
          "value": 4,
          "unit": "mmol/L",
          "code": "mmol/L"
        },
        "referenceRange": [
          {
            "low": {
              "value": 3.5,
              "code": "mmol/L",
              "system": "http://unitsofmeasure.org"
            }
          },
          {
            "high": {
              "value": 5.1,
              "code": "mmol/L",
              "system": "http://unitsofmeasure.org"
            }
          }
        ],
        "text": {
          "status": "generated",
          "div": "<div xmlns=\"http://www.w3.org/1999/xhtml\"><table class=\"hl7__eu__lab__report\"><tr><th>Test</th><th>23-Nov-2015</th><th>Reference&#xA0;Range</th><th>Unit</th></tr><tr><td>Potassium [Moles/volume] in Blood</td><td>4.0</td><td>3.5 - 5.1</td><td></td><td>mmol/L</td></tr></table></div>"
        },
        "status": "final",
        "subject": {
          "reference": "urn:uuid:f3d27e26-2b0c-4a06-ad01-f69a292e6bf6",
          "display": "Meaghan Neary"
        },
        "effectiveDateTime": "2015-11-23T22:11:04Z",
        "specimen": {
          "reference": "urn:uuid:7b439edc-7946-473a-9c84-eb911336e6d4"
        }
      }
    },
    {
      "fullUrl": "urn:uuid:e040dbff-b676-4e7a-9fc1-d51a8dad9d2f",
      "resource": {
        "resourceType": "Observation",
        "id": "e040dbff-b676-4e7a-9fc1-d51a8dad9d2f",
        "meta": {
          "profile": [
            "http://hl7.eu/fhir/laboratory/StructureDefinition/Observation-resultslab-eu-lab"
          ]
        },
        "performer": [
          {
            "display": "The Central European Lab"
          }
        ],
        "category": [
          {
            "coding": [
              {
                "system": "http://terminology.hl7.org/CodeSystem/observation-category",
                "code": "laboratory"
              }
            ]
          }
        ],
        "code": {
          "coding": [
            {
              "code": "2069-3",
              "system": "http://loinc.org",
              "display": "Chloride [Moles/volume] in Blood"
            }
          ],
          "text": "Chloride [Moles/volume] in Blood"
        },
        "valueQuantity": {
          "system": "http://unitsofmeasure.org",
          "value": 106.6,
          "unit": "mmol/L",
          "code": "mmol/L"
        },
        "referenceRange": [
          {
            "low": {
              "value": 98,
              "code": "mmol/L",
              "system": "http://unitsofmeasure.org"
            }
          },
          {
            "high": {
              "value": 108,
              "code": "mmol/L",
              "system": "http://unitsofmeasure.org"
            }
          }
        ],
        "text": {
          "status": "generated",
          "div": "<div xmlns=\"http://www.w3.org/1999/xhtml\"><table class=\"hl7__eu__lab__report\"><tr><th>Test</th><th>23-Nov-2015</th><th>Reference&#xA0;Range</th><th>Unit</th></tr><tr><td>Chloride [Moles/volume] in Blood</td><td>106.6</td><td>98 - 108</td><td></td><td>mmol/L</td></tr></table></div>"
        },
        "status": "final",
        "subject": {
          "reference": "urn:uuid:f3d27e26-2b0c-4a06-ad01-f69a292e6bf6",
          "display": "Meaghan Neary"
        },
        "effectiveDateTime": "2015-11-23T22:11:04Z",
        "specimen": {
          "reference": "urn:uuid:7b439edc-7946-473a-9c84-eb911336e6d4"
        }
      }
    },
    {
      "fullUrl": "urn:uuid:3e83276d-f84b-47fb-be3c-437ba2e1cb4a",
      "resource": {
        "resourceType": "Observation",
        "id": "3e83276d-f84b-47fb-be3c-437ba2e1cb4a",
        "meta": {
          "profile": [
            "http://hl7.eu/fhir/laboratory/StructureDefinition/Observation-resultslab-eu-lab"
          ]
        },
        "performer": [
          {
            "display": "The Central European Lab"
          }
        ],
        "category": [
          {
            "coding": [
              {
                "system": "http://terminology.hl7.org/CodeSystem/observation-category",
                "code": "laboratory"
              }
            ]
          }
        ],
        "code": {
          "coding": [
            {
              "code": "20565-8",
              "system": "http://loinc.org",
              "display": "Carbon dioxide, total [Moles/volume] in Blood"
            }
          ],
          "text": "Carbon dioxide, total [Moles/volume] in Blood"
        },
        "valueQuantity": {
          "system": "http://unitsofmeasure.org",
          "value": 25.3,
          "unit": "mmol/L",
          "code": "mmol/L"
        },
        "referenceRange": [
          {
            "low": {
              "value": 22,
              "code": "mmol/L",
              "system": "http://unitsofmeasure.org"
            }
          },
          {
            "high": {
              "value": 29,
              "code": "mmol/L",
              "system": "http://unitsofmeasure.org"
            }
          }
        ],
        "text": {
          "status": "generated",
          "div": "<div xmlns=\"http://www.w3.org/1999/xhtml\"><table class=\"hl7__eu__lab__report\"><tr><th>Test</th><th>23-Nov-2015</th><th>Reference&#xA0;Range</th><th>Unit</th></tr><tr><td>Carbon dioxide, total [Moles/volume] in Blood</td><td>25.3</td><td>22 - 29</td><td></td><td>mmol/L</td></tr></table></div>"
        },
        "status": "final",
        "subject": {
          "reference": "urn:uuid:f3d27e26-2b0c-4a06-ad01-f69a292e6bf6",
          "display": "Meaghan Neary"
        },
        "effectiveDateTime": "2015-11-23T22:11:04Z",
        "specimen": {
          "reference": "urn:uuid:7b439edc-7946-473a-9c84-eb911336e6d4"
        }
      }
    },
    {
      "fullUrl": "urn:uuid:49865168-831b-4f18-b71b-623ae1fcf42a",
      "resource": {
        "resourceType": "Device",
        "id": "49865168-831b-4f18-b71b-623ae1fcf42a",
        "deviceName": [
          {
            "name": "SYNDERAI Synthetic Generator",
            "type": "manufacturer-name"
          }
        ],
        "version": [
          {
            "value": "5.0"
          }
        ],
        "text": {
          "status": "generated",
          "div": "<div xmlns=\"http://www.w3.org/1999/xhtml\">SYNDERAI Synthetic Generator v5.0</div>"
        },
        "status": "active\"",
        "distinctIdentifier": "synderai-generator-50",
        "manufacturer": "SYNDERAI Project"
      }
    },
    {
      "fullUrl": "urn:uuid:776f68e0-8500-49a8-801d-ee8e6400d42e",
      "resource": {
        "resourceType": "Provenance",
        "id": "776f68e0-8500-49a8-801d-ee8e6400d42e",
        "target": [
          {
            "reference": "Patient/f3d27e26-2b0c-4a06-ad01-f69a292e6bf6"
          },
          {
            "reference": "Bundle/b9bc471c-1d37-49ad-91d2-bcb5bd737389"
          },
          {
            "reference": "Composition/d7cfe1ac-b1a0-4faa-99f9-3c8ad032891b"
          },
          {
            "reference": "PractitionerRole/1badaeac-e363-4cd1-b7e6-3b297f8ee3c9"
          },
          {
            "reference": "Practitioner/9ee0d8ed-7123-417e-937f-2806c49122ec"
          },
          {
            "reference": "PractitionerRole/05b3ca0f-0d2f-4d5f-a708-c4145539a617"
          },
          {
            "reference": "Organization/12829c68-fd34-4c05-b289-da0ff8cf49c3"
          }
        ],
        "activity": {
          "text": "Synthetic Example Data Generation"
        },
        "policy": [
          "https://synderai.net/synderai-synthetic-data-policy"
        ],
        "agent": [
          {
            "type": {
              "text": "author"
            },
            "who": {
              "reference": "Device/49865168-831b-4f18-b71b-623ae1fcf42a"
            }
          }
        ],
        "reason": [
          {
            "text": "Interoperability Testing and Training (non-clinical use)"
          }
        ],
        "text": {
          "status": "generated",
          "div": "<div xmlns=\"http://www.w3.org/1999/xhtml\">Provenance for SYNDERAI Synthetic Example Data Resource</div>"
        },
        "recorded": "2015-11-23T23:11:04Z"
      }
    },
    {
      "fullUrl": "urn:uuid:1badaeac-e363-4cd1-b7e6-3b297f8ee3c9",
      "resource": {
        "resourceType": "PractitionerRole",
        "id": "1badaeac-e363-4cd1-b7e6-3b297f8ee3c9",
        "meta": {
          "profile": [
            "http://hl7.eu/fhir/base/StructureDefinition/practitionerRole-eu"
          ]
        },
        "text": {
          "status": "generated",
          "div": "<div xmlns=\"http://www.w3.org/1999/xhtml\">Laboratory Role Id: 1badaeac-e363-4cd1-b7e6-3b297f8ee3c9</div>"
        },
        "practitioner": {
          "reference": "urn:uuid:9ee0d8ed-7123-417e-937f-2806c49122ec"
        }
      }
    },
    {
      "fullUrl": "urn:uuid:9ee0d8ed-7123-417e-937f-2806c49122ec",
      "resource": {
        "resourceType": "Practitioner",
        "id": "9ee0d8ed-7123-417e-937f-2806c49122ec",
        "meta": {
          "profile": [
            "http://hl7.eu/fhir/base/StructureDefinition/practitioner-eu"
          ]
        },
        "identifier": [
          {
            "assigner": {
              "display": "HL7 Europe"
            },
            "system": "urn:oid:2.16.840.1.113883.2.51.999",
            "value": "216c1673-b5e4-4404-b9a7-24bc0d73923a"
          }
        ],
        "name": [
          {
            "prefix": [
              "dr"
            ],
            "given": [
              "Ex"
            ],
            "family": "Ample"
          }
        ],
        "address": [
          {
            "line": [
              "Laboratoire Central Europenne",
              "Boulevard du Jardin Botanique 32"
            ],
            "postalCode": "1000",
            "city": "Brussels",
            "country": "Belgium"
          }
        ],
        "text": {
          "status": "generated",
          "div": "<div xmlns=\"http://www.w3.org/1999/xhtml\">Laboratory: Laboratoire Central Europenne, 1000 Brussels, Belgium</div>"
        }
      }
    }
  ],
  "type": "document",
  "timestamp": "2015-11-23T23:11:04Z"
}
