{
  "resourceType": "Bundle",
  "id": "04ffc63e-f5e6-407e-81d2-fe787dbfb0c3",
  "meta": {
    "profile": [
      "http://hl7.eu/fhir/laboratory/StructureDefinition/Bundle-eu-lab"
    ]
  },
  "identifier": {
    "assigner": {
      "display": "HL7 Europe"
    },
    "system": "urn:oid:2.16.840.1.113883.2.51.999",
    "value": "7994f971-1788-41f7-bac3-68344d593491"
  },
  "entry": [
    {
      "fullUrl": "urn:uuid:4271f948-1b73-4c16-8aa0-ad1384fb886f",
      "resource": {
        "resourceType": "Composition",
        "id": "4271f948-1b73-4c16-8aa0-ad1384fb886f",
        "meta": {
          "profile": [
            "http://hl7.eu/fhir/laboratory/StructureDefinition/Composition-eu-lab"
          ]
        },
        "identifier": {
          "assigner": {
            "display": "HL7 Europe"
          },
          "system": "urn:oid:2.16.840.1.113883.2.51.999",
          "value": "d407cd9e-bdc2-4b59-9b8a-5207c951438d"
        },
        "author": [
          {
            "reference": "urn:uuid:77433aa4-29e1-4bcf-8678-5d4340a88107"
          }
        ],
        "category": [
          {
            "coding": [
              {
                "code": "26436-6",
                "system": "http://loinc.org",
                "display": "Laboratory studies (set)"
              }
            ]
          }
        ],
        "type": {
          "coding": [
            {
              "code": "11502-2",
              "system": "http://loinc.org",
              "display": "Laboratory report"
            }
          ],
          "text": "Laboratory Report"
        },
        "section": [
          {
            "code": {
              "coding": [
                {
                  "code": "26436-6",
                  "system": "http://loinc.org",
                  "display": "Laboratory studies (set)"
                }
              ],
              "text": "Laboratory studies"
            },
            "section": [
              {
                "code": {
                  "coding": [
                    {
                      "code": "$18719-5",
                      "system": "http://loinc.org",
                      "display": "Chemistry studies (set)"
                    }
                  ],
                  "text": "Chemistry"
                },
                "entry": [
                  {
                    "reference": "urn:uuid:43de6a17-c4ae-46b6-8232-707896fe2f30"
                  },
                  {
                    "reference": "urn:uuid:70a62a98-2102-4cb2-bbf5-5ee861a83c35"
                  },
                  {
                    "reference": "urn:uuid:485706a6-2304-4847-b495-cf420b0ad2cf"
                  },
                  {
                    "reference": "urn:uuid:2d3075aa-3c4d-435c-b9cb-3fbc596c4944"
                  },
                  {
                    "reference": "urn:uuid:52c4079e-3b43-44f8-a5c7-5529f61dfd12"
                  },
                  {
                    "reference": "urn:uuid:0fda74e8-7b10-49ec-894d-6713333bc96e"
                  },
                  {
                    "reference": "urn:uuid:4bd4bd14-9e14-42a9-aebb-aafa3f274140"
                  },
                  {
                    "reference": "urn:uuid:639a21d1-3377-4063-88a3-7d7e93e2610b"
                  },
                  {
                    "reference": "urn:uuid:c1cdad53-fcd9-440b-88de-ff48b5c634b5"
                  },
                  {
                    "reference": "urn:uuid:bdf6d3e6-f2e2-46dd-99ca-7620beacb839"
                  },
                  {
                    "reference": "urn:uuid:eb7b388f-b3e5-4e10-9b26-d821bed59251"
                  },
                  {
                    "reference": "urn:uuid:4791d8f0-9b73-4d65-b67b-8ef04a6cf3d7"
                  },
                  {
                    "reference": "urn:uuid:cfb48c22-14e7-4f64-94b2-904175c1045c"
                  },
                  {
                    "reference": "urn:uuid:6d51eea2-f360-48df-bbeb-c324b21f20ac"
                  },
                  {
                    "reference": "urn:uuid:14931f45-c616-4804-a530-d951e1804b1f"
                  },
                  {
                    "reference": "urn:uuid:cf28d04b-3d70-40c7-90e7-55492893b2b0"
                  },
                  {
                    "reference": "urn:uuid:1a617bf9-dc4b-4588-8b17-eefe0efc396d"
                  },
                  {
                    "reference": "urn:uuid:da662a8c-e66c-42c8-817c-ce377ff6d0eb"
                  },
                  {
                    "reference": "urn:uuid:fd4a715f-8cce-49e5-b039-212dcdc39b60"
                  },
                  {
                    "reference": "urn:uuid:1adb6362-400a-4925-b00e-2c519d35c5b4"
                  },
                  {
                    "reference": "urn:uuid:8e8f615b-dd6d-4746-b71c-a049f77a81b2"
                  },
                  {
                    "reference": "urn:uuid:eb72b72b-6a9a-49f4-b0ed-9a353cfd34c4"
                  },
                  {
                    "reference": "urn:uuid:a94ec797-91f7-4350-b2b2-976672ec5d79"
                  },
                  {
                    "reference": "urn:uuid:9c0c0556-6f52-4504-ba7c-eada668cd33e"
                  },
                  {
                    "reference": "urn:uuid:b2532229-59e1-4aae-a2e2-adc98ea14769"
                  },
                  {
                    "reference": "urn:uuid:df5b8dde-10a0-44d0-8fbf-2937ef18bad7"
                  },
                  {
                    "reference": "urn:uuid:8161e694-60ed-4409-83ff-2f620d0e27ec"
                  },
                  {
                    "reference": "urn:uuid:6776f306-2863-47b0-bd3e-6748da32237a"
                  },
                  {
                    "reference": "urn:uuid:653fb204-5e5a-4960-b6b6-bb69ab47b264"
                  },
                  {
                    "reference": "urn:uuid:910278d4-414a-4600-a843-0515a4b4b820"
                  },
                  {
                    "reference": "urn:uuid:f6fe1f83-e20b-4f20-8db2-05fd9cdb8f20"
                  },
                  {
                    "reference": "urn:uuid:cf511e59-5583-4b2b-b9b6-9ecdb522c008"
                  },
                  {
                    "reference": "urn:uuid:7e394309-dc25-4256-9cf9-d80397ec22b0"
                  },
                  {
                    "reference": "urn:uuid:cf005185-1550-4b76-83ed-efd43139edbc"
                  },
                  {
                    "reference": "urn:uuid:165e2be1-f3bd-4e01-a26e-4f956ed88456"
                  },
                  {
                    "reference": "urn:uuid:af5b1d43-c9f6-4d41-9d01-04d1645608ce"
                  },
                  {
                    "reference": "urn:uuid:917c7f64-db01-4111-abe6-5e6a1e829bcb"
                  }
                ],
                "text": {
                  "status": "generated",
                  "div": "<div xmlns=\"http://www.w3.org/1999/xhtml\"><h3>Chemistry</h3><table class=\"hl7__eu__lab__report\"><thead><tr><th>Test</th><th>25-JUN-2024</th><th>Reference&#xA0;Range</th><th>Unit</th></tr></thead><tbody><tr><td>Glucose [Mass/volume] in Serum or Plasma</td><td>87.6</td><td>70 - 99</td><td>mg/dL</td></tr><tr><td>Urea nitrogen [Mass/volume] in Serum or Plasma</td><td>11.8</td><td>7 - 50</td><td>mg/dL</td></tr><tr><td>Creatinine [Mass/volume] in Serum or Plasma</td><td><strong>2.1 H</strong></td><td>0.6 - 1.1</td><td>mg/dL</td></tr><tr><td>Calcium [Mass/volume] in Serum or Plasma</td><td>9.1</td><td>8.6 - 10.4</td><td>mg/dL</td></tr><tr><td>Sodium [Moles/volume] in Serum or Plasma</td><td>140.5</td><td>135 - 145</td><td>mmol/L</td></tr><tr><td>Potassium [Moles/volume] in Serum or Plasma</td><td>3.9</td><td>3.5 - 5.1</td><td>mmol/L</td></tr><tr><td>Chloride [Moles/volume] in Serum or Plasma</td><td>101.1</td><td>98 - 108</td><td>mmol/L</td></tr><tr><td>Carbon dioxide, total [Moles/volume] in Serum or Plasma</td><td><strong>21.7 L</strong></td><td>22 - 32</td><td>mmol/L</td></tr><tr><td>Ketones [Presence] in Urine by Test strip</td><td>Urine ketone test = ++</td><td></td><td></td></tr><tr><td>Hemoglobin A1c/Hemoglobin.total in Blood</td><td>4.0</td><td>4 - 6.4</td><td>%</td></tr><tr><td>Cholesterol [Mass/volume] in Serum or Plasma</td><td><strong>258.5 H</strong></td><td>125 - 239</td><td>mg/dL</td></tr><tr><td>Triglyceride [Mass/volume] in Serum or Plasma</td><td>188.7</td><td></td><td>mg/dL</td></tr><tr><td>Cholesterol in LDL [Mass/volume] in Serum or Plasma by Direct assay</td><td>121.0</td><td>0 - 130</td><td>mg/dL</td></tr><tr><td>Cholesterol in HDL [Mass/volume] in Serum or Plasma</td><td><strong>35.1 L</strong></td><td>50 - 100</td><td>mg/dL</td></tr><tr><td>Glucose [Mass/volume] in Blood</td><td>87.6</td><td>70 - 100</td><td>mg/dL</td></tr><tr><td>Urea nitrogen [Mass/volume] in Blood</td><td>11.8</td><td>7 - 43</td><td>mg/dL</td></tr><tr><td>Creatinine [Mass/volume] in Blood</td><td><strong>2.7 H</strong></td><td>0.6 - 1.1</td><td>mg/dL</td></tr><tr><td>Calcium [Mass/volume] in Blood</td><td>9.1</td><td>8.5 - 10.5</td><td>mg/dL</td></tr><tr><td>Sodium [Moles/volume] in Blood</td><td>140.5</td><td>135 - 145</td><td>mmol/L</td></tr><tr><td>Potassium [Moles/volume] in Blood</td><td>3.9</td><td>3.5 - 5.1</td><td>mmol/L</td></tr><tr><td>Chloride [Moles/volume] in Blood</td><td>101.1</td><td>98 - 108</td><td>mmol/L</td></tr><tr><td>Carbon dioxide, total [Moles/volume] in Blood</td><td><strong>21.7 L</strong></td><td>22 - 29</td><td>mmol/L</td></tr><tr><td>Protein [Mass/volume] in Serum or Plasma</td><td>7.6</td><td>6 - 8.3</td><td>g/dL</td></tr><tr><td>Albumin [Mass/volume] in Serum or Plasma</td><td>5.4</td><td>3.5 - 5.5</td><td>g/dL</td></tr><tr><td>Globulin [Mass/volume] in Serum by calculation</td><td>3.2</td><td>2 - 3.5</td><td>g/L</td></tr><tr><td>Bilirubin.total [Mass/volume] in Serum or Plasma</td><td><strong>0.1 L</strong></td><td>0.3 - 1.2</td><td>mg/dL</td></tr><tr><td>Alkaline phosphatase [Enzymatic activity/volume] in Serum or Plasma</td><td>60.8</td><td>44 - 130</td><td>U/L</td></tr><tr><td>Alanine aminotransferase [Enzymatic activity/volume] in Serum or Plasma</td><td>33.1</td><td>0 - 55</td><td>U/L</td></tr><tr><td>Aspartate aminotransferase [Enzymatic activity/volume] in Serum or Plasma</td><td>14.7</td><td>10 - 40</td><td>U/L</td></tr><tr><td>Glucose [Mass/volume] in Blood</td><td>87.6</td><td>70 - 100</td><td>mg/dL</td></tr><tr><td>Urea nitrogen [Mass/volume] in Blood</td><td>11.8</td><td>7 - 43</td><td>mg/dL</td></tr><tr><td>Creatinine [Mass/volume] in Blood</td><td><strong>2.7 H</strong></td><td>0.6 - 1.1</td><td>mg/dL</td></tr><tr><td>Calcium [Mass/volume] in Blood</td><td>9.1</td><td>8.5 - 10.5</td><td>mg/dL</td></tr><tr><td>Sodium [Moles/volume] in Blood</td><td>140.5</td><td>135 - 145</td><td>mmol/L</td></tr><tr><td>Potassium [Moles/volume] in Blood</td><td>3.9</td><td>3.5 - 5.1</td><td>mmol/L</td></tr><tr><td>Chloride [Moles/volume] in Blood</td><td>101.1</td><td>98 - 108</td><td>mmol/L</td></tr><tr><td>Carbon dioxide, total [Moles/volume] in Blood</td><td><strong>21.7 L</strong></td><td>22 - 29</td><td>mmol/L</td></tr></tbody></table></div>"
                },
                "title": "Chemistry"
              },
              {
                "code": {
                  "coding": [
                    {
                      "code": "$18729-4",
                      "system": "http://loinc.org",
                      "display": "Urinalysis studies (set)"
                    }
                  ],
                  "text": "Urinalysis"
                },
                "entry": [
                  {
                    "reference": "urn:uuid:e0701559-784b-46b3-96e3-d4107e6aa63f"
                  },
                  {
                    "reference": "urn:uuid:691839ca-1711-4418-9c9d-43b1ba44241b"
                  },
                  {
                    "reference": "urn:uuid:894d05d9-e052-4d17-8c0f-b350a96a5ce2"
                  },
                  {
                    "reference": "urn:uuid:54d1c4ab-73f9-448d-834a-a2bdabeab063"
                  },
                  {
                    "reference": "urn:uuid:194c6ec3-5264-4fa4-a645-9cee80483d67"
                  },
                  {
                    "reference": "urn:uuid:70c38eb7-86a5-448d-ab9e-fd4c6fad4848"
                  },
                  {
                    "reference": "urn:uuid:910fc6d9-952b-4af1-8b1b-991d21f3c116"
                  },
                  {
                    "reference": "urn:uuid:a8b9648f-086a-438a-8db1-658f2b1abec6"
                  },
                  {
                    "reference": "urn:uuid:20a9b00f-72c9-498e-8fa1-6169ece57749"
                  },
                  {
                    "reference": "urn:uuid:77506480-fe1e-47c4-8f8a-9f01273cf9d5"
                  },
                  {
                    "reference": "urn:uuid:284ad45c-dfb4-4523-af56-855a5677f416"
                  },
                  {
                    "reference": "urn:uuid:3b38a55f-05b3-4b76-8df7-40996b2399fe"
                  }
                ],
                "text": {
                  "status": "generated",
                  "div": "<div xmlns=\"http://www.w3.org/1999/xhtml\"><h3>Urinalysis</h3><table class=\"hl7__eu__lab__report\"><thead><tr><th>Test</th><th>25-JUN-2024</th><th>Reference&#xA0;Range</th><th>Unit</th></tr></thead><tbody><tr><td>Glucose [Mass/volume] in Urine by Test strip</td><td><strong>0.8 H</strong></td><td>0.8 - 0</td><td>mg/dL</td></tr><tr><td>Glucose [Presence] in Urine by Test strip</td><td>++</td><td></td><td></td></tr><tr><td>Bilirubin.total [Mass/volume] in Urine by Test strip</td><td>0.7</td><td>0 - 1</td><td>mg/dL</td></tr><tr><td>Bilirubin.total [Presence] in Urine by Test strip</td><td>Finding of bilirubin in urine</td><td></td><td></td></tr><tr><td>Ketones [Mass/volume] in Urine by Test strip</td><td><strong>8.3 H</strong></td><td>0 - 4</td><td>mg/dL</td></tr><tr><td>Specific gravity of Urine by Test strip</td><td><strong>1.0 L</strong></td><td>1.005 - 1.03</td><td>{nominal}</td></tr><tr><td>pH of Urine by Test strip</td><td>5.4</td><td>4.6 - 7</td><td>pH</td></tr><tr><td>Protein [Mass/volume] in Urine by Test strip</td><td><strong>300.4 H</strong></td><td>0 - 14</td><td>mg/dL</td></tr><tr><td>Protein [Presence] in Urine by Test strip</td><td>Urine protein test = ++</td><td></td><td></td></tr><tr><td>Nitrite [Presence] in Urine by Test strip</td><td>Urine nitrite negative</td><td></td><td></td></tr><tr><td>Hemoglobin [Presence] in Urine by Test strip</td><td>Urine blood test = negative</td><td></td><td></td></tr><tr><td>Leukocyte esterase [Presence] in Urine by Test strip</td><td>Urine leukocyte test negative</td><td></td><td></td></tr></tbody></table></div>"
                },
                "title": "Urinalysis"
              },
              {
                "code": {
                  "coding": [
                    {
                      "code": "$LP7846-1",
                      "system": "http://loinc.org",
                      "display": "Specimen information"
                    }
                  ],
                  "text": "Specimen information"
                },
                "entry": [
                  {
                    "reference": "urn:uuid:320b3880-dcae-4a67-8d66-0795a5724543"
                  },
                  {
                    "reference": "urn:uuid:4d6c215e-b7d7-4da4-a88f-8448685801f6"
                  },
                  {
                    "reference": "urn:uuid:1c940b8a-aa7d-4590-b180-8d0c28c96e02"
                  },
                  {
                    "reference": "urn:uuid:44026660-438d-454e-bbcb-4e008a344751"
                  }
                ],
                "text": {
                  "status": "generated",
                  "div": "<div xmlns=\"http://www.w3.org/1999/xhtml\"><h3>Specimen information</h3><table class=\"hl7__eu__lab__report\"><thead><tr><th>Test</th><th>25-JUN-2024</th><th>Specimen</th><th></th></tr></thead><tbody><tr><td>Appearance of Urine</td><td>Cloudy urine</td><td>Urine</td><td></td></tr><tr><td>Odor of Urine</td><td>Urine smell ammoniacal</td><td>Urine</td><td></td></tr><tr><td>Clarity of Urine</td><td>Translucent</td><td>Urine</td><td></td></tr><tr><td>Color of Urine</td><td>Brown color</td><td>Urine</td><td></td></tr></tbody></table></div>"
                },
                "title": "Specimen information"
              }
            ],
            "title": "Laboratory Report"
          },
          {
            "text": {
              "status": "generated",
              "div": "<div xmlns=\"http://www.w3.org/1999/xhtml\"><h3>Annotation</h3><table class=\"hl7__eu__lab__report\"><tr><th>Conclusion and Recommendations based on this report and previous findings known to us</th></tr><tr><td>The patient shows significantly elevated creatinine, proteinuria, and abnormal urine findings (cloudy, brown, low specific gravity, ketonuria, glucosuria), suggesting impaired renal function, possibly acute or chronic kidney disease. Metabolic acidosis is indicated by low CO₂. Lipid profile shows hypercholesterolemia and low HDL. Blood glucose and HbA1c are normal, but glucosuria and ketonuria may indicate renal glycosuria or possible non-diabetic ketoacidosis. Recommend urgent nephrology evaluation and further assessment for underlying renal pathology.</td></tr></table></div>"
            },
            "code": {
              "coding": [
                {
                  "system": "http://loinc.org",
                  "code": "48767-8",
                  "display": "Annotation comment"
                }
              ]
            },
            "title": "Annotation comment"
          }
        ],
        "status": "final",
        "subject": {
          "reference": "urn:uuid:559876b2-3d21-4780-aca5-9482d0086a4e",
          "display": "Meaghan Neary"
        },
        "date": "2024-06-25T00:11:04Z",
        "title": "Laboratory Report",
        "confidentiality": "N"
      }
    },
    {
      "fullUrl": "urn:uuid:6cfef58b-b462-40ae-a693-90142ae7f807",
      "resource": {
        "resourceType": "DiagnosticReport",
        "id": "6cfef58b-b462-40ae-a693-90142ae7f807",
        "meta": {
          "profile": [
            "http://hl7.eu/fhir/laboratory/StructureDefinition/DiagnosticReport-eu-lab"
          ]
        },
        "identifier": [
          {
            "assigner": {
              "display": "HL7 Europe"
            },
            "system": "urn:oid:2.16.840.1.113883.2.51.999",
            "value": "d3814e05-6428-426c-8478-42074fd8d851"
          }
        ],
        "extension": [
          {
            "url": "http://hl7.org/fhir/5.0/StructureDefinition/extension-DiagnosticReport.composition",
            "valueReference": {
              "reference": "urn:uuid:d407cd9e-bdc2-4b59-9b8a-5207c951438d"
            }
          }
        ],
        "category": [
          {
            "coding": [
              {
                "code": "26436-6",
                "system": "http://loinc.org",
                "display": "Laboratory studies (set)"
              }
            ]
          }
        ],
        "specimen": [
          {
            "reference": "urn:uuid:7102b4ca-2e86-4e19-bfcd-4b7a699396a1"
          },
          {
            "reference": "urn:uuid:e7fe12f7-0cee-4ecb-a28a-bef487295078"
          },
          {
            "reference": "urn:uuid:ab4059e3-d9b8-45b6-a0a2-adb44b30667e"
          },
          {
            "reference": "urn:uuid:ec3bfa2b-fcb6-4dba-9a8d-4d1df1882461"
          }
        ],
        "result": [
          {
            "reference": "urn:uuid:43de6a17-c4ae-46b6-8232-707896fe2f30"
          },
          {
            "reference": "urn:uuid:70a62a98-2102-4cb2-bbf5-5ee861a83c35"
          },
          {
            "reference": "urn:uuid:485706a6-2304-4847-b495-cf420b0ad2cf"
          },
          {
            "reference": "urn:uuid:2d3075aa-3c4d-435c-b9cb-3fbc596c4944"
          },
          {
            "reference": "urn:uuid:52c4079e-3b43-44f8-a5c7-5529f61dfd12"
          },
          {
            "reference": "urn:uuid:0fda74e8-7b10-49ec-894d-6713333bc96e"
          },
          {
            "reference": "urn:uuid:4bd4bd14-9e14-42a9-aebb-aafa3f274140"
          },
          {
            "reference": "urn:uuid:639a21d1-3377-4063-88a3-7d7e93e2610b"
          },
          {
            "reference": "urn:uuid:320b3880-dcae-4a67-8d66-0795a5724543"
          },
          {
            "reference": "urn:uuid:4d6c215e-b7d7-4da4-a88f-8448685801f6"
          },
          {
            "reference": "urn:uuid:1c940b8a-aa7d-4590-b180-8d0c28c96e02"
          },
          {
            "reference": "urn:uuid:44026660-438d-454e-bbcb-4e008a344751"
          },
          {
            "reference": "urn:uuid:e0701559-784b-46b3-96e3-d4107e6aa63f"
          },
          {
            "reference": "urn:uuid:691839ca-1711-4418-9c9d-43b1ba44241b"
          },
          {
            "reference": "urn:uuid:894d05d9-e052-4d17-8c0f-b350a96a5ce2"
          },
          {
            "reference": "urn:uuid:54d1c4ab-73f9-448d-834a-a2bdabeab063"
          },
          {
            "reference": "urn:uuid:194c6ec3-5264-4fa4-a645-9cee80483d67"
          },
          {
            "reference": "urn:uuid:c1cdad53-fcd9-440b-88de-ff48b5c634b5"
          },
          {
            "reference": "urn:uuid:70c38eb7-86a5-448d-ab9e-fd4c6fad4848"
          },
          {
            "reference": "urn:uuid:910fc6d9-952b-4af1-8b1b-991d21f3c116"
          },
          {
            "reference": "urn:uuid:a8b9648f-086a-438a-8db1-658f2b1abec6"
          },
          {
            "reference": "urn:uuid:20a9b00f-72c9-498e-8fa1-6169ece57749"
          },
          {
            "reference": "urn:uuid:77506480-fe1e-47c4-8f8a-9f01273cf9d5"
          },
          {
            "reference": "urn:uuid:284ad45c-dfb4-4523-af56-855a5677f416"
          },
          {
            "reference": "urn:uuid:3b38a55f-05b3-4b76-8df7-40996b2399fe"
          },
          {
            "reference": "urn:uuid:bdf6d3e6-f2e2-46dd-99ca-7620beacb839"
          },
          {
            "reference": "urn:uuid:eb7b388f-b3e5-4e10-9b26-d821bed59251"
          },
          {
            "reference": "urn:uuid:4791d8f0-9b73-4d65-b67b-8ef04a6cf3d7"
          },
          {
            "reference": "urn:uuid:cfb48c22-14e7-4f64-94b2-904175c1045c"
          },
          {
            "reference": "urn:uuid:6d51eea2-f360-48df-bbeb-c324b21f20ac"
          },
          {
            "reference": "urn:uuid:14931f45-c616-4804-a530-d951e1804b1f"
          },
          {
            "reference": "urn:uuid:cf28d04b-3d70-40c7-90e7-55492893b2b0"
          },
          {
            "reference": "urn:uuid:1a617bf9-dc4b-4588-8b17-eefe0efc396d"
          },
          {
            "reference": "urn:uuid:da662a8c-e66c-42c8-817c-ce377ff6d0eb"
          },
          {
            "reference": "urn:uuid:fd4a715f-8cce-49e5-b039-212dcdc39b60"
          },
          {
            "reference": "urn:uuid:1adb6362-400a-4925-b00e-2c519d35c5b4"
          },
          {
            "reference": "urn:uuid:8e8f615b-dd6d-4746-b71c-a049f77a81b2"
          },
          {
            "reference": "urn:uuid:eb72b72b-6a9a-49f4-b0ed-9a353cfd34c4"
          },
          {
            "reference": "urn:uuid:a94ec797-91f7-4350-b2b2-976672ec5d79"
          },
          {
            "reference": "urn:uuid:9c0c0556-6f52-4504-ba7c-eada668cd33e"
          },
          {
            "reference": "urn:uuid:b2532229-59e1-4aae-a2e2-adc98ea14769"
          },
          {
            "reference": "urn:uuid:df5b8dde-10a0-44d0-8fbf-2937ef18bad7"
          },
          {
            "reference": "urn:uuid:8161e694-60ed-4409-83ff-2f620d0e27ec"
          },
          {
            "reference": "urn:uuid:6776f306-2863-47b0-bd3e-6748da32237a"
          },
          {
            "reference": "urn:uuid:653fb204-5e5a-4960-b6b6-bb69ab47b264"
          },
          {
            "reference": "urn:uuid:910278d4-414a-4600-a843-0515a4b4b820"
          },
          {
            "reference": "urn:uuid:f6fe1f83-e20b-4f20-8db2-05fd9cdb8f20"
          },
          {
            "reference": "urn:uuid:cf511e59-5583-4b2b-b9b6-9ecdb522c008"
          },
          {
            "reference": "urn:uuid:7e394309-dc25-4256-9cf9-d80397ec22b0"
          },
          {
            "reference": "urn:uuid:cf005185-1550-4b76-83ed-efd43139edbc"
          },
          {
            "reference": "urn:uuid:165e2be1-f3bd-4e01-a26e-4f956ed88456"
          },
          {
            "reference": "urn:uuid:af5b1d43-c9f6-4d41-9d01-04d1645608ce"
          },
          {
            "reference": "urn:uuid:917c7f64-db01-4111-abe6-5e6a1e829bcb"
          }
        ],
        "status": "registered",
        "code": {
          "coding": [
            {
              "code": "11502-2",
              "system": "http://loinc.org",
              "display": "Laboratory report"
            }
          ]
        },
        "subject": {
          "reference": "urn:uuid:559876b2-3d21-4780-aca5-9482d0086a4e",
          "display": "Meaghan Neary"
        }
      }
    },
    {
      "fullUrl": "urn:uuid:559876b2-3d21-4780-aca5-9482d0086a4e",
      "resource": {
        "resourceType": "Patient",
        "id": "559876b2-3d21-4780-aca5-9482d0086a4e",
        "meta": {
          "security": [
            {
              "system": "http://terminology.hl7.org/CodeSystem/v3-ActReason",
              "code": "HTEST"
            },
            {
              "system": "http://terminology.hl7.org/CodeSystem/v3-ActReason",
              "code": "TRAIN"
            }
          ],
          "tag": [
            {
              "system": "https://synderai.net/fhir/CodeSystem/tags",
              "code": "synthetic",
              "display": "SYNDERAI Synthetic data"
            }
          ],
          "profile": [
            "http://hl7.eu/fhir/base/StructureDefinition/patient-eu-core"
          ]
        },
        "identifier": [
          {
            "type": {
              "coding": [
                {
                  "code": "PT",
                  "system": "http://terminology.hl7.org/CodeSystem/v2-0203"
                }
              ]
            },
            "system": "http://ec.europa.eu/identifier/eci",
            "value": "1586-567257-8"
          },
          {
            "type": {
              "coding": [
                {
                  "code": "MR",
                  "system": "http://terminology.hl7.org/CodeSystem/v2-0203"
                }
              ]
            },
            "system": "http://local.setting.eu/identifier",
            "value": "443e6379-f231-b364-3ccb-644740a1aa2a"
          }
        ],
        "name": [
          {
            "family": "Neary"
          },
          {
            "given": [
              "Meaghan"
            ]
          },
          {
            "text": "Meaghan Neary"
          }
        ],
        "address": [
          {
            "line": [
              "64 Linskey Street"
            ],
            "use": "home",
            "type": "physical",
            "postalCode": "D02",
            "city": "Dublin",
            "country": "Ireland"
          }
        ],
        "telecom": [
          {
            "system": "phone",
            "value": "001-967-573-0911x465"
          }
        ],
        "extension": [
          {
            "url": "http://hl7.org/fhir/StructureDefinition/patient-nationality",
            "valueCodeableConcept": {
              "coding": [
                {
                  "code": "IE",
                  "system": "http://hl7.org/fhir/ValueSet/country"
                }
              ]
            }
          }
        ],
        "text": {
          "status": "generated",
          "div": "<div xmlns=\"http://www.w3.org/1999/xhtml\"><table class=\"hl7__ips\"><tr><td>Meaghan Neary</td><td>female</td><td>19-Dec-1960</td></tr></table></div>"
        },
        "gender": "female",
        "birthDate": "1960-12-19"
      }
    },
    {
      "fullUrl": "urn:uuid:ef817659-2cc3-4266-8cae-8f863276bc49",
      "resource": {
        "resourceType": "ServiceRequest",
        "id": "ef817659-2cc3-4266-8cae-8f863276bc49",
        "meta": {
          "profile": [
            "http://hl7.eu/fhir/laboratory/StructureDefinition/ServiceRequest-eu-lab"
          ]
        },
        "identifier": [
          {
            "system": "http://example.org",
            "value": "b33e50e7-06e0-4689-926d-994bd83101d1"
          }
        ],
        "specimen": [
          {
            "reference": "urn:uuid:7102b4ca-2e86-4e19-bfcd-4b7a699396a1"
          },
          {
            "reference": "urn:uuid:e7fe12f7-0cee-4ecb-a28a-bef487295078"
          },
          {
            "reference": "urn:uuid:ab4059e3-d9b8-45b6-a0a2-adb44b30667e"
          },
          {
            "reference": "urn:uuid:ec3bfa2b-fcb6-4dba-9a8d-4d1df1882461"
          }
        ],
        "reasonCode": [
          {
            "coding": [
              {
                "code": "55822004",
                "system": "http://snomed.info/sct",
                "display": "Hyperlipidemia"
              }
            ]
          },
          {
            "coding": [
              {
                "code": "433144002",
                "system": "http://snomed.info/sct",
                "display": "Chronic kidney disease stage 3"
              }
            ]
          },
          {
            "coding": [
              {
                "code": "157141000119108",
                "system": "http://snomed.info/sct",
                "display": "Proteinuria due to type 2 diabetes mellitus"
              }
            ]
          },
          {
            "coding": [
              {
                "code": "431856006",
                "system": "http://snomed.info/sct",
                "display": "Chronic kidney disease stage 2"
              }
            ]
          },
          {
            "coding": [
              {
                "code": "90781000119102",
                "system": "http://snomed.info/sct",
                "display": "Microalbuminuria due to type 2 diabetes mellitus"
              }
            ]
          },
          {
            "coding": [
              {
                "code": "127013003",
                "system": "http://snomed.info/sct",
                "display": "Disorder of kidney due to diabetes mellitus"
              }
            ]
          },
          {
            "coding": [
              {
                "code": "431855005",
                "system": "http://snomed.info/sct",
                "display": "Chronic kidney disease stage 1"
              }
            ]
          },
          {
            "coding": [
              {
                "code": "237602007",
                "system": "http://snomed.info/sct",
                "display": "Metabolic syndrome X"
              }
            ]
          },
          {
            "coding": [
              {
                "code": "271737000",
                "system": "http://snomed.info/sct",
                "display": "Anemia"
              }
            ]
          },
          {
            "coding": [
              {
                "code": "15777000",
                "system": "http://snomed.info/sct",
                "display": "Prediabetes"
              }
            ]
          },
          {
            "coding": [
              {
                "code": "59621000",
                "system": "http://snomed.info/sct",
                "display": "Essential hypertension"
              }
            ]
          }
        ],
        "status": "active",
        "intent": "order",
        "code": {
          "coding": [
            {
              "code": "108252007",
              "system": "http://snomed.info/sct",
              "display": "Laboratory procedure"
            }
          ]
        },
        "subject": {
          "reference": "urn:uuid:559876b2-3d21-4780-aca5-9482d0086a4e",
          "display": "Meaghan Neary"
        },
        "requester": {
          "reference": "urn:uuid:78b64a2e-aa97-46c6-b7dd-e0672cd05c8c"
        }
      }
    },
    {
      "fullUrl": "urn:uuid:78b64a2e-aa97-46c6-b7dd-e0672cd05c8c",
      "resource": {
        "resourceType": "PractitionerRole",
        "id": "78b64a2e-aa97-46c6-b7dd-e0672cd05c8c",
        "meta": {
          "profile": [
            "http://hl7.eu/fhir/base/StructureDefinition/practitionerRole-eu"
          ]
        },
        "text": {
          "status": "generated",
          "div": "<div xmlns=\"http://www.w3.org/1999/xhtml\">Provider Role Id: 78b64a2e-aa97-46c6-b7dd-e0672cd05c8c</div>"
        },
        "organization": {
          "reference": "urn:uuid:84de2b32-595f-4b18-bdf1-78529ece929e"
        }
      }
    },
    {
      "fullUrl": "urn:uuid:84de2b32-595f-4b18-bdf1-78529ece929e",
      "resource": {
        "resourceType": "Organization",
        "id": "84de2b32-595f-4b18-bdf1-78529ece929e",
        "meta": {
          "profile": [
            "http://hl7.eu/fhir/base/StructureDefinition/organization-eu"
          ]
        },
        "identifier": [
          {
            "assigner": {
              "display": "HL7 Europe"
            },
            "system": "urn:oid:2.16.840.1.113883.2.51.999",
            "value": "46dd9715-9a42-442b-8996-cb3c5e23ba4d"
          }
        ],
        "address": [
          {
            "line": [
              "Parnell Square West nan"
            ],
            "city": "Dublin",
            "postalCode": "D01",
            "country": "Ireland"
          }
        ],
        "text": {
          "status": "generated",
          "div": "<div xmlns=\"http://www.w3.org/1999/xhtml\">Provider Organization: Rotunda Hospital</div>"
        },
        "name": "Rotunda Hospital"
      }
    },
    {
      "fullUrl": "urn:uuid:7102b4ca-2e86-4e19-bfcd-4b7a699396a1",
      "resource": {
        "resourceType": "Specimen",
        "id": "7102b4ca-2e86-4e19-bfcd-4b7a699396a1",
        "meta": {
          "profile": [
            "http://hl7.eu/fhir/laboratory/StructureDefinition/Specimen-eu-lab"
          ]
        },
        "collection": {
          "collectedDateTime": "2024-06-24"
        },
        "text": {
          "status": "generated",
          "div": "<div xmlns=\"http://www.w3.org/1999/xhtml\"><table class=\"hl7__eu__lab__report\"><tr><th>Specimen</th><th>Collection Date</th></tr><tr><td>Acellular blood (serum or plasma) specimen</td><td><span class=\"nb\">24-Jun-2024</span></td></tr></table></div>"
        },
        "type": {
          "coding": [
            {
              "code": "122592007",
              "system": "http://snomed.info/sct",
              "display": "Acellular blood (serum or plasma) specimen"
            }
          ]
        }
      }
    },
    {
      "fullUrl": "urn:uuid:e7fe12f7-0cee-4ecb-a28a-bef487295078",
      "resource": {
        "resourceType": "Specimen",
        "id": "e7fe12f7-0cee-4ecb-a28a-bef487295078",
        "meta": {
          "profile": [
            "http://hl7.eu/fhir/laboratory/StructureDefinition/Specimen-eu-lab"
          ]
        },
        "collection": {
          "collectedDateTime": "2024-06-24"
        },
        "text": {
          "status": "generated",
          "div": "<div xmlns=\"http://www.w3.org/1999/xhtml\"><table class=\"hl7__eu__lab__report\"><tr><th>Specimen</th><th>Collection Date</th></tr><tr><td>Urine specimen</td><td><span class=\"nb\">24-Jun-2024</span></td></tr></table></div>"
        },
        "type": {
          "coding": [
            {
              "code": "122575003",
              "system": "http://snomed.info/sct",
              "display": "Urine specimen"
            }
          ]
        }
      }
    },
    {
      "fullUrl": "urn:uuid:ab4059e3-d9b8-45b6-a0a2-adb44b30667e",
      "resource": {
        "resourceType": "Specimen",
        "id": "ab4059e3-d9b8-45b6-a0a2-adb44b30667e",
        "meta": {
          "profile": [
            "http://hl7.eu/fhir/laboratory/StructureDefinition/Specimen-eu-lab"
          ]
        },
        "collection": {
          "collectedDateTime": "2024-06-24"
        },
        "text": {
          "status": "generated",
          "div": "<div xmlns=\"http://www.w3.org/1999/xhtml\"><table class=\"hl7__eu__lab__report\"><tr><th>Specimen</th><th>Collection Date</th></tr><tr><td>Whole blood specimen (specimen)</td><td><span class=\"nb\">24-Jun-2024</span></td></tr></table></div>"
        },
        "type": {
          "coding": [
            {
              "code": "258580003",
              "system": "http://snomed.info/sct",
              "display": "Whole blood specimen (specimen)"
            }
          ]
        }
      }
    },
    {
      "fullUrl": "urn:uuid:ec3bfa2b-fcb6-4dba-9a8d-4d1df1882461",
      "resource": {
        "resourceType": "Specimen",
        "id": "ec3bfa2b-fcb6-4dba-9a8d-4d1df1882461",
        "meta": {
          "profile": [
            "http://hl7.eu/fhir/laboratory/StructureDefinition/Specimen-eu-lab"
          ]
        },
        "collection": {
          "collectedDateTime": "2024-06-24"
        },
        "text": {
          "status": "generated",
          "div": "<div xmlns=\"http://www.w3.org/1999/xhtml\"><table class=\"hl7__eu__lab__report\"><tr><th>Specimen</th><th>Collection Date</th></tr><tr><td>Serum specimen</td><td><span class=\"nb\">24-Jun-2024</span></td></tr></table></div>"
        },
        "type": {
          "coding": [
            {
              "code": "119364003",
              "system": "http://snomed.info/sct",
              "display": "Serum specimen"
            }
          ]
        }
      }
    },
    {
      "fullUrl": "urn:uuid:43de6a17-c4ae-46b6-8232-707896fe2f30",
      "resource": {
        "resourceType": "Observation",
        "id": "43de6a17-c4ae-46b6-8232-707896fe2f30",
        "meta": {
          "profile": [
            "http://hl7.eu/fhir/laboratory/StructureDefinition/Observation-resultslab-eu-lab"
          ]
        },
        "performer": [
          {
            "display": "The Central European Lab"
          }
        ],
        "category": [
          {
            "coding": [
              {
                "system": "http://terminology.hl7.org/CodeSystem/observation-category",
                "code": "laboratory"
              }
            ]
          }
        ],
        "code": {
          "coding": [
            {
              "code": "2345-7",
              "system": "http://loinc.org",
              "display": "Glucose [Mass/volume] in Serum or Plasma"
            }
          ],
          "text": "Glucose [Mass/volume] in Serum or Plasma"
        },
        "valueQuantity": {
          "system": "http://unitsofmeasure.org",
          "value": 87.6,
          "unit": "mg/dL",
          "code": "mg/dL"
        },
        "referenceRange": [
          {
            "low": {
              "value": 70,
              "code": "mg/dL",
              "system": "http://unitsofmeasure.org"
            }
          },
          {
            "high": {
              "value": 99,
              "code": "mg/dL",
              "system": "http://unitsofmeasure.org"
            }
          }
        ],
        "text": {
          "status": "generated",
          "div": "<div xmlns=\"http://www.w3.org/1999/xhtml\"><table class=\"hl7__eu__lab__report\"><tr><th>Test</th><th>25-Jun-2024</th><th>Reference&#xA0;Range</th><th>Unit</th></tr><tr><td>Glucose [Mass/volume] in Serum or Plasma</td><td>87.6</td><td>70 - 99</td><td></td><td>mg/dL</td></tr></table></div>"
        },
        "status": "final",
        "subject": {
          "reference": "urn:uuid:559876b2-3d21-4780-aca5-9482d0086a4e",
          "display": "Meaghan Neary"
        },
        "effectiveDateTime": "2024-06-24T22:11:04Z",
        "specimen": {
          "reference": "urn:uuid:7102b4ca-2e86-4e19-bfcd-4b7a699396a1"
        }
      }
    },
    {
      "fullUrl": "urn:uuid:70a62a98-2102-4cb2-bbf5-5ee861a83c35",
      "resource": {
        "resourceType": "Observation",
        "id": "70a62a98-2102-4cb2-bbf5-5ee861a83c35",
        "meta": {
          "profile": [
            "http://hl7.eu/fhir/laboratory/StructureDefinition/Observation-resultslab-eu-lab"
          ]
        },
        "performer": [
          {
            "display": "The Central European Lab"
          }
        ],
        "category": [
          {
            "coding": [
              {
                "system": "http://terminology.hl7.org/CodeSystem/observation-category",
                "code": "laboratory"
              }
            ]
          }
        ],
        "code": {
          "coding": [
            {
              "code": "3094-0",
              "system": "http://loinc.org",
              "display": "Urea nitrogen [Mass/volume] in Serum or Plasma"
            }
          ],
          "text": "Urea nitrogen [Mass/volume] in Serum or Plasma"
        },
        "valueQuantity": {
          "system": "http://unitsofmeasure.org",
          "value": 11.8,
          "unit": "mg/dL",
          "code": "mg/dL"
        },
        "referenceRange": [
          {
            "low": {
              "value": 7,
              "code": "mg/dL",
              "system": "http://unitsofmeasure.org"
            }
          },
          {
            "high": {
              "value": 50,
              "code": "mg/dL",
              "system": "http://unitsofmeasure.org"
            }
          }
        ],
        "text": {
          "status": "generated",
          "div": "<div xmlns=\"http://www.w3.org/1999/xhtml\"><table class=\"hl7__eu__lab__report\"><tr><th>Test</th><th>25-Jun-2024</th><th>Reference&#xA0;Range</th><th>Unit</th></tr><tr><td>Urea nitrogen [Mass/volume] in Serum or Plasma</td><td>11.8</td><td>7 - 50</td><td></td><td>mg/dL</td></tr></table></div>"
        },
        "status": "final",
        "subject": {
          "reference": "urn:uuid:559876b2-3d21-4780-aca5-9482d0086a4e",
          "display": "Meaghan Neary"
        },
        "effectiveDateTime": "2024-06-24T22:11:04Z",
        "specimen": {
          "reference": "urn:uuid:7102b4ca-2e86-4e19-bfcd-4b7a699396a1"
        }
      }
    },
    {
      "fullUrl": "urn:uuid:485706a6-2304-4847-b495-cf420b0ad2cf",
      "resource": {
        "resourceType": "Observation",
        "id": "485706a6-2304-4847-b495-cf420b0ad2cf",
        "meta": {
          "profile": [
            "http://hl7.eu/fhir/laboratory/StructureDefinition/Observation-resultslab-eu-lab"
          ]
        },
        "performer": [
          {
            "display": "The Central European Lab"
          }
        ],
        "category": [
          {
            "coding": [
              {
                "system": "http://terminology.hl7.org/CodeSystem/observation-category",
                "code": "laboratory"
              }
            ]
          }
        ],
        "code": {
          "coding": [
            {
              "code": "2160-0",
              "system": "http://loinc.org",
              "display": "Creatinine [Mass/volume] in Serum or Plasma"
            }
          ],
          "text": "Creatinine [Mass/volume] in Serum or Plasma"
        },
        "valueQuantity": {
          "system": "http://unitsofmeasure.org",
          "value": 2.1,
          "unit": "mg/dL",
          "code": "mg/dL"
        },
        "referenceRange": [
          {
            "low": {
              "value": 0.6,
              "code": "mg/dL",
              "system": "http://unitsofmeasure.org"
            }
          },
          {
            "high": {
              "value": 1.1,
              "code": "mg/dL",
              "system": "http://unitsofmeasure.org"
            }
          }
        ],
        "interpretation": [
          {
            "coding": [
              {
                "code": "H",
                "system": "http://terminology.hl7.org/CodeSystem/v3-ObservationInterpretation",
                "display": "High"
              }
            ]
          }
        ],
        "text": {
          "status": "generated",
          "div": "<div xmlns=\"http://www.w3.org/1999/xhtml\"><table class=\"hl7__eu__lab__report\"><tr><th>Test</th><th>25-Jun-2024</th><th>Reference&#xA0;Range</th><th>Unit</th></tr><tr><td>Creatinine [Mass/volume] in Serum or Plasma</td><td>2.1</td><td>0.6 - 1.1</td><td>H</td><td>mg/dL</td></tr></table></div>"
        },
        "status": "final",
        "subject": {
          "reference": "urn:uuid:559876b2-3d21-4780-aca5-9482d0086a4e",
          "display": "Meaghan Neary"
        },
        "effectiveDateTime": "2024-06-24T22:11:04Z",
        "specimen": {
          "reference": "urn:uuid:7102b4ca-2e86-4e19-bfcd-4b7a699396a1"
        }
      }
    },
    {
      "fullUrl": "urn:uuid:2d3075aa-3c4d-435c-b9cb-3fbc596c4944",
      "resource": {
        "resourceType": "Observation",
        "id": "2d3075aa-3c4d-435c-b9cb-3fbc596c4944",
        "meta": {
          "profile": [
            "http://hl7.eu/fhir/laboratory/StructureDefinition/Observation-resultslab-eu-lab"
          ]
        },
        "performer": [
          {
            "display": "The Central European Lab"
          }
        ],
        "category": [
          {
            "coding": [
              {
                "system": "http://terminology.hl7.org/CodeSystem/observation-category",
                "code": "laboratory"
              }
            ]
          }
        ],
        "code": {
          "coding": [
            {
              "code": "17861-6",
              "system": "http://loinc.org",
              "display": "Calcium [Mass/volume] in Serum or Plasma"
            }
          ],
          "text": "Calcium [Mass/volume] in Serum or Plasma"
        },
        "valueQuantity": {
          "system": "http://unitsofmeasure.org",
          "value": 9.1,
          "unit": "mg/dL",
          "code": "mg/dL"
        },
        "referenceRange": [
          {
            "low": {
              "value": 8.6,
              "code": "mg/dL",
              "system": "http://unitsofmeasure.org"
            }
          },
          {
            "high": {
              "value": 10.4,
              "code": "mg/dL",
              "system": "http://unitsofmeasure.org"
            }
          }
        ],
        "text": {
          "status": "generated",
          "div": "<div xmlns=\"http://www.w3.org/1999/xhtml\"><table class=\"hl7__eu__lab__report\"><tr><th>Test</th><th>25-Jun-2024</th><th>Reference&#xA0;Range</th><th>Unit</th></tr><tr><td>Calcium [Mass/volume] in Serum or Plasma</td><td>9.1</td><td>8.6 - 10.4</td><td></td><td>mg/dL</td></tr></table></div>"
        },
        "status": "final",
        "subject": {
          "reference": "urn:uuid:559876b2-3d21-4780-aca5-9482d0086a4e",
          "display": "Meaghan Neary"
        },
        "effectiveDateTime": "2024-06-24T22:11:04Z",
        "specimen": {
          "reference": "urn:uuid:7102b4ca-2e86-4e19-bfcd-4b7a699396a1"
        }
      }
    },
    {
      "fullUrl": "urn:uuid:52c4079e-3b43-44f8-a5c7-5529f61dfd12",
      "resource": {
        "resourceType": "Observation",
        "id": "52c4079e-3b43-44f8-a5c7-5529f61dfd12",
        "meta": {
          "profile": [
            "http://hl7.eu/fhir/laboratory/StructureDefinition/Observation-resultslab-eu-lab"
          ]
        },
        "performer": [
          {
            "display": "The Central European Lab"
          }
        ],
        "category": [
          {
            "coding": [
              {
                "system": "http://terminology.hl7.org/CodeSystem/observation-category",
                "code": "laboratory"
              }
            ]
          }
        ],
        "code": {
          "coding": [
            {
              "code": "2951-2",
              "system": "http://loinc.org",
              "display": "Sodium [Moles/volume] in Serum or Plasma"
            }
          ],
          "text": "Sodium [Moles/volume] in Serum or Plasma"
        },
        "valueQuantity": {
          "system": "http://unitsofmeasure.org",
          "value": 140.5,
          "unit": "mmol/L",
          "code": "mmol/L"
        },
        "referenceRange": [
          {
            "low": {
              "value": 135,
              "code": "mmol/L",
              "system": "http://unitsofmeasure.org"
            }
          },
          {
            "high": {
              "value": 145,
              "code": "mmol/L",
              "system": "http://unitsofmeasure.org"
            }
          }
        ],
        "text": {
          "status": "generated",
          "div": "<div xmlns=\"http://www.w3.org/1999/xhtml\"><table class=\"hl7__eu__lab__report\"><tr><th>Test</th><th>25-Jun-2024</th><th>Reference&#xA0;Range</th><th>Unit</th></tr><tr><td>Sodium [Moles/volume] in Serum or Plasma</td><td>140.5</td><td>135 - 145</td><td></td><td>mmol/L</td></tr></table></div>"
        },
        "status": "final",
        "subject": {
          "reference": "urn:uuid:559876b2-3d21-4780-aca5-9482d0086a4e",
          "display": "Meaghan Neary"
        },
        "effectiveDateTime": "2024-06-24T22:11:04Z",
        "specimen": {
          "reference": "urn:uuid:7102b4ca-2e86-4e19-bfcd-4b7a699396a1"
        }
      }
    },
    {
      "fullUrl": "urn:uuid:0fda74e8-7b10-49ec-894d-6713333bc96e",
      "resource": {
        "resourceType": "Observation",
        "id": "0fda74e8-7b10-49ec-894d-6713333bc96e",
        "meta": {
          "profile": [
            "http://hl7.eu/fhir/laboratory/StructureDefinition/Observation-resultslab-eu-lab"
          ]
        },
        "performer": [
          {
            "display": "The Central European Lab"
          }
        ],
        "category": [
          {
            "coding": [
              {
                "system": "http://terminology.hl7.org/CodeSystem/observation-category",
                "code": "laboratory"
              }
            ]
          }
        ],
        "code": {
          "coding": [
            {
              "code": "2823-3",
              "system": "http://loinc.org",
              "display": "Potassium [Moles/volume] in Serum or Plasma"
            }
          ],
          "text": "Potassium [Moles/volume] in Serum or Plasma"
        },
        "valueQuantity": {
          "system": "http://unitsofmeasure.org",
          "value": 3.9,
          "unit": "mmol/L",
          "code": "mmol/L"
        },
        "referenceRange": [
          {
            "low": {
              "value": 3.5,
              "code": "mmol/L",
              "system": "http://unitsofmeasure.org"
            }
          },
          {
            "high": {
              "value": 5.1,
              "code": "mmol/L",
              "system": "http://unitsofmeasure.org"
            }
          }
        ],
        "text": {
          "status": "generated",
          "div": "<div xmlns=\"http://www.w3.org/1999/xhtml\"><table class=\"hl7__eu__lab__report\"><tr><th>Test</th><th>25-Jun-2024</th><th>Reference&#xA0;Range</th><th>Unit</th></tr><tr><td>Potassium [Moles/volume] in Serum or Plasma</td><td>3.9</td><td>3.5 - 5.1</td><td></td><td>mmol/L</td></tr></table></div>"
        },
        "status": "final",
        "subject": {
          "reference": "urn:uuid:559876b2-3d21-4780-aca5-9482d0086a4e",
          "display": "Meaghan Neary"
        },
        "effectiveDateTime": "2024-06-24T22:11:04Z",
        "specimen": {
          "reference": "urn:uuid:7102b4ca-2e86-4e19-bfcd-4b7a699396a1"
        }
      }
    },
    {
      "fullUrl": "urn:uuid:4bd4bd14-9e14-42a9-aebb-aafa3f274140",
      "resource": {
        "resourceType": "Observation",
        "id": "4bd4bd14-9e14-42a9-aebb-aafa3f274140",
        "meta": {
          "profile": [
            "http://hl7.eu/fhir/laboratory/StructureDefinition/Observation-resultslab-eu-lab"
          ]
        },
        "performer": [
          {
            "display": "The Central European Lab"
          }
        ],
        "category": [
          {
            "coding": [
              {
                "system": "http://terminology.hl7.org/CodeSystem/observation-category",
                "code": "laboratory"
              }
            ]
          }
        ],
        "code": {
          "coding": [
            {
              "code": "2075-0",
              "system": "http://loinc.org",
              "display": "Chloride [Moles/volume] in Serum or Plasma"
            }
          ],
          "text": "Chloride [Moles/volume] in Serum or Plasma"
        },
        "valueQuantity": {
          "system": "http://unitsofmeasure.org",
          "value": 101.1,
          "unit": "mmol/L",
          "code": "mmol/L"
        },
        "referenceRange": [
          {
            "low": {
              "value": 98,
              "code": "mmol/L",
              "system": "http://unitsofmeasure.org"
            }
          },
          {
            "high": {
              "value": 108,
              "code": "mmol/L",
              "system": "http://unitsofmeasure.org"
            }
          }
        ],
        "text": {
          "status": "generated",
          "div": "<div xmlns=\"http://www.w3.org/1999/xhtml\"><table class=\"hl7__eu__lab__report\"><tr><th>Test</th><th>25-Jun-2024</th><th>Reference&#xA0;Range</th><th>Unit</th></tr><tr><td>Chloride [Moles/volume] in Serum or Plasma</td><td>101.1</td><td>98 - 108</td><td></td><td>mmol/L</td></tr></table></div>"
        },
        "status": "final",
        "subject": {
          "reference": "urn:uuid:559876b2-3d21-4780-aca5-9482d0086a4e",
          "display": "Meaghan Neary"
        },
        "effectiveDateTime": "2024-06-24T22:11:04Z",
        "specimen": {
          "reference": "urn:uuid:7102b4ca-2e86-4e19-bfcd-4b7a699396a1"
        }
      }
    },
    {
      "fullUrl": "urn:uuid:639a21d1-3377-4063-88a3-7d7e93e2610b",
      "resource": {
        "resourceType": "Observation",
        "id": "639a21d1-3377-4063-88a3-7d7e93e2610b",
        "meta": {
          "profile": [
            "http://hl7.eu/fhir/laboratory/StructureDefinition/Observation-resultslab-eu-lab"
          ]
        },
        "performer": [
          {
            "display": "The Central European Lab"
          }
        ],
        "category": [
          {
            "coding": [
              {
                "system": "http://terminology.hl7.org/CodeSystem/observation-category",
                "code": "laboratory"
              }
            ]
          }
        ],
        "code": {
          "coding": [
            {
              "code": "2028-9",
              "system": "http://loinc.org",
              "display": "Carbon dioxide, total [Moles/volume] in Serum or Plasma"
            }
          ],
          "text": "Carbon dioxide, total [Moles/volume] in Serum or Plasma"
        },
        "valueQuantity": {
          "system": "http://unitsofmeasure.org",
          "value": 21.7,
          "unit": "mmol/L",
          "code": "mmol/L"
        },
        "referenceRange": [
          {
            "low": {
              "value": 22,
              "code": "mmol/L",
              "system": "http://unitsofmeasure.org"
            }
          },
          {
            "high": {
              "value": 32,
              "code": "mmol/L",
              "system": "http://unitsofmeasure.org"
            }
          }
        ],
        "interpretation": [
          {
            "coding": [
              {
                "code": "L",
                "system": "http://terminology.hl7.org/CodeSystem/v3-ObservationInterpretation",
                "display": "Low"
              }
            ]
          }
        ],
        "text": {
          "status": "generated",
          "div": "<div xmlns=\"http://www.w3.org/1999/xhtml\"><table class=\"hl7__eu__lab__report\"><tr><th>Test</th><th>25-Jun-2024</th><th>Reference&#xA0;Range</th><th>Unit</th></tr><tr><td>Carbon dioxide, total [Moles/volume] in Serum or Plasma</td><td>21.7</td><td>22 - 32</td><td>L</td><td>mmol/L</td></tr></table></div>"
        },
        "status": "final",
        "subject": {
          "reference": "urn:uuid:559876b2-3d21-4780-aca5-9482d0086a4e",
          "display": "Meaghan Neary"
        },
        "effectiveDateTime": "2024-06-24T22:11:04Z",
        "specimen": {
          "reference": "urn:uuid:7102b4ca-2e86-4e19-bfcd-4b7a699396a1"
        }
      }
    },
    {
      "fullUrl": "urn:uuid:320b3880-dcae-4a67-8d66-0795a5724543",
      "resource": {
        "resourceType": "Observation",
        "id": "320b3880-dcae-4a67-8d66-0795a5724543",
        "meta": {
          "profile": [
            "http://hl7.eu/fhir/laboratory/StructureDefinition/Observation-resultslab-eu-lab"
          ]
        },
        "performer": [
          {
            "display": "The Central European Lab"
          }
        ],
        "category": [
          {
            "coding": [
              {
                "system": "http://terminology.hl7.org/CodeSystem/observation-category",
                "code": "laboratory"
              }
            ]
          }
        ],
        "code": {
          "coding": [
            {
              "code": "5767-9",
              "system": "http://loinc.org",
              "display": "Appearance of Urine"
            }
          ],
          "text": "Appearance of Urine"
        },
        "text": {
          "status": "generated",
          "div": "<div xmlns=\"http://www.w3.org/1999/xhtml\"><table class=\"hl7__eu__lab__report\"><tr><th>Test</th><th>25-Jun-2024</th><th>Reference&#xA0;Range</th><th>Unit</th></tr><tr><td>Appearance of Urine</td></tr></table></div>"
        },
        "status": "final",
        "subject": {
          "reference": "urn:uuid:559876b2-3d21-4780-aca5-9482d0086a4e",
          "display": "Meaghan Neary"
        },
        "effectiveDateTime": "2024-06-24T22:11:04Z",
        "specimen": {
          "reference": "urn:uuid:e7fe12f7-0cee-4ecb-a28a-bef487295078"
        }
      }
    },
    {
      "fullUrl": "urn:uuid:4d6c215e-b7d7-4da4-a88f-8448685801f6",
      "resource": {
        "resourceType": "Observation",
        "id": "4d6c215e-b7d7-4da4-a88f-8448685801f6",
        "meta": {
          "profile": [
            "http://hl7.eu/fhir/laboratory/StructureDefinition/Observation-resultslab-eu-lab"
          ]
        },
        "performer": [
          {
            "display": "The Central European Lab"
          }
        ],
        "category": [
          {
            "coding": [
              {
                "system": "http://terminology.hl7.org/CodeSystem/observation-category",
                "code": "laboratory"
              }
            ]
          }
        ],
        "code": {
          "coding": [
            {
              "code": "34533-0",
              "system": "http://loinc.org",
              "display": "Odor of Urine"
            }
          ],
          "text": "Odor of Urine"
        },
        "text": {
          "status": "generated",
          "div": "<div xmlns=\"http://www.w3.org/1999/xhtml\"><table class=\"hl7__eu__lab__report\"><tr><th>Test</th><th>25-Jun-2024</th><th>Reference&#xA0;Range</th><th>Unit</th></tr><tr><td>Odor of Urine</td></tr></table></div>"
        },
        "status": "final",
        "subject": {
          "reference": "urn:uuid:559876b2-3d21-4780-aca5-9482d0086a4e",
          "display": "Meaghan Neary"
        },
        "effectiveDateTime": "2024-06-24T22:11:04Z",
        "specimen": {
          "reference": "urn:uuid:e7fe12f7-0cee-4ecb-a28a-bef487295078"
        }
      }
    },
    {
      "fullUrl": "urn:uuid:1c940b8a-aa7d-4590-b180-8d0c28c96e02",
      "resource": {
        "resourceType": "Observation",
        "id": "1c940b8a-aa7d-4590-b180-8d0c28c96e02",
        "meta": {
          "profile": [
            "http://hl7.eu/fhir/laboratory/StructureDefinition/Observation-resultslab-eu-lab"
          ]
        },
        "performer": [
          {
            "display": "The Central European Lab"
          }
        ],
        "category": [
          {
            "coding": [
              {
                "system": "http://terminology.hl7.org/CodeSystem/observation-category",
                "code": "laboratory"
              }
            ]
          }
        ],
        "code": {
          "coding": [
            {
              "code": "32167-9",
              "system": "http://loinc.org",
              "display": "Clarity of Urine"
            }
          ],
          "text": "Clarity of Urine"
        },
        "text": {
          "status": "generated",
          "div": "<div xmlns=\"http://www.w3.org/1999/xhtml\"><table class=\"hl7__eu__lab__report\"><tr><th>Test</th><th>25-Jun-2024</th><th>Reference&#xA0;Range</th><th>Unit</th></tr><tr><td>Clarity of Urine</td></tr></table></div>"
        },
        "status": "final",
        "subject": {
          "reference": "urn:uuid:559876b2-3d21-4780-aca5-9482d0086a4e",
          "display": "Meaghan Neary"
        },
        "effectiveDateTime": "2024-06-24T22:11:04Z",
        "specimen": {
          "reference": "urn:uuid:e7fe12f7-0cee-4ecb-a28a-bef487295078"
        }
      }
    },
    {
      "fullUrl": "urn:uuid:44026660-438d-454e-bbcb-4e008a344751",
      "resource": {
        "resourceType": "Observation",
        "id": "44026660-438d-454e-bbcb-4e008a344751",
        "meta": {
          "profile": [
            "http://hl7.eu/fhir/laboratory/StructureDefinition/Observation-resultslab-eu-lab"
          ]
        },
        "performer": [
          {
            "display": "The Central European Lab"
          }
        ],
        "category": [
          {
            "coding": [
              {
                "system": "http://terminology.hl7.org/CodeSystem/observation-category",
                "code": "laboratory"
              }
            ]
          }
        ],
        "code": {
          "coding": [
            {
              "code": "5778-6",
              "system": "http://loinc.org",
              "display": "Color of Urine"
            }
          ],
          "text": "Color of Urine"
        },
        "text": {
          "status": "generated",
          "div": "<div xmlns=\"http://www.w3.org/1999/xhtml\"><table class=\"hl7__eu__lab__report\"><tr><th>Test</th><th>25-Jun-2024</th><th>Reference&#xA0;Range</th><th>Unit</th></tr><tr><td>Color of Urine</td></tr></table></div>"
        },
        "status": "final",
        "subject": {
          "reference": "urn:uuid:559876b2-3d21-4780-aca5-9482d0086a4e",
          "display": "Meaghan Neary"
        },
        "effectiveDateTime": "2024-06-24T22:11:04Z",
        "specimen": {
          "reference": "urn:uuid:e7fe12f7-0cee-4ecb-a28a-bef487295078"
        }
      }
    },
    {
      "fullUrl": "urn:uuid:e0701559-784b-46b3-96e3-d4107e6aa63f",
      "resource": {
        "resourceType": "Observation",
        "id": "e0701559-784b-46b3-96e3-d4107e6aa63f",
        "meta": {
          "profile": [
            "http://hl7.eu/fhir/laboratory/StructureDefinition/Observation-resultslab-eu-lab"
          ]
        },
        "performer": [
          {
            "display": "The Central European Lab"
          }
        ],
        "category": [
          {
            "coding": [
              {
                "system": "http://terminology.hl7.org/CodeSystem/observation-category",
                "code": "laboratory"
              }
            ]
          }
        ],
        "code": {
          "coding": [
            {
              "code": "5792-7",
              "system": "http://loinc.org",
              "display": "Glucose [Mass/volume] in Urine by Test strip"
            }
          ],
          "text": "Glucose [Mass/volume] in Urine by Test strip"
        },
        "valueQuantity": {
          "system": "http://unitsofmeasure.org",
          "value": 0.8,
          "unit": "mg/dL",
          "code": "mg/dL"
        },
        "referenceRange": [
          {
            "low": {
              "value": 0.8,
              "code": "mg/dL",
              "system": "http://unitsofmeasure.org"
            }
          },
          {
            "high": {
              "value": 0,
              "code": "mg/dL",
              "system": "http://unitsofmeasure.org"
            }
          }
        ],
        "interpretation": [
          {
            "coding": [
              {
                "code": "H",
                "system": "http://terminology.hl7.org/CodeSystem/v3-ObservationInterpretation",
                "display": "High"
              }
            ]
          }
        ],
        "text": {
          "status": "generated",
          "div": "<div xmlns=\"http://www.w3.org/1999/xhtml\"><table class=\"hl7__eu__lab__report\"><tr><th>Test</th><th>25-Jun-2024</th><th>Reference&#xA0;Range</th><th>Unit</th></tr><tr><td>Glucose [Mass/volume] in Urine by Test strip</td><td>0.8</td><td>0.8 - 0</td><td>H</td><td>mg/dL</td></tr></table></div>"
        },
        "status": "final",
        "subject": {
          "reference": "urn:uuid:559876b2-3d21-4780-aca5-9482d0086a4e",
          "display": "Meaghan Neary"
        },
        "effectiveDateTime": "2024-06-24T22:11:04Z",
        "specimen": {
          "reference": "urn:uuid:e7fe12f7-0cee-4ecb-a28a-bef487295078"
        }
      }
    },
    {
      "fullUrl": "urn:uuid:691839ca-1711-4418-9c9d-43b1ba44241b",
      "resource": {
        "resourceType": "Observation",
        "id": "691839ca-1711-4418-9c9d-43b1ba44241b",
        "meta": {
          "profile": [
            "http://hl7.eu/fhir/laboratory/StructureDefinition/Observation-resultslab-eu-lab"
          ]
        },
        "performer": [
          {
            "display": "The Central European Lab"
          }
        ],
        "category": [
          {
            "coding": [
              {
                "system": "http://terminology.hl7.org/CodeSystem/observation-category",
                "code": "laboratory"
              }
            ]
          }
        ],
        "code": {
          "coding": [
            {
              "code": "25428-4",
              "system": "http://loinc.org",
              "display": "Glucose [Presence] in Urine by Test strip"
            }
          ],
          "text": "Glucose [Presence] in Urine by Test strip"
        },
        "text": {
          "status": "generated",
          "div": "<div xmlns=\"http://www.w3.org/1999/xhtml\"><table class=\"hl7__eu__lab__report\"><tr><th>Test</th><th>25-Jun-2024</th><th>Reference&#xA0;Range</th><th>Unit</th></tr><tr><td>Glucose [Presence] in Urine by Test strip</td></tr></table></div>"
        },
        "status": "final",
        "subject": {
          "reference": "urn:uuid:559876b2-3d21-4780-aca5-9482d0086a4e",
          "display": "Meaghan Neary"
        },
        "effectiveDateTime": "2024-06-24T22:11:04Z",
        "specimen": {
          "reference": "urn:uuid:e7fe12f7-0cee-4ecb-a28a-bef487295078"
        }
      }
    },
    {
      "fullUrl": "urn:uuid:894d05d9-e052-4d17-8c0f-b350a96a5ce2",
      "resource": {
        "resourceType": "Observation",
        "id": "894d05d9-e052-4d17-8c0f-b350a96a5ce2",
        "meta": {
          "profile": [
            "http://hl7.eu/fhir/laboratory/StructureDefinition/Observation-resultslab-eu-lab"
          ]
        },
        "performer": [
          {
            "display": "The Central European Lab"
          }
        ],
        "category": [
          {
            "coding": [
              {
                "system": "http://terminology.hl7.org/CodeSystem/observation-category",
                "code": "laboratory"
              }
            ]
          }
        ],
        "code": {
          "coding": [
            {
              "code": "20505-4",
              "system": "http://loinc.org",
              "display": "Bilirubin.total [Mass/volume] in Urine by Test strip"
            }
          ],
          "text": "Bilirubin.total [Mass/volume] in Urine by Test strip"
        },
        "valueQuantity": {
          "system": "http://unitsofmeasure.org",
          "value": 0.7,
          "unit": "mg/dL",
          "code": "mg/dL"
        },
        "referenceRange": [
          {
            "low": {
              "value": 0,
              "code": "mg/dL",
              "system": "http://unitsofmeasure.org"
            }
          },
          {
            "high": {
              "value": 1,
              "code": "mg/dL",
              "system": "http://unitsofmeasure.org"
            }
          }
        ],
        "text": {
          "status": "generated",
          "div": "<div xmlns=\"http://www.w3.org/1999/xhtml\"><table class=\"hl7__eu__lab__report\"><tr><th>Test</th><th>25-Jun-2024</th><th>Reference&#xA0;Range</th><th>Unit</th></tr><tr><td>Bilirubin.total [Mass/volume] in Urine by Test strip</td><td>0.7</td><td>0 - 1</td><td></td><td>mg/dL</td></tr></table></div>"
        },
        "status": "final",
        "subject": {
          "reference": "urn:uuid:559876b2-3d21-4780-aca5-9482d0086a4e",
          "display": "Meaghan Neary"
        },
        "effectiveDateTime": "2024-06-24T22:11:04Z",
        "specimen": {
          "reference": "urn:uuid:e7fe12f7-0cee-4ecb-a28a-bef487295078"
        }
      }
    },
    {
      "fullUrl": "urn:uuid:54d1c4ab-73f9-448d-834a-a2bdabeab063",
      "resource": {
        "resourceType": "Observation",
        "id": "54d1c4ab-73f9-448d-834a-a2bdabeab063",
        "meta": {
          "profile": [
            "http://hl7.eu/fhir/laboratory/StructureDefinition/Observation-resultslab-eu-lab"
          ]
        },
        "performer": [
          {
            "display": "The Central European Lab"
          }
        ],
        "category": [
          {
            "coding": [
              {
                "system": "http://terminology.hl7.org/CodeSystem/observation-category",
                "code": "laboratory"
              }
            ]
          }
        ],
        "code": {
          "coding": [
            {
              "code": "5770-3",
              "system": "http://loinc.org",
              "display": "Bilirubin.total [Presence] in Urine by Test strip"
            }
          ],
          "text": "Bilirubin.total [Presence] in Urine by Test strip"
        },
        "text": {
          "status": "generated",
          "div": "<div xmlns=\"http://www.w3.org/1999/xhtml\"><table class=\"hl7__eu__lab__report\"><tr><th>Test</th><th>25-Jun-2024</th><th>Reference&#xA0;Range</th><th>Unit</th></tr><tr><td>Bilirubin.total [Presence] in Urine by Test strip</td></tr></table></div>"
        },
        "status": "final",
        "subject": {
          "reference": "urn:uuid:559876b2-3d21-4780-aca5-9482d0086a4e",
          "display": "Meaghan Neary"
        },
        "effectiveDateTime": "2024-06-24T22:11:04Z",
        "specimen": {
          "reference": "urn:uuid:e7fe12f7-0cee-4ecb-a28a-bef487295078"
        }
      }
    },
    {
      "fullUrl": "urn:uuid:194c6ec3-5264-4fa4-a645-9cee80483d67",
      "resource": {
        "resourceType": "Observation",
        "id": "194c6ec3-5264-4fa4-a645-9cee80483d67",
        "meta": {
          "profile": [
            "http://hl7.eu/fhir/laboratory/StructureDefinition/Observation-resultslab-eu-lab"
          ]
        },
        "performer": [
          {
            "display": "The Central European Lab"
          }
        ],
        "category": [
          {
            "coding": [
              {
                "system": "http://terminology.hl7.org/CodeSystem/observation-category",
                "code": "laboratory"
              }
            ]
          }
        ],
        "code": {
          "coding": [
            {
              "code": "5797-6",
              "system": "http://loinc.org",
              "display": "Ketones [Mass/volume] in Urine by Test strip"
            }
          ],
          "text": "Ketones [Mass/volume] in Urine by Test strip"
        },
        "valueQuantity": {
          "system": "http://unitsofmeasure.org",
          "value": 8.3,
          "unit": "mg/dL",
          "code": "mg/dL"
        },
        "referenceRange": [
          {
            "low": {
              "value": 0,
              "code": "mg/dL",
              "system": "http://unitsofmeasure.org"
            }
          },
          {
            "high": {
              "value": 4,
              "code": "mg/dL",
              "system": "http://unitsofmeasure.org"
            }
          }
        ],
        "interpretation": [
          {
            "coding": [
              {
                "code": "H",
                "system": "http://terminology.hl7.org/CodeSystem/v3-ObservationInterpretation",
                "display": "High"
              }
            ]
          }
        ],
        "text": {
          "status": "generated",
          "div": "<div xmlns=\"http://www.w3.org/1999/xhtml\"><table class=\"hl7__eu__lab__report\"><tr><th>Test</th><th>25-Jun-2024</th><th>Reference&#xA0;Range</th><th>Unit</th></tr><tr><td>Ketones [Mass/volume] in Urine by Test strip</td><td>8.3</td><td>0 - 4</td><td>H</td><td>mg/dL</td></tr></table></div>"
        },
        "status": "final",
        "subject": {
          "reference": "urn:uuid:559876b2-3d21-4780-aca5-9482d0086a4e",
          "display": "Meaghan Neary"
        },
        "effectiveDateTime": "2024-06-24T22:11:04Z",
        "specimen": {
          "reference": "urn:uuid:e7fe12f7-0cee-4ecb-a28a-bef487295078"
        }
      }
    },
    {
      "fullUrl": "urn:uuid:c1cdad53-fcd9-440b-88de-ff48b5c634b5",
      "resource": {
        "resourceType": "Observation",
        "id": "c1cdad53-fcd9-440b-88de-ff48b5c634b5",
        "meta": {
          "profile": [
            "http://hl7.eu/fhir/laboratory/StructureDefinition/Observation-resultslab-eu-lab"
          ]
        },
        "performer": [
          {
            "display": "The Central European Lab"
          }
        ],
        "category": [
          {
            "coding": [
              {
                "system": "http://terminology.hl7.org/CodeSystem/observation-category",
                "code": "laboratory"
              }
            ]
          }
        ],
        "code": {
          "coding": [
            {
              "code": "2514-8",
              "system": "http://loinc.org",
              "display": "Ketones [Presence] in Urine by Test strip"
            }
          ],
          "text": "Ketones [Presence] in Urine by Test strip"
        },
        "text": {
          "status": "generated",
          "div": "<div xmlns=\"http://www.w3.org/1999/xhtml\"><table class=\"hl7__eu__lab__report\"><tr><th>Test</th><th>25-Jun-2024</th><th>Reference&#xA0;Range</th><th>Unit</th></tr><tr><td>Ketones [Presence] in Urine by Test strip</td></tr></table></div>"
        },
        "status": "final",
        "subject": {
          "reference": "urn:uuid:559876b2-3d21-4780-aca5-9482d0086a4e",
          "display": "Meaghan Neary"
        },
        "effectiveDateTime": "2024-06-24T22:11:04Z",
        "specimen": {
          "reference": "urn:uuid:e7fe12f7-0cee-4ecb-a28a-bef487295078"
        }
      }
    },
    {
      "fullUrl": "urn:uuid:70c38eb7-86a5-448d-ab9e-fd4c6fad4848",
      "resource": {
        "resourceType": "Observation",
        "id": "70c38eb7-86a5-448d-ab9e-fd4c6fad4848",
        "meta": {
          "profile": [
            "http://hl7.eu/fhir/laboratory/StructureDefinition/Observation-resultslab-eu-lab"
          ]
        },
        "performer": [
          {
            "display": "The Central European Lab"
          }
        ],
        "category": [
          {
            "coding": [
              {
                "system": "http://terminology.hl7.org/CodeSystem/observation-category",
                "code": "laboratory"
              }
            ]
          }
        ],
        "code": {
          "coding": [
            {
              "code": "5811-5",
              "system": "http://loinc.org",
              "display": "Specific gravity of Urine by Test strip"
            }
          ],
          "text": "Specific gravity of Urine by Test strip"
        },
        "valueQuantity": {
          "system": "http://unitsofmeasure.org",
          "value": 1,
          "unit": "{nominal}",
          "code": "{nominal}"
        },
        "referenceRange": [
          {
            "low": {
              "value": 1.005,
              "code": "g/mL",
              "system": "http://unitsofmeasure.org"
            }
          },
          {
            "high": {
              "value": 1.03,
              "code": "g/mL",
              "system": "http://unitsofmeasure.org"
            }
          }
        ],
        "interpretation": [
          {
            "coding": [
              {
                "code": "L",
                "system": "http://terminology.hl7.org/CodeSystem/v3-ObservationInterpretation",
                "display": "Low"
              }
            ]
          }
        ],
        "text": {
          "status": "generated",
          "div": "<div xmlns=\"http://www.w3.org/1999/xhtml\"><table class=\"hl7__eu__lab__report\"><tr><th>Test</th><th>25-Jun-2024</th><th>Reference&#xA0;Range</th><th>Unit</th></tr><tr><td>Specific gravity of Urine by Test strip</td><td>1.0</td><td>1.005 - 1.03</td><td>L</td><td>{nominal}</td></tr></table></div>"
        },
        "status": "final",
        "subject": {
          "reference": "urn:uuid:559876b2-3d21-4780-aca5-9482d0086a4e",
          "display": "Meaghan Neary"
        },
        "effectiveDateTime": "2024-06-24T22:11:04Z",
        "specimen": {
          "reference": "urn:uuid:e7fe12f7-0cee-4ecb-a28a-bef487295078"
        }
      }
    },
    {
      "fullUrl": "urn:uuid:910fc6d9-952b-4af1-8b1b-991d21f3c116",
      "resource": {
        "resourceType": "Observation",
        "id": "910fc6d9-952b-4af1-8b1b-991d21f3c116",
        "meta": {
          "profile": [
            "http://hl7.eu/fhir/laboratory/StructureDefinition/Observation-resultslab-eu-lab"
          ]
        },
        "performer": [
          {
            "display": "The Central European Lab"
          }
        ],
        "category": [
          {
            "coding": [
              {
                "system": "http://terminology.hl7.org/CodeSystem/observation-category",
                "code": "laboratory"
              }
            ]
          }
        ],
        "code": {
          "coding": [
            {
              "code": "5803-2",
              "system": "http://loinc.org",
              "display": "pH of Urine by Test strip"
            }
          ],
          "text": "pH of Urine by Test strip"
        },
        "valueQuantity": {
          "system": "http://unitsofmeasure.org",
          "value": 5.4,
          "unit": "pH",
          "code": "pH"
        },
        "referenceRange": [
          {
            "low": {
              "value": 4.6,
              "code": "pH",
              "system": "http://unitsofmeasure.org"
            }
          },
          {
            "high": {
              "value": 7,
              "code": "pH",
              "system": "http://unitsofmeasure.org"
            }
          }
        ],
        "text": {
          "status": "generated",
          "div": "<div xmlns=\"http://www.w3.org/1999/xhtml\"><table class=\"hl7__eu__lab__report\"><tr><th>Test</th><th>25-Jun-2024</th><th>Reference&#xA0;Range</th><th>Unit</th></tr><tr><td>pH of Urine by Test strip</td><td>5.4</td><td>4.6 - 7</td><td></td><td>pH</td></tr></table></div>"
        },
        "status": "final",
        "subject": {
          "reference": "urn:uuid:559876b2-3d21-4780-aca5-9482d0086a4e",
          "display": "Meaghan Neary"
        },
        "effectiveDateTime": "2024-06-24T22:11:04Z",
        "specimen": {
          "reference": "urn:uuid:e7fe12f7-0cee-4ecb-a28a-bef487295078"
        }
      }
    },
    {
      "fullUrl": "urn:uuid:a8b9648f-086a-438a-8db1-658f2b1abec6",
      "resource": {
        "resourceType": "Observation",
        "id": "a8b9648f-086a-438a-8db1-658f2b1abec6",
        "meta": {
          "profile": [
            "http://hl7.eu/fhir/laboratory/StructureDefinition/Observation-resultslab-eu-lab"
          ]
        },
        "performer": [
          {
            "display": "The Central European Lab"
          }
        ],
        "category": [
          {
            "coding": [
              {
                "system": "http://terminology.hl7.org/CodeSystem/observation-category",
                "code": "laboratory"
              }
            ]
          }
        ],
        "code": {
          "coding": [
            {
              "code": "5804-0",
              "system": "http://loinc.org",
              "display": "Protein [Mass/volume] in Urine by Test strip"
            }
          ],
          "text": "Protein [Mass/volume] in Urine by Test strip"
        },
        "valueQuantity": {
          "system": "http://unitsofmeasure.org",
          "value": 300.4,
          "unit": "mg/dL",
          "code": "mg/dL"
        },
        "referenceRange": [
          {
            "low": {
              "value": 0,
              "code": "mg/dL",
              "system": "http://unitsofmeasure.org"
            }
          },
          {
            "high": {
              "value": 14,
              "code": "mg/dL",
              "system": "http://unitsofmeasure.org"
            }
          }
        ],
        "interpretation": [
          {
            "coding": [
              {
                "code": "H",
                "system": "http://terminology.hl7.org/CodeSystem/v3-ObservationInterpretation",
                "display": "High"
              }
            ]
          }
        ],
        "text": {
          "status": "generated",
          "div": "<div xmlns=\"http://www.w3.org/1999/xhtml\"><table class=\"hl7__eu__lab__report\"><tr><th>Test</th><th>25-Jun-2024</th><th>Reference&#xA0;Range</th><th>Unit</th></tr><tr><td>Protein [Mass/volume] in Urine by Test strip</td><td>300.4</td><td>0 - 14</td><td>H</td><td>mg/dL</td></tr></table></div>"
        },
        "status": "final",
        "subject": {
          "reference": "urn:uuid:559876b2-3d21-4780-aca5-9482d0086a4e",
          "display": "Meaghan Neary"
        },
        "effectiveDateTime": "2024-06-24T22:11:04Z",
        "specimen": {
          "reference": "urn:uuid:e7fe12f7-0cee-4ecb-a28a-bef487295078"
        }
      }
    },
    {
      "fullUrl": "urn:uuid:20a9b00f-72c9-498e-8fa1-6169ece57749",
      "resource": {
        "resourceType": "Observation",
        "id": "20a9b00f-72c9-498e-8fa1-6169ece57749",
        "meta": {
          "profile": [
            "http://hl7.eu/fhir/laboratory/StructureDefinition/Observation-resultslab-eu-lab"
          ]
        },
        "performer": [
          {
            "display": "The Central European Lab"
          }
        ],
        "category": [
          {
            "coding": [
              {
                "system": "http://terminology.hl7.org/CodeSystem/observation-category",
                "code": "laboratory"
              }
            ]
          }
        ],
        "code": {
          "coding": [
            {
              "code": "20454-5",
              "system": "http://loinc.org",
              "display": "Protein [Presence] in Urine by Test strip"
            }
          ],
          "text": "Protein [Presence] in Urine by Test strip"
        },
        "text": {
          "status": "generated",
          "div": "<div xmlns=\"http://www.w3.org/1999/xhtml\"><table class=\"hl7__eu__lab__report\"><tr><th>Test</th><th>25-Jun-2024</th><th>Reference&#xA0;Range</th><th>Unit</th></tr><tr><td>Protein [Presence] in Urine by Test strip</td></tr></table></div>"
        },
        "status": "final",
        "subject": {
          "reference": "urn:uuid:559876b2-3d21-4780-aca5-9482d0086a4e",
          "display": "Meaghan Neary"
        },
        "effectiveDateTime": "2024-06-24T22:11:04Z",
        "specimen": {
          "reference": "urn:uuid:e7fe12f7-0cee-4ecb-a28a-bef487295078"
        }
      }
    },
    {
      "fullUrl": "urn:uuid:77506480-fe1e-47c4-8f8a-9f01273cf9d5",
      "resource": {
        "resourceType": "Observation",
        "id": "77506480-fe1e-47c4-8f8a-9f01273cf9d5",
        "meta": {
          "profile": [
            "http://hl7.eu/fhir/laboratory/StructureDefinition/Observation-resultslab-eu-lab"
          ]
        },
        "performer": [
          {
            "display": "The Central European Lab"
          }
        ],
        "category": [
          {
            "coding": [
              {
                "system": "http://terminology.hl7.org/CodeSystem/observation-category",
                "code": "laboratory"
              }
            ]
          }
        ],
        "code": {
          "coding": [
            {
              "code": "5802-4",
              "system": "http://loinc.org",
              "display": "Nitrite [Presence] in Urine by Test strip"
            }
          ],
          "text": "Nitrite [Presence] in Urine by Test strip"
        },
        "text": {
          "status": "generated",
          "div": "<div xmlns=\"http://www.w3.org/1999/xhtml\"><table class=\"hl7__eu__lab__report\"><tr><th>Test</th><th>25-Jun-2024</th><th>Reference&#xA0;Range</th><th>Unit</th></tr><tr><td>Nitrite [Presence] in Urine by Test strip</td></tr></table></div>"
        },
        "status": "final",
        "subject": {
          "reference": "urn:uuid:559876b2-3d21-4780-aca5-9482d0086a4e",
          "display": "Meaghan Neary"
        },
        "effectiveDateTime": "2024-06-24T22:11:04Z",
        "specimen": {
          "reference": "urn:uuid:e7fe12f7-0cee-4ecb-a28a-bef487295078"
        }
      }
    },
    {
      "fullUrl": "urn:uuid:284ad45c-dfb4-4523-af56-855a5677f416",
      "resource": {
        "resourceType": "Observation",
        "id": "284ad45c-dfb4-4523-af56-855a5677f416",
        "meta": {
          "profile": [
            "http://hl7.eu/fhir/laboratory/StructureDefinition/Observation-resultslab-eu-lab"
          ]
        },
        "performer": [
          {
            "display": "The Central European Lab"
          }
        ],
        "category": [
          {
            "coding": [
              {
                "system": "http://terminology.hl7.org/CodeSystem/observation-category",
                "code": "laboratory"
              }
            ]
          }
        ],
        "code": {
          "coding": [
            {
              "code": "5794-3",
              "system": "http://loinc.org",
              "display": "Hemoglobin [Presence] in Urine by Test strip"
            }
          ],
          "text": "Hemoglobin [Presence] in Urine by Test strip"
        },
        "text": {
          "status": "generated",
          "div": "<div xmlns=\"http://www.w3.org/1999/xhtml\"><table class=\"hl7__eu__lab__report\"><tr><th>Test</th><th>25-Jun-2024</th><th>Reference&#xA0;Range</th><th>Unit</th></tr><tr><td>Hemoglobin [Presence] in Urine by Test strip</td></tr></table></div>"
        },
        "status": "final",
        "subject": {
          "reference": "urn:uuid:559876b2-3d21-4780-aca5-9482d0086a4e",
          "display": "Meaghan Neary"
        },
        "effectiveDateTime": "2024-06-24T22:11:04Z",
        "specimen": {
          "reference": "urn:uuid:e7fe12f7-0cee-4ecb-a28a-bef487295078"
        }
      }
    },
    {
      "fullUrl": "urn:uuid:3b38a55f-05b3-4b76-8df7-40996b2399fe",
      "resource": {
        "resourceType": "Observation",
        "id": "3b38a55f-05b3-4b76-8df7-40996b2399fe",
        "meta": {
          "profile": [
            "http://hl7.eu/fhir/laboratory/StructureDefinition/Observation-resultslab-eu-lab"
          ]
        },
        "performer": [
          {
            "display": "The Central European Lab"
          }
        ],
        "category": [
          {
            "coding": [
              {
                "system": "http://terminology.hl7.org/CodeSystem/observation-category",
                "code": "laboratory"
              }
            ]
          }
        ],
        "code": {
          "coding": [
            {
              "code": "5799-2",
              "system": "http://loinc.org",
              "display": "Leukocyte esterase [Presence] in Urine by Test strip"
            }
          ],
          "text": "Leukocyte esterase [Presence] in Urine by Test strip"
        },
        "text": {
          "status": "generated",
          "div": "<div xmlns=\"http://www.w3.org/1999/xhtml\"><table class=\"hl7__eu__lab__report\"><tr><th>Test</th><th>25-Jun-2024</th><th>Reference&#xA0;Range</th><th>Unit</th></tr><tr><td>Leukocyte esterase [Presence] in Urine by Test strip</td></tr></table></div>"
        },
        "status": "final",
        "subject": {
          "reference": "urn:uuid:559876b2-3d21-4780-aca5-9482d0086a4e",
          "display": "Meaghan Neary"
        },
        "effectiveDateTime": "2024-06-24T22:11:04Z",
        "specimen": {
          "reference": "urn:uuid:e7fe12f7-0cee-4ecb-a28a-bef487295078"
        }
      }
    },
    {
      "fullUrl": "urn:uuid:bdf6d3e6-f2e2-46dd-99ca-7620beacb839",
      "resource": {
        "resourceType": "Observation",
        "id": "bdf6d3e6-f2e2-46dd-99ca-7620beacb839",
        "meta": {
          "profile": [
            "http://hl7.eu/fhir/laboratory/StructureDefinition/Observation-resultslab-eu-lab"
          ]
        },
        "performer": [
          {
            "display": "The Central European Lab"
          }
        ],
        "category": [
          {
            "coding": [
              {
                "system": "http://terminology.hl7.org/CodeSystem/observation-category",
                "code": "laboratory"
              }
            ]
          }
        ],
        "code": {
          "coding": [
            {
              "code": "4548-4",
              "system": "http://loinc.org",
              "display": "Hemoglobin A1c/Hemoglobin.total in Blood"
            }
          ],
          "text": "Hemoglobin A1c/Hemoglobin.total in Blood"
        },
        "valueQuantity": {
          "system": "http://unitsofmeasure.org",
          "value": 4,
          "unit": "%",
          "code": "%"
        },
        "referenceRange": [
          {
            "low": {
              "value": 4,
              "code": "%",
              "system": "http://unitsofmeasure.org"
            }
          },
          {
            "high": {
              "value": 6.4,
              "code": "%",
              "system": "http://unitsofmeasure.org"
            }
          }
        ],
        "text": {
          "status": "generated",
          "div": "<div xmlns=\"http://www.w3.org/1999/xhtml\"><table class=\"hl7__eu__lab__report\"><tr><th>Test</th><th>25-Jun-2024</th><th>Reference&#xA0;Range</th><th>Unit</th></tr><tr><td>Hemoglobin A1c/Hemoglobin.total in Blood</td><td>4.0</td><td>4 - 6.4</td><td></td><td>%</td></tr></table></div>"
        },
        "status": "final",
        "subject": {
          "reference": "urn:uuid:559876b2-3d21-4780-aca5-9482d0086a4e",
          "display": "Meaghan Neary"
        },
        "effectiveDateTime": "2024-06-24T22:11:04Z",
        "specimen": {
          "reference": "urn:uuid:ab4059e3-d9b8-45b6-a0a2-adb44b30667e"
        }
      }
    },
    {
      "fullUrl": "urn:uuid:eb7b388f-b3e5-4e10-9b26-d821bed59251",
      "resource": {
        "resourceType": "Observation",
        "id": "eb7b388f-b3e5-4e10-9b26-d821bed59251",
        "meta": {
          "profile": [
            "http://hl7.eu/fhir/laboratory/StructureDefinition/Observation-resultslab-eu-lab"
          ]
        },
        "performer": [
          {
            "display": "The Central European Lab"
          }
        ],
        "category": [
          {
            "coding": [
              {
                "system": "http://terminology.hl7.org/CodeSystem/observation-category",
                "code": "laboratory"
              }
            ]
          }
        ],
        "code": {
          "coding": [
            {
              "code": "2093-3",
              "system": "http://loinc.org",
              "display": "Cholesterol [Mass/volume] in Serum or Plasma"
            }
          ],
          "text": "Cholesterol [Mass/volume] in Serum or Plasma"
        },
        "valueQuantity": {
          "system": "http://unitsofmeasure.org",
          "value": 258.5,
          "unit": "mg/dL",
          "code": "mg/dL"
        },
        "referenceRange": [
          {
            "low": {
              "value": 125,
              "code": "mg/dL",
              "system": "http://unitsofmeasure.org"
            }
          },
          {
            "high": {
              "value": 239,
              "code": "mg/dL",
              "system": "http://unitsofmeasure.org"
            }
          }
        ],
        "interpretation": [
          {
            "coding": [
              {
                "code": "H",
                "system": "http://terminology.hl7.org/CodeSystem/v3-ObservationInterpretation",
                "display": "High"
              }
            ]
          }
        ],
        "text": {
          "status": "generated",
          "div": "<div xmlns=\"http://www.w3.org/1999/xhtml\"><table class=\"hl7__eu__lab__report\"><tr><th>Test</th><th>25-Jun-2024</th><th>Reference&#xA0;Range</th><th>Unit</th></tr><tr><td>Cholesterol [Mass/volume] in Serum or Plasma</td><td>258.5</td><td>125 - 239</td><td>H</td><td>mg/dL</td></tr></table></div>"
        },
        "status": "final",
        "subject": {
          "reference": "urn:uuid:559876b2-3d21-4780-aca5-9482d0086a4e",
          "display": "Meaghan Neary"
        },
        "effectiveDateTime": "2024-06-24T22:11:04Z",
        "specimen": {
          "reference": "urn:uuid:7102b4ca-2e86-4e19-bfcd-4b7a699396a1"
        }
      }
    },
    {
      "fullUrl": "urn:uuid:4791d8f0-9b73-4d65-b67b-8ef04a6cf3d7",
      "resource": {
        "resourceType": "Observation",
        "id": "4791d8f0-9b73-4d65-b67b-8ef04a6cf3d7",
        "meta": {
          "profile": [
            "http://hl7.eu/fhir/laboratory/StructureDefinition/Observation-resultslab-eu-lab"
          ]
        },
        "performer": [
          {
            "display": "The Central European Lab"
          }
        ],
        "category": [
          {
            "coding": [
              {
                "system": "http://terminology.hl7.org/CodeSystem/observation-category",
                "code": "laboratory"
              }
            ]
          }
        ],
        "code": {
          "coding": [
            {
              "code": "2571-8",
              "system": "http://loinc.org",
              "display": "Triglyceride [Mass/volume] in Serum or Plasma"
            }
          ],
          "text": "Triglyceride [Mass/volume] in Serum or Plasma"
        },
        "valueQuantity": {
          "system": "http://unitsofmeasure.org",
          "value": 188.7,
          "unit": "mg/dL",
          "code": "mg/dL"
        },
        "text": {
          "status": "generated",
          "div": "<div xmlns=\"http://www.w3.org/1999/xhtml\"><table class=\"hl7__eu__lab__report\"><tr><th>Test</th><th>25-Jun-2024</th><th>Reference&#xA0;Range</th><th>Unit</th></tr><tr><td>Triglyceride [Mass/volume] in Serum or Plasma</td><td>188.7</td><td>mg/dL</td></tr></table></div>"
        },
        "status": "final",
        "subject": {
          "reference": "urn:uuid:559876b2-3d21-4780-aca5-9482d0086a4e",
          "display": "Meaghan Neary"
        },
        "effectiveDateTime": "2024-06-24T22:11:04Z",
        "specimen": {
          "reference": "urn:uuid:7102b4ca-2e86-4e19-bfcd-4b7a699396a1"
        }
      }
    },
    {
      "fullUrl": "urn:uuid:cfb48c22-14e7-4f64-94b2-904175c1045c",
      "resource": {
        "resourceType": "Observation",
        "id": "cfb48c22-14e7-4f64-94b2-904175c1045c",
        "meta": {
          "profile": [
            "http://hl7.eu/fhir/laboratory/StructureDefinition/Observation-resultslab-eu-lab"
          ]
        },
        "performer": [
          {
            "display": "The Central European Lab"
          }
        ],
        "category": [
          {
            "coding": [
              {
                "system": "http://terminology.hl7.org/CodeSystem/observation-category",
                "code": "laboratory"
              }
            ]
          }
        ],
        "code": {
          "coding": [
            {
              "code": "18262-6",
              "system": "http://loinc.org",
              "display": "Cholesterol in LDL [Mass/volume] in Serum or Plasma by Direct assay"
            }
          ],
          "text": "Cholesterol in LDL [Mass/volume] in Serum or Plasma by Direct assay"
        },
        "valueQuantity": {
          "system": "http://unitsofmeasure.org",
          "value": 121,
          "unit": "mg/dL",
          "code": "mg/dL"
        },
        "referenceRange": [
          {
            "low": {
              "value": 0,
              "code": "mg/dL",
              "system": "http://unitsofmeasure.org"
            }
          },
          {
            "high": {
              "value": 130,
              "code": "mg/dL",
              "system": "http://unitsofmeasure.org"
            }
          }
        ],
        "text": {
          "status": "generated",
          "div": "<div xmlns=\"http://www.w3.org/1999/xhtml\"><table class=\"hl7__eu__lab__report\"><tr><th>Test</th><th>25-Jun-2024</th><th>Reference&#xA0;Range</th><th>Unit</th></tr><tr><td>Cholesterol in LDL [Mass/volume] in Serum or Plasma by Direct assay</td><td>121.0</td><td>0 - 130</td><td></td><td>mg/dL</td></tr></table></div>"
        },
        "status": "final",
        "subject": {
          "reference": "urn:uuid:559876b2-3d21-4780-aca5-9482d0086a4e",
          "display": "Meaghan Neary"
        },
        "effectiveDateTime": "2024-06-24T22:11:04Z",
        "specimen": {
          "reference": "urn:uuid:7102b4ca-2e86-4e19-bfcd-4b7a699396a1"
        }
      }
    },
    {
      "fullUrl": "urn:uuid:6d51eea2-f360-48df-bbeb-c324b21f20ac",
      "resource": {
        "resourceType": "Observation",
        "id": "6d51eea2-f360-48df-bbeb-c324b21f20ac",
        "meta": {
          "profile": [
            "http://hl7.eu/fhir/laboratory/StructureDefinition/Observation-resultslab-eu-lab"
          ]
        },
        "performer": [
          {
            "display": "The Central European Lab"
          }
        ],
        "category": [
          {
            "coding": [
              {
                "system": "http://terminology.hl7.org/CodeSystem/observation-category",
                "code": "laboratory"
              }
            ]
          }
        ],
        "code": {
          "coding": [
            {
              "code": "2085-9",
              "system": "http://loinc.org",
              "display": "Cholesterol in HDL [Mass/volume] in Serum or Plasma"
            }
          ],
          "text": "Cholesterol in HDL [Mass/volume] in Serum or Plasma"
        },
        "valueQuantity": {
          "system": "http://unitsofmeasure.org",
          "value": 35.1,
          "unit": "mg/dL",
          "code": "mg/dL"
        },
        "referenceRange": [
          {
            "low": {
              "value": 50,
              "code": "mg/dL",
              "system": "http://unitsofmeasure.org"
            }
          },
          {
            "high": {
              "value": 100,
              "code": "mg/dL",
              "system": "http://unitsofmeasure.org"
            }
          }
        ],
        "interpretation": [
          {
            "coding": [
              {
                "code": "L",
                "system": "http://terminology.hl7.org/CodeSystem/v3-ObservationInterpretation",
                "display": "Low"
              }
            ]
          }
        ],
        "text": {
          "status": "generated",
          "div": "<div xmlns=\"http://www.w3.org/1999/xhtml\"><table class=\"hl7__eu__lab__report\"><tr><th>Test</th><th>25-Jun-2024</th><th>Reference&#xA0;Range</th><th>Unit</th></tr><tr><td>Cholesterol in HDL [Mass/volume] in Serum or Plasma</td><td>35.1</td><td>50 - 100</td><td>L</td><td>mg/dL</td></tr></table></div>"
        },
        "status": "final",
        "subject": {
          "reference": "urn:uuid:559876b2-3d21-4780-aca5-9482d0086a4e",
          "display": "Meaghan Neary"
        },
        "effectiveDateTime": "2024-06-24T22:11:04Z",
        "specimen": {
          "reference": "urn:uuid:7102b4ca-2e86-4e19-bfcd-4b7a699396a1"
        }
      }
    },
    {
      "fullUrl": "urn:uuid:14931f45-c616-4804-a530-d951e1804b1f",
      "resource": {
        "resourceType": "Observation",
        "id": "14931f45-c616-4804-a530-d951e1804b1f",
        "meta": {
          "profile": [
            "http://hl7.eu/fhir/laboratory/StructureDefinition/Observation-resultslab-eu-lab"
          ]
        },
        "performer": [
          {
            "display": "The Central European Lab"
          }
        ],
        "category": [
          {
            "coding": [
              {
                "system": "http://terminology.hl7.org/CodeSystem/observation-category",
                "code": "laboratory"
              }
            ]
          }
        ],
        "code": {
          "coding": [
            {
              "code": "2339-0",
              "system": "http://loinc.org",
              "display": "Glucose [Mass/volume] in Blood"
            }
          ],
          "text": "Glucose [Mass/volume] in Blood"
        },
        "valueQuantity": {
          "system": "http://unitsofmeasure.org",
          "value": 87.6,
          "unit": "mg/dL",
          "code": "mg/dL"
        },
        "referenceRange": [
          {
            "low": {
              "value": 70,
              "code": "mg/dL",
              "system": "http://unitsofmeasure.org"
            }
          },
          {
            "high": {
              "value": 100,
              "code": "mg/dL",
              "system": "http://unitsofmeasure.org"
            }
          }
        ],
        "text": {
          "status": "generated",
          "div": "<div xmlns=\"http://www.w3.org/1999/xhtml\"><table class=\"hl7__eu__lab__report\"><tr><th>Test</th><th>25-Jun-2024</th><th>Reference&#xA0;Range</th><th>Unit</th></tr><tr><td>Glucose [Mass/volume] in Blood</td><td>87.6</td><td>70 - 100</td><td></td><td>mg/dL</td></tr></table></div>"
        },
        "status": "final",
        "subject": {
          "reference": "urn:uuid:559876b2-3d21-4780-aca5-9482d0086a4e",
          "display": "Meaghan Neary"
        },
        "effectiveDateTime": "2024-06-24T22:11:04Z",
        "specimen": {
          "reference": "urn:uuid:ab4059e3-d9b8-45b6-a0a2-adb44b30667e"
        }
      }
    },
    {
      "fullUrl": "urn:uuid:cf28d04b-3d70-40c7-90e7-55492893b2b0",
      "resource": {
        "resourceType": "Observation",
        "id": "cf28d04b-3d70-40c7-90e7-55492893b2b0",
        "meta": {
          "profile": [
            "http://hl7.eu/fhir/laboratory/StructureDefinition/Observation-resultslab-eu-lab"
          ]
        },
        "performer": [
          {
            "display": "The Central European Lab"
          }
        ],
        "category": [
          {
            "coding": [
              {
                "system": "http://terminology.hl7.org/CodeSystem/observation-category",
                "code": "laboratory"
              }
            ]
          }
        ],
        "code": {
          "coding": [
            {
              "code": "6299-2",
              "system": "http://loinc.org",
              "display": "Urea nitrogen [Mass/volume] in Blood"
            }
          ],
          "text": "Urea nitrogen [Mass/volume] in Blood"
        },
        "valueQuantity": {
          "system": "http://unitsofmeasure.org",
          "value": 11.8,
          "unit": "mg/dL",
          "code": "mg/dL"
        },
        "referenceRange": [
          {
            "low": {
              "value": 7,
              "code": "mg/dL",
              "system": "http://unitsofmeasure.org"
            }
          },
          {
            "high": {
              "value": 43,
              "code": "mg/dL",
              "system": "http://unitsofmeasure.org"
            }
          }
        ],
        "text": {
          "status": "generated",
          "div": "<div xmlns=\"http://www.w3.org/1999/xhtml\"><table class=\"hl7__eu__lab__report\"><tr><th>Test</th><th>25-Jun-2024</th><th>Reference&#xA0;Range</th><th>Unit</th></tr><tr><td>Urea nitrogen [Mass/volume] in Blood</td><td>11.8</td><td>7 - 43</td><td></td><td>mg/dL</td></tr></table></div>"
        },
        "status": "final",
        "subject": {
          "reference": "urn:uuid:559876b2-3d21-4780-aca5-9482d0086a4e",
          "display": "Meaghan Neary"
        },
        "effectiveDateTime": "2024-06-24T22:11:04Z",
        "specimen": {
          "reference": "urn:uuid:ab4059e3-d9b8-45b6-a0a2-adb44b30667e"
        }
      }
    },
    {
      "fullUrl": "urn:uuid:1a617bf9-dc4b-4588-8b17-eefe0efc396d",
      "resource": {
        "resourceType": "Observation",
        "id": "1a617bf9-dc4b-4588-8b17-eefe0efc396d",
        "meta": {
          "profile": [
            "http://hl7.eu/fhir/laboratory/StructureDefinition/Observation-resultslab-eu-lab"
          ]
        },
        "performer": [
          {
            "display": "The Central European Lab"
          }
        ],
        "category": [
          {
            "coding": [
              {
                "system": "http://terminology.hl7.org/CodeSystem/observation-category",
                "code": "laboratory"
              }
            ]
          }
        ],
        "code": {
          "coding": [
            {
              "code": "38483-4",
              "system": "http://loinc.org",
              "display": "Creatinine [Mass/volume] in Blood"
            }
          ],
          "text": "Creatinine [Mass/volume] in Blood"
        },
        "valueQuantity": {
          "system": "http://unitsofmeasure.org",
          "value": 2.7,
          "unit": "mg/dL",
          "code": "mg/dL"
        },
        "referenceRange": [
          {
            "low": {
              "value": 0.6,
              "code": "mg/dL",
              "system": "http://unitsofmeasure.org"
            }
          },
          {
            "high": {
              "value": 1.1,
              "code": "mg/dL",
              "system": "http://unitsofmeasure.org"
            }
          }
        ],
        "interpretation": [
          {
            "coding": [
              {
                "code": "H",
                "system": "http://terminology.hl7.org/CodeSystem/v3-ObservationInterpretation",
                "display": "High"
              }
            ]
          }
        ],
        "text": {
          "status": "generated",
          "div": "<div xmlns=\"http://www.w3.org/1999/xhtml\"><table class=\"hl7__eu__lab__report\"><tr><th>Test</th><th>25-Jun-2024</th><th>Reference&#xA0;Range</th><th>Unit</th></tr><tr><td>Creatinine [Mass/volume] in Blood</td><td>2.7</td><td>0.6 - 1.1</td><td>H</td><td>mg/dL</td></tr></table></div>"
        },
        "status": "final",
        "subject": {
          "reference": "urn:uuid:559876b2-3d21-4780-aca5-9482d0086a4e",
          "display": "Meaghan Neary"
        },
        "effectiveDateTime": "2024-06-24T22:11:04Z",
        "specimen": {
          "reference": "urn:uuid:ab4059e3-d9b8-45b6-a0a2-adb44b30667e"
        }
      }
    },
    {
      "fullUrl": "urn:uuid:da662a8c-e66c-42c8-817c-ce377ff6d0eb",
      "resource": {
        "resourceType": "Observation",
        "id": "da662a8c-e66c-42c8-817c-ce377ff6d0eb",
        "meta": {
          "profile": [
            "http://hl7.eu/fhir/laboratory/StructureDefinition/Observation-resultslab-eu-lab"
          ]
        },
        "performer": [
          {
            "display": "The Central European Lab"
          }
        ],
        "category": [
          {
            "coding": [
              {
                "system": "http://terminology.hl7.org/CodeSystem/observation-category",
                "code": "laboratory"
              }
            ]
          }
        ],
        "code": {
          "coding": [
            {
              "code": "49765-1",
              "system": "http://loinc.org",
              "display": "Calcium [Mass/volume] in Blood"
            }
          ],
          "text": "Calcium [Mass/volume] in Blood"
        },
        "valueQuantity": {
          "system": "http://unitsofmeasure.org",
          "value": 9.1,
          "unit": "mg/dL",
          "code": "mg/dL"
        },
        "referenceRange": [
          {
            "low": {
              "value": 8.5,
              "code": "mg/dL",
              "system": "http://unitsofmeasure.org"
            }
          },
          {
            "high": {
              "value": 10.5,
              "code": "mg/dL",
              "system": "http://unitsofmeasure.org"
            }
          }
        ],
        "text": {
          "status": "generated",
          "div": "<div xmlns=\"http://www.w3.org/1999/xhtml\"><table class=\"hl7__eu__lab__report\"><tr><th>Test</th><th>25-Jun-2024</th><th>Reference&#xA0;Range</th><th>Unit</th></tr><tr><td>Calcium [Mass/volume] in Blood</td><td>9.1</td><td>8.5 - 10.5</td><td></td><td>mg/dL</td></tr></table></div>"
        },
        "status": "final",
        "subject": {
          "reference": "urn:uuid:559876b2-3d21-4780-aca5-9482d0086a4e",
          "display": "Meaghan Neary"
        },
        "effectiveDateTime": "2024-06-24T22:11:04Z",
        "specimen": {
          "reference": "urn:uuid:ab4059e3-d9b8-45b6-a0a2-adb44b30667e"
        }
      }
    },
    {
      "fullUrl": "urn:uuid:fd4a715f-8cce-49e5-b039-212dcdc39b60",
      "resource": {
        "resourceType": "Observation",
        "id": "fd4a715f-8cce-49e5-b039-212dcdc39b60",
        "meta": {
          "profile": [
            "http://hl7.eu/fhir/laboratory/StructureDefinition/Observation-resultslab-eu-lab"
          ]
        },
        "performer": [
          {
            "display": "The Central European Lab"
          }
        ],
        "category": [
          {
            "coding": [
              {
                "system": "http://terminology.hl7.org/CodeSystem/observation-category",
                "code": "laboratory"
              }
            ]
          }
        ],
        "code": {
          "coding": [
            {
              "code": "2947-0",
              "system": "http://loinc.org",
              "display": "Sodium [Moles/volume] in Blood"
            }
          ],
          "text": "Sodium [Moles/volume] in Blood"
        },
        "valueQuantity": {
          "system": "http://unitsofmeasure.org",
          "value": 140.5,
          "unit": "mmol/L",
          "code": "mmol/L"
        },
        "referenceRange": [
          {
            "low": {
              "value": 135,
              "code": "mmol/L",
              "system": "http://unitsofmeasure.org"
            }
          },
          {
            "high": {
              "value": 145,
              "code": "mmol/L",
              "system": "http://unitsofmeasure.org"
            }
          }
        ],
        "text": {
          "status": "generated",
          "div": "<div xmlns=\"http://www.w3.org/1999/xhtml\"><table class=\"hl7__eu__lab__report\"><tr><th>Test</th><th>25-Jun-2024</th><th>Reference&#xA0;Range</th><th>Unit</th></tr><tr><td>Sodium [Moles/volume] in Blood</td><td>140.5</td><td>135 - 145</td><td></td><td>mmol/L</td></tr></table></div>"
        },
        "status": "final",
        "subject": {
          "reference": "urn:uuid:559876b2-3d21-4780-aca5-9482d0086a4e",
          "display": "Meaghan Neary"
        },
        "effectiveDateTime": "2024-06-24T22:11:04Z",
        "specimen": {
          "reference": "urn:uuid:ab4059e3-d9b8-45b6-a0a2-adb44b30667e"
        }
      }
    },
    {
      "fullUrl": "urn:uuid:1adb6362-400a-4925-b00e-2c519d35c5b4",
      "resource": {
        "resourceType": "Observation",
        "id": "1adb6362-400a-4925-b00e-2c519d35c5b4",
        "meta": {
          "profile": [
            "http://hl7.eu/fhir/laboratory/StructureDefinition/Observation-resultslab-eu-lab"
          ]
        },
        "performer": [
          {
            "display": "The Central European Lab"
          }
        ],
        "category": [
          {
            "coding": [
              {
                "system": "http://terminology.hl7.org/CodeSystem/observation-category",
                "code": "laboratory"
              }
            ]
          }
        ],
        "code": {
          "coding": [
            {
              "code": "6298-4",
              "system": "http://loinc.org",
              "display": "Potassium [Moles/volume] in Blood"
            }
          ],
          "text": "Potassium [Moles/volume] in Blood"
        },
        "valueQuantity": {
          "system": "http://unitsofmeasure.org",
          "value": 3.9,
          "unit": "mmol/L",
          "code": "mmol/L"
        },
        "referenceRange": [
          {
            "low": {
              "value": 3.5,
              "code": "mmol/L",
              "system": "http://unitsofmeasure.org"
            }
          },
          {
            "high": {
              "value": 5.1,
              "code": "mmol/L",
              "system": "http://unitsofmeasure.org"
            }
          }
        ],
        "text": {
          "status": "generated",
          "div": "<div xmlns=\"http://www.w3.org/1999/xhtml\"><table class=\"hl7__eu__lab__report\"><tr><th>Test</th><th>25-Jun-2024</th><th>Reference&#xA0;Range</th><th>Unit</th></tr><tr><td>Potassium [Moles/volume] in Blood</td><td>3.9</td><td>3.5 - 5.1</td><td></td><td>mmol/L</td></tr></table></div>"
        },
        "status": "final",
        "subject": {
          "reference": "urn:uuid:559876b2-3d21-4780-aca5-9482d0086a4e",
          "display": "Meaghan Neary"
        },
        "effectiveDateTime": "2024-06-24T22:11:04Z",
        "specimen": {
          "reference": "urn:uuid:ab4059e3-d9b8-45b6-a0a2-adb44b30667e"
        }
      }
    },
    {
      "fullUrl": "urn:uuid:8e8f615b-dd6d-4746-b71c-a049f77a81b2",
      "resource": {
        "resourceType": "Observation",
        "id": "8e8f615b-dd6d-4746-b71c-a049f77a81b2",
        "meta": {
          "profile": [
            "http://hl7.eu/fhir/laboratory/StructureDefinition/Observation-resultslab-eu-lab"
          ]
        },
        "performer": [
          {
            "display": "The Central European Lab"
          }
        ],
        "category": [
          {
            "coding": [
              {
                "system": "http://terminology.hl7.org/CodeSystem/observation-category",
                "code": "laboratory"
              }
            ]
          }
        ],
        "code": {
          "coding": [
            {
              "code": "2069-3",
              "system": "http://loinc.org",
              "display": "Chloride [Moles/volume] in Blood"
            }
          ],
          "text": "Chloride [Moles/volume] in Blood"
        },
        "valueQuantity": {
          "system": "http://unitsofmeasure.org",
          "value": 101.1,
          "unit": "mmol/L",
          "code": "mmol/L"
        },
        "referenceRange": [
          {
            "low": {
              "value": 98,
              "code": "mmol/L",
              "system": "http://unitsofmeasure.org"
            }
          },
          {
            "high": {
              "value": 108,
              "code": "mmol/L",
              "system": "http://unitsofmeasure.org"
            }
          }
        ],
        "text": {
          "status": "generated",
          "div": "<div xmlns=\"http://www.w3.org/1999/xhtml\"><table class=\"hl7__eu__lab__report\"><tr><th>Test</th><th>25-Jun-2024</th><th>Reference&#xA0;Range</th><th>Unit</th></tr><tr><td>Chloride [Moles/volume] in Blood</td><td>101.1</td><td>98 - 108</td><td></td><td>mmol/L</td></tr></table></div>"
        },
        "status": "final",
        "subject": {
          "reference": "urn:uuid:559876b2-3d21-4780-aca5-9482d0086a4e",
          "display": "Meaghan Neary"
        },
        "effectiveDateTime": "2024-06-24T22:11:04Z",
        "specimen": {
          "reference": "urn:uuid:ab4059e3-d9b8-45b6-a0a2-adb44b30667e"
        }
      }
    },
    {
      "fullUrl": "urn:uuid:eb72b72b-6a9a-49f4-b0ed-9a353cfd34c4",
      "resource": {
        "resourceType": "Observation",
        "id": "eb72b72b-6a9a-49f4-b0ed-9a353cfd34c4",
        "meta": {
          "profile": [
            "http://hl7.eu/fhir/laboratory/StructureDefinition/Observation-resultslab-eu-lab"
          ]
        },
        "performer": [
          {
            "display": "The Central European Lab"
          }
        ],
        "category": [
          {
            "coding": [
              {
                "system": "http://terminology.hl7.org/CodeSystem/observation-category",
                "code": "laboratory"
              }
            ]
          }
        ],
        "code": {
          "coding": [
            {
              "code": "20565-8",
              "system": "http://loinc.org",
              "display": "Carbon dioxide, total [Moles/volume] in Blood"
            }
          ],
          "text": "Carbon dioxide, total [Moles/volume] in Blood"
        },
        "valueQuantity": {
          "system": "http://unitsofmeasure.org",
          "value": 21.7,
          "unit": "mmol/L",
          "code": "mmol/L"
        },
        "referenceRange": [
          {
            "low": {
              "value": 22,
              "code": "mmol/L",
              "system": "http://unitsofmeasure.org"
            }
          },
          {
            "high": {
              "value": 29,
              "code": "mmol/L",
              "system": "http://unitsofmeasure.org"
            }
          }
        ],
        "interpretation": [
          {
            "coding": [
              {
                "code": "L",
                "system": "http://terminology.hl7.org/CodeSystem/v3-ObservationInterpretation",
                "display": "Low"
              }
            ]
          }
        ],
        "text": {
          "status": "generated",
          "div": "<div xmlns=\"http://www.w3.org/1999/xhtml\"><table class=\"hl7__eu__lab__report\"><tr><th>Test</th><th>25-Jun-2024</th><th>Reference&#xA0;Range</th><th>Unit</th></tr><tr><td>Carbon dioxide, total [Moles/volume] in Blood</td><td>21.7</td><td>22 - 29</td><td>L</td><td>mmol/L</td></tr></table></div>"
        },
        "status": "final",
        "subject": {
          "reference": "urn:uuid:559876b2-3d21-4780-aca5-9482d0086a4e",
          "display": "Meaghan Neary"
        },
        "effectiveDateTime": "2024-06-24T22:11:04Z",
        "specimen": {
          "reference": "urn:uuid:ab4059e3-d9b8-45b6-a0a2-adb44b30667e"
        }
      }
    },
    {
      "fullUrl": "urn:uuid:a94ec797-91f7-4350-b2b2-976672ec5d79",
      "resource": {
        "resourceType": "Observation",
        "id": "a94ec797-91f7-4350-b2b2-976672ec5d79",
        "meta": {
          "profile": [
            "http://hl7.eu/fhir/laboratory/StructureDefinition/Observation-resultslab-eu-lab"
          ]
        },
        "performer": [
          {
            "display": "The Central European Lab"
          }
        ],
        "category": [
          {
            "coding": [
              {
                "system": "http://terminology.hl7.org/CodeSystem/observation-category",
                "code": "laboratory"
              }
            ]
          }
        ],
        "code": {
          "coding": [
            {
              "code": "2885-2",
              "system": "http://loinc.org",
              "display": "Protein [Mass/volume] in Serum or Plasma"
            }
          ],
          "text": "Protein [Mass/volume] in Serum or Plasma"
        },
        "valueQuantity": {
          "system": "http://unitsofmeasure.org",
          "value": 7.6,
          "unit": "g/dL",
          "code": "g/dL"
        },
        "referenceRange": [
          {
            "low": {
              "value": 6,
              "code": "g/dL",
              "system": "http://unitsofmeasure.org"
            }
          },
          {
            "high": {
              "value": 8.3,
              "code": "g/dL",
              "system": "http://unitsofmeasure.org"
            }
          }
        ],
        "text": {
          "status": "generated",
          "div": "<div xmlns=\"http://www.w3.org/1999/xhtml\"><table class=\"hl7__eu__lab__report\"><tr><th>Test</th><th>25-Jun-2024</th><th>Reference&#xA0;Range</th><th>Unit</th></tr><tr><td>Protein [Mass/volume] in Serum or Plasma</td><td>7.6</td><td>6 - 8.3</td><td></td><td>g/dL</td></tr></table></div>"
        },
        "status": "final",
        "subject": {
          "reference": "urn:uuid:559876b2-3d21-4780-aca5-9482d0086a4e",
          "display": "Meaghan Neary"
        },
        "effectiveDateTime": "2024-06-24T22:11:04Z",
        "specimen": {
          "reference": "urn:uuid:7102b4ca-2e86-4e19-bfcd-4b7a699396a1"
        }
      }
    },
    {
      "fullUrl": "urn:uuid:9c0c0556-6f52-4504-ba7c-eada668cd33e",
      "resource": {
        "resourceType": "Observation",
        "id": "9c0c0556-6f52-4504-ba7c-eada668cd33e",
        "meta": {
          "profile": [
            "http://hl7.eu/fhir/laboratory/StructureDefinition/Observation-resultslab-eu-lab"
          ]
        },
        "performer": [
          {
            "display": "The Central European Lab"
          }
        ],
        "category": [
          {
            "coding": [
              {
                "system": "http://terminology.hl7.org/CodeSystem/observation-category",
                "code": "laboratory"
              }
            ]
          }
        ],
        "code": {
          "coding": [
            {
              "code": "1751-7",
              "system": "http://loinc.org",
              "display": "Albumin [Mass/volume] in Serum or Plasma"
            }
          ],
          "text": "Albumin [Mass/volume] in Serum or Plasma"
        },
        "valueQuantity": {
          "system": "http://unitsofmeasure.org",
          "value": 5.4,
          "unit": "g/dL",
          "code": "g/dL"
        },
        "referenceRange": [
          {
            "low": {
              "value": 3.5,
              "code": "g/dL",
              "system": "http://unitsofmeasure.org"
            }
          },
          {
            "high": {
              "value": 5.5,
              "code": "g/dL",
              "system": "http://unitsofmeasure.org"
            }
          }
        ],
        "text": {
          "status": "generated",
          "div": "<div xmlns=\"http://www.w3.org/1999/xhtml\"><table class=\"hl7__eu__lab__report\"><tr><th>Test</th><th>25-Jun-2024</th><th>Reference&#xA0;Range</th><th>Unit</th></tr><tr><td>Albumin [Mass/volume] in Serum or Plasma</td><td>5.4</td><td>3.5 - 5.5</td><td></td><td>g/dL</td></tr></table></div>"
        },
        "status": "final",
        "subject": {
          "reference": "urn:uuid:559876b2-3d21-4780-aca5-9482d0086a4e",
          "display": "Meaghan Neary"
        },
        "effectiveDateTime": "2024-06-24T22:11:04Z",
        "specimen": {
          "reference": "urn:uuid:7102b4ca-2e86-4e19-bfcd-4b7a699396a1"
        }
      }
    },
    {
      "fullUrl": "urn:uuid:b2532229-59e1-4aae-a2e2-adc98ea14769",
      "resource": {
        "resourceType": "Observation",
        "id": "b2532229-59e1-4aae-a2e2-adc98ea14769",
        "meta": {
          "profile": [
            "http://hl7.eu/fhir/laboratory/StructureDefinition/Observation-resultslab-eu-lab"
          ]
        },
        "performer": [
          {
            "display": "The Central European Lab"
          }
        ],
        "category": [
          {
            "coding": [
              {
                "system": "http://terminology.hl7.org/CodeSystem/observation-category",
                "code": "laboratory"
              }
            ]
          }
        ],
        "code": {
          "coding": [
            {
              "code": "10834-0",
              "system": "http://loinc.org",
              "display": "Globulin [Mass/volume] in Serum by calculation"
            }
          ],
          "text": "Globulin [Mass/volume] in Serum by calculation"
        },
        "valueQuantity": {
          "system": "http://unitsofmeasure.org",
          "value": 3.2,
          "unit": "g/L",
          "code": "g/L"
        },
        "referenceRange": [
          {
            "low": {
              "value": 2,
              "code": "g/L",
              "system": "http://unitsofmeasure.org"
            }
          },
          {
            "high": {
              "value": 3.5,
              "code": "g/L",
              "system": "http://unitsofmeasure.org"
            }
          }
        ],
        "text": {
          "status": "generated",
          "div": "<div xmlns=\"http://www.w3.org/1999/xhtml\"><table class=\"hl7__eu__lab__report\"><tr><th>Test</th><th>25-Jun-2024</th><th>Reference&#xA0;Range</th><th>Unit</th></tr><tr><td>Globulin [Mass/volume] in Serum by calculation</td><td>3.2</td><td>2 - 3.5</td><td></td><td>g/L</td></tr></table></div>"
        },
        "status": "final",
        "subject": {
          "reference": "urn:uuid:559876b2-3d21-4780-aca5-9482d0086a4e",
          "display": "Meaghan Neary"
        },
        "effectiveDateTime": "2024-06-24T22:11:04Z",
        "specimen": {
          "reference": "urn:uuid:ec3bfa2b-fcb6-4dba-9a8d-4d1df1882461"
        }
      }
    },
    {
      "fullUrl": "urn:uuid:df5b8dde-10a0-44d0-8fbf-2937ef18bad7",
      "resource": {
        "resourceType": "Observation",
        "id": "df5b8dde-10a0-44d0-8fbf-2937ef18bad7",
        "meta": {
          "profile": [
            "http://hl7.eu/fhir/laboratory/StructureDefinition/Observation-resultslab-eu-lab"
          ]
        },
        "performer": [
          {
            "display": "The Central European Lab"
          }
        ],
        "category": [
          {
            "coding": [
              {
                "system": "http://terminology.hl7.org/CodeSystem/observation-category",
                "code": "laboratory"
              }
            ]
          }
        ],
        "code": {
          "coding": [
            {
              "code": "1975-2",
              "system": "http://loinc.org",
              "display": "Bilirubin.total [Mass/volume] in Serum or Plasma"
            }
          ],
          "text": "Bilirubin.total [Mass/volume] in Serum or Plasma"
        },
        "valueQuantity": {
          "system": "http://unitsofmeasure.org",
          "value": 0.1,
          "unit": "mg/dL",
          "code": "mg/dL"
        },
        "referenceRange": [
          {
            "low": {
              "value": 0.3,
              "code": "mg/dL",
              "system": "http://unitsofmeasure.org"
            }
          },
          {
            "high": {
              "value": 1.2,
              "code": "mg/dL",
              "system": "http://unitsofmeasure.org"
            }
          }
        ],
        "interpretation": [
          {
            "coding": [
              {
                "code": "L",
                "system": "http://terminology.hl7.org/CodeSystem/v3-ObservationInterpretation",
                "display": "Low"
              }
            ]
          }
        ],
        "text": {
          "status": "generated",
          "div": "<div xmlns=\"http://www.w3.org/1999/xhtml\"><table class=\"hl7__eu__lab__report\"><tr><th>Test</th><th>25-Jun-2024</th><th>Reference&#xA0;Range</th><th>Unit</th></tr><tr><td>Bilirubin.total [Mass/volume] in Serum or Plasma</td><td>0.1</td><td>0.3 - 1.2</td><td>L</td><td>mg/dL</td></tr></table></div>"
        },
        "status": "final",
        "subject": {
          "reference": "urn:uuid:559876b2-3d21-4780-aca5-9482d0086a4e",
          "display": "Meaghan Neary"
        },
        "effectiveDateTime": "2024-06-24T22:11:04Z",
        "specimen": {
          "reference": "urn:uuid:7102b4ca-2e86-4e19-bfcd-4b7a699396a1"
        }
      }
    },
    {
      "fullUrl": "urn:uuid:8161e694-60ed-4409-83ff-2f620d0e27ec",
      "resource": {
        "resourceType": "Observation",
        "id": "8161e694-60ed-4409-83ff-2f620d0e27ec",
        "meta": {
          "profile": [
            "http://hl7.eu/fhir/laboratory/StructureDefinition/Observation-resultslab-eu-lab"
          ]
        },
        "performer": [
          {
            "display": "The Central European Lab"
          }
        ],
        "category": [
          {
            "coding": [
              {
                "system": "http://terminology.hl7.org/CodeSystem/observation-category",
                "code": "laboratory"
              }
            ]
          }
        ],
        "code": {
          "coding": [
            {
              "code": "6768-6",
              "system": "http://loinc.org",
              "display": "Alkaline phosphatase [Enzymatic activity/volume] in Serum or Plasma"
            }
          ],
          "text": "Alkaline phosphatase [Enzymatic activity/volume] in Serum or Plasma"
        },
        "valueQuantity": {
          "system": "http://unitsofmeasure.org",
          "value": 60.8,
          "unit": "U/L",
          "code": "U/L"
        },
        "referenceRange": [
          {
            "low": {
              "value": 44,
              "code": "U/L",
              "system": "http://unitsofmeasure.org"
            }
          },
          {
            "high": {
              "value": 130,
              "code": "U/L",
              "system": "http://unitsofmeasure.org"
            }
          }
        ],
        "text": {
          "status": "generated",
          "div": "<div xmlns=\"http://www.w3.org/1999/xhtml\"><table class=\"hl7__eu__lab__report\"><tr><th>Test</th><th>25-Jun-2024</th><th>Reference&#xA0;Range</th><th>Unit</th></tr><tr><td>Alkaline phosphatase [Enzymatic activity/volume] in Serum or Plasma</td><td>60.8</td><td>44 - 130</td><td></td><td>U/L</td></tr></table></div>"
        },
        "status": "final",
        "subject": {
          "reference": "urn:uuid:559876b2-3d21-4780-aca5-9482d0086a4e",
          "display": "Meaghan Neary"
        },
        "effectiveDateTime": "2024-06-24T22:11:04Z",
        "specimen": {
          "reference": "urn:uuid:7102b4ca-2e86-4e19-bfcd-4b7a699396a1"
        }
      }
    },
    {
      "fullUrl": "urn:uuid:6776f306-2863-47b0-bd3e-6748da32237a",
      "resource": {
        "resourceType": "Observation",
        "id": "6776f306-2863-47b0-bd3e-6748da32237a",
        "meta": {
          "profile": [
            "http://hl7.eu/fhir/laboratory/StructureDefinition/Observation-resultslab-eu-lab"
          ]
        },
        "performer": [
          {
            "display": "The Central European Lab"
          }
        ],
        "category": [
          {
            "coding": [
              {
                "system": "http://terminology.hl7.org/CodeSystem/observation-category",
                "code": "laboratory"
              }
            ]
          }
        ],
        "code": {
          "coding": [
            {
              "code": "1742-6",
              "system": "http://loinc.org",
              "display": "Alanine aminotransferase [Enzymatic activity/volume] in Serum or Plasma"
            }
          ],
          "text": "Alanine aminotransferase [Enzymatic activity/volume] in Serum or Plasma"
        },
        "valueQuantity": {
          "system": "http://unitsofmeasure.org",
          "value": 33.1,
          "unit": "U/L",
          "code": "U/L"
        },
        "referenceRange": [
          {
            "low": {
              "value": 0,
              "code": "U/L",
              "system": "http://unitsofmeasure.org"
            }
          },
          {
            "high": {
              "value": 55,
              "code": "U/L",
              "system": "http://unitsofmeasure.org"
            }
          }
        ],
        "text": {
          "status": "generated",
          "div": "<div xmlns=\"http://www.w3.org/1999/xhtml\"><table class=\"hl7__eu__lab__report\"><tr><th>Test</th><th>25-Jun-2024</th><th>Reference&#xA0;Range</th><th>Unit</th></tr><tr><td>Alanine aminotransferase [Enzymatic activity/volume] in Serum or Plasma</td><td>33.1</td><td>0 - 55</td><td></td><td>U/L</td></tr></table></div>"
        },
        "status": "final",
        "subject": {
          "reference": "urn:uuid:559876b2-3d21-4780-aca5-9482d0086a4e",
          "display": "Meaghan Neary"
        },
        "effectiveDateTime": "2024-06-24T22:11:04Z",
        "specimen": {
          "reference": "urn:uuid:7102b4ca-2e86-4e19-bfcd-4b7a699396a1"
        }
      }
    },
    {
      "fullUrl": "urn:uuid:653fb204-5e5a-4960-b6b6-bb69ab47b264",
      "resource": {
        "resourceType": "Observation",
        "id": "653fb204-5e5a-4960-b6b6-bb69ab47b264",
        "meta": {
          "profile": [
            "http://hl7.eu/fhir/laboratory/StructureDefinition/Observation-resultslab-eu-lab"
          ]
        },
        "performer": [
          {
            "display": "The Central European Lab"
          }
        ],
        "category": [
          {
            "coding": [
              {
                "system": "http://terminology.hl7.org/CodeSystem/observation-category",
                "code": "laboratory"
              }
            ]
          }
        ],
        "code": {
          "coding": [
            {
              "code": "1920-8",
              "system": "http://loinc.org",
              "display": "Aspartate aminotransferase [Enzymatic activity/volume] in Serum or Plasma"
            }
          ],
          "text": "Aspartate aminotransferase [Enzymatic activity/volume] in Serum or Plasma"
        },
        "valueQuantity": {
          "system": "http://unitsofmeasure.org",
          "value": 14.7,
          "unit": "U/L",
          "code": "U/L"
        },
        "referenceRange": [
          {
            "low": {
              "value": 10,
              "code": "U/L",
              "system": "http://unitsofmeasure.org"
            }
          },
          {
            "high": {
              "value": 40,
              "code": "U/L",
              "system": "http://unitsofmeasure.org"
            }
          }
        ],
        "text": {
          "status": "generated",
          "div": "<div xmlns=\"http://www.w3.org/1999/xhtml\"><table class=\"hl7__eu__lab__report\"><tr><th>Test</th><th>25-Jun-2024</th><th>Reference&#xA0;Range</th><th>Unit</th></tr><tr><td>Aspartate aminotransferase [Enzymatic activity/volume] in Serum or Plasma</td><td>14.7</td><td>10 - 40</td><td></td><td>U/L</td></tr></table></div>"
        },
        "status": "final",
        "subject": {
          "reference": "urn:uuid:559876b2-3d21-4780-aca5-9482d0086a4e",
          "display": "Meaghan Neary"
        },
        "effectiveDateTime": "2024-06-24T22:11:04Z",
        "specimen": {
          "reference": "urn:uuid:7102b4ca-2e86-4e19-bfcd-4b7a699396a1"
        }
      }
    },
    {
      "fullUrl": "urn:uuid:910278d4-414a-4600-a843-0515a4b4b820",
      "resource": {
        "resourceType": "Observation",
        "id": "910278d4-414a-4600-a843-0515a4b4b820",
        "meta": {
          "profile": [
            "http://hl7.eu/fhir/laboratory/StructureDefinition/Observation-resultslab-eu-lab"
          ]
        },
        "performer": [
          {
            "display": "The Central European Lab"
          }
        ],
        "category": [
          {
            "coding": [
              {
                "system": "http://terminology.hl7.org/CodeSystem/observation-category",
                "code": "laboratory"
              }
            ]
          }
        ],
        "code": {
          "coding": [
            {
              "code": "2339-0",
              "system": "http://loinc.org",
              "display": "Glucose [Mass/volume] in Blood"
            }
          ],
          "text": "Glucose [Mass/volume] in Blood"
        },
        "valueQuantity": {
          "system": "http://unitsofmeasure.org",
          "value": 87.6,
          "unit": "mg/dL",
          "code": "mg/dL"
        },
        "referenceRange": [
          {
            "low": {
              "value": 70,
              "code": "mg/dL",
              "system": "http://unitsofmeasure.org"
            }
          },
          {
            "high": {
              "value": 100,
              "code": "mg/dL",
              "system": "http://unitsofmeasure.org"
            }
          }
        ],
        "text": {
          "status": "generated",
          "div": "<div xmlns=\"http://www.w3.org/1999/xhtml\"><table class=\"hl7__eu__lab__report\"><tr><th>Test</th><th>25-Jun-2024</th><th>Reference&#xA0;Range</th><th>Unit</th></tr><tr><td>Glucose [Mass/volume] in Blood</td><td>87.6</td><td>70 - 100</td><td></td><td>mg/dL</td></tr></table></div>"
        },
        "status": "final",
        "subject": {
          "reference": "urn:uuid:559876b2-3d21-4780-aca5-9482d0086a4e",
          "display": "Meaghan Neary"
        },
        "effectiveDateTime": "2024-06-24T22:11:04Z",
        "specimen": {
          "reference": "urn:uuid:ab4059e3-d9b8-45b6-a0a2-adb44b30667e"
        }
      }
    },
    {
      "fullUrl": "urn:uuid:f6fe1f83-e20b-4f20-8db2-05fd9cdb8f20",
      "resource": {
        "resourceType": "Observation",
        "id": "f6fe1f83-e20b-4f20-8db2-05fd9cdb8f20",
        "meta": {
          "profile": [
            "http://hl7.eu/fhir/laboratory/StructureDefinition/Observation-resultslab-eu-lab"
          ]
        },
        "performer": [
          {
            "display": "The Central European Lab"
          }
        ],
        "category": [
          {
            "coding": [
              {
                "system": "http://terminology.hl7.org/CodeSystem/observation-category",
                "code": "laboratory"
              }
            ]
          }
        ],
        "code": {
          "coding": [
            {
              "code": "6299-2",
              "system": "http://loinc.org",
              "display": "Urea nitrogen [Mass/volume] in Blood"
            }
          ],
          "text": "Urea nitrogen [Mass/volume] in Blood"
        },
        "valueQuantity": {
          "system": "http://unitsofmeasure.org",
          "value": 11.8,
          "unit": "mg/dL",
          "code": "mg/dL"
        },
        "referenceRange": [
          {
            "low": {
              "value": 7,
              "code": "mg/dL",
              "system": "http://unitsofmeasure.org"
            }
          },
          {
            "high": {
              "value": 43,
              "code": "mg/dL",
              "system": "http://unitsofmeasure.org"
            }
          }
        ],
        "text": {
          "status": "generated",
          "div": "<div xmlns=\"http://www.w3.org/1999/xhtml\"><table class=\"hl7__eu__lab__report\"><tr><th>Test</th><th>25-Jun-2024</th><th>Reference&#xA0;Range</th><th>Unit</th></tr><tr><td>Urea nitrogen [Mass/volume] in Blood</td><td>11.8</td><td>7 - 43</td><td></td><td>mg/dL</td></tr></table></div>"
        },
        "status": "final",
        "subject": {
          "reference": "urn:uuid:559876b2-3d21-4780-aca5-9482d0086a4e",
          "display": "Meaghan Neary"
        },
        "effectiveDateTime": "2024-06-24T22:11:04Z",
        "specimen": {
          "reference": "urn:uuid:ab4059e3-d9b8-45b6-a0a2-adb44b30667e"
        }
      }
    },
    {
      "fullUrl": "urn:uuid:cf511e59-5583-4b2b-b9b6-9ecdb522c008",
      "resource": {
        "resourceType": "Observation",
        "id": "cf511e59-5583-4b2b-b9b6-9ecdb522c008",
        "meta": {
          "profile": [
            "http://hl7.eu/fhir/laboratory/StructureDefinition/Observation-resultslab-eu-lab"
          ]
        },
        "performer": [
          {
            "display": "The Central European Lab"
          }
        ],
        "category": [
          {
            "coding": [
              {
                "system": "http://terminology.hl7.org/CodeSystem/observation-category",
                "code": "laboratory"
              }
            ]
          }
        ],
        "code": {
          "coding": [
            {
              "code": "38483-4",
              "system": "http://loinc.org",
              "display": "Creatinine [Mass/volume] in Blood"
            }
          ],
          "text": "Creatinine [Mass/volume] in Blood"
        },
        "valueQuantity": {
          "system": "http://unitsofmeasure.org",
          "value": 2.7,
          "unit": "mg/dL",
          "code": "mg/dL"
        },
        "referenceRange": [
          {
            "low": {
              "value": 0.6,
              "code": "mg/dL",
              "system": "http://unitsofmeasure.org"
            }
          },
          {
            "high": {
              "value": 1.1,
              "code": "mg/dL",
              "system": "http://unitsofmeasure.org"
            }
          }
        ],
        "interpretation": [
          {
            "coding": [
              {
                "code": "H",
                "system": "http://terminology.hl7.org/CodeSystem/v3-ObservationInterpretation",
                "display": "High"
              }
            ]
          }
        ],
        "text": {
          "status": "generated",
          "div": "<div xmlns=\"http://www.w3.org/1999/xhtml\"><table class=\"hl7__eu__lab__report\"><tr><th>Test</th><th>25-Jun-2024</th><th>Reference&#xA0;Range</th><th>Unit</th></tr><tr><td>Creatinine [Mass/volume] in Blood</td><td>2.7</td><td>0.6 - 1.1</td><td>H</td><td>mg/dL</td></tr></table></div>"
        },
        "status": "final",
        "subject": {
          "reference": "urn:uuid:559876b2-3d21-4780-aca5-9482d0086a4e",
          "display": "Meaghan Neary"
        },
        "effectiveDateTime": "2024-06-24T22:11:04Z",
        "specimen": {
          "reference": "urn:uuid:ab4059e3-d9b8-45b6-a0a2-adb44b30667e"
        }
      }
    },
    {
      "fullUrl": "urn:uuid:7e394309-dc25-4256-9cf9-d80397ec22b0",
      "resource": {
        "resourceType": "Observation",
        "id": "7e394309-dc25-4256-9cf9-d80397ec22b0",
        "meta": {
          "profile": [
            "http://hl7.eu/fhir/laboratory/StructureDefinition/Observation-resultslab-eu-lab"
          ]
        },
        "performer": [
          {
            "display": "The Central European Lab"
          }
        ],
        "category": [
          {
            "coding": [
              {
                "system": "http://terminology.hl7.org/CodeSystem/observation-category",
                "code": "laboratory"
              }
            ]
          }
        ],
        "code": {
          "coding": [
            {
              "code": "49765-1",
              "system": "http://loinc.org",
              "display": "Calcium [Mass/volume] in Blood"
            }
          ],
          "text": "Calcium [Mass/volume] in Blood"
        },
        "valueQuantity": {
          "system": "http://unitsofmeasure.org",
          "value": 9.1,
          "unit": "mg/dL",
          "code": "mg/dL"
        },
        "referenceRange": [
          {
            "low": {
              "value": 8.5,
              "code": "mg/dL",
              "system": "http://unitsofmeasure.org"
            }
          },
          {
            "high": {
              "value": 10.5,
              "code": "mg/dL",
              "system": "http://unitsofmeasure.org"
            }
          }
        ],
        "text": {
          "status": "generated",
          "div": "<div xmlns=\"http://www.w3.org/1999/xhtml\"><table class=\"hl7__eu__lab__report\"><tr><th>Test</th><th>25-Jun-2024</th><th>Reference&#xA0;Range</th><th>Unit</th></tr><tr><td>Calcium [Mass/volume] in Blood</td><td>9.1</td><td>8.5 - 10.5</td><td></td><td>mg/dL</td></tr></table></div>"
        },
        "status": "final",
        "subject": {
          "reference": "urn:uuid:559876b2-3d21-4780-aca5-9482d0086a4e",
          "display": "Meaghan Neary"
        },
        "effectiveDateTime": "2024-06-24T22:11:04Z",
        "specimen": {
          "reference": "urn:uuid:ab4059e3-d9b8-45b6-a0a2-adb44b30667e"
        }
      }
    },
    {
      "fullUrl": "urn:uuid:cf005185-1550-4b76-83ed-efd43139edbc",
      "resource": {
        "resourceType": "Observation",
        "id": "cf005185-1550-4b76-83ed-efd43139edbc",
        "meta": {
          "profile": [
            "http://hl7.eu/fhir/laboratory/StructureDefinition/Observation-resultslab-eu-lab"
          ]
        },
        "performer": [
          {
            "display": "The Central European Lab"
          }
        ],
        "category": [
          {
            "coding": [
              {
                "system": "http://terminology.hl7.org/CodeSystem/observation-category",
                "code": "laboratory"
              }
            ]
          }
        ],
        "code": {
          "coding": [
            {
              "code": "2947-0",
              "system": "http://loinc.org",
              "display": "Sodium [Moles/volume] in Blood"
            }
          ],
          "text": "Sodium [Moles/volume] in Blood"
        },
        "valueQuantity": {
          "system": "http://unitsofmeasure.org",
          "value": 140.5,
          "unit": "mmol/L",
          "code": "mmol/L"
        },
        "referenceRange": [
          {
            "low": {
              "value": 135,
              "code": "mmol/L",
              "system": "http://unitsofmeasure.org"
            }
          },
          {
            "high": {
              "value": 145,
              "code": "mmol/L",
              "system": "http://unitsofmeasure.org"
            }
          }
        ],
        "text": {
          "status": "generated",
          "div": "<div xmlns=\"http://www.w3.org/1999/xhtml\"><table class=\"hl7__eu__lab__report\"><tr><th>Test</th><th>25-Jun-2024</th><th>Reference&#xA0;Range</th><th>Unit</th></tr><tr><td>Sodium [Moles/volume] in Blood</td><td>140.5</td><td>135 - 145</td><td></td><td>mmol/L</td></tr></table></div>"
        },
        "status": "final",
        "subject": {
          "reference": "urn:uuid:559876b2-3d21-4780-aca5-9482d0086a4e",
          "display": "Meaghan Neary"
        },
        "effectiveDateTime": "2024-06-24T22:11:04Z",
        "specimen": {
          "reference": "urn:uuid:ab4059e3-d9b8-45b6-a0a2-adb44b30667e"
        }
      }
    },
    {
      "fullUrl": "urn:uuid:165e2be1-f3bd-4e01-a26e-4f956ed88456",
      "resource": {
        "resourceType": "Observation",
        "id": "165e2be1-f3bd-4e01-a26e-4f956ed88456",
        "meta": {
          "profile": [
            "http://hl7.eu/fhir/laboratory/StructureDefinition/Observation-resultslab-eu-lab"
          ]
        },
        "performer": [
          {
            "display": "The Central European Lab"
          }
        ],
        "category": [
          {
            "coding": [
              {
                "system": "http://terminology.hl7.org/CodeSystem/observation-category",
                "code": "laboratory"
              }
            ]
          }
        ],
        "code": {
          "coding": [
            {
              "code": "6298-4",
              "system": "http://loinc.org",
              "display": "Potassium [Moles/volume] in Blood"
            }
          ],
          "text": "Potassium [Moles/volume] in Blood"
        },
        "valueQuantity": {
          "system": "http://unitsofmeasure.org",
          "value": 3.9,
          "unit": "mmol/L",
          "code": "mmol/L"
        },
        "referenceRange": [
          {
            "low": {
              "value": 3.5,
              "code": "mmol/L",
              "system": "http://unitsofmeasure.org"
            }
          },
          {
            "high": {
              "value": 5.1,
              "code": "mmol/L",
              "system": "http://unitsofmeasure.org"
            }
          }
        ],
        "text": {
          "status": "generated",
          "div": "<div xmlns=\"http://www.w3.org/1999/xhtml\"><table class=\"hl7__eu__lab__report\"><tr><th>Test</th><th>25-Jun-2024</th><th>Reference&#xA0;Range</th><th>Unit</th></tr><tr><td>Potassium [Moles/volume] in Blood</td><td>3.9</td><td>3.5 - 5.1</td><td></td><td>mmol/L</td></tr></table></div>"
        },
        "status": "final",
        "subject": {
          "reference": "urn:uuid:559876b2-3d21-4780-aca5-9482d0086a4e",
          "display": "Meaghan Neary"
        },
        "effectiveDateTime": "2024-06-24T22:11:04Z",
        "specimen": {
          "reference": "urn:uuid:ab4059e3-d9b8-45b6-a0a2-adb44b30667e"
        }
      }
    },
    {
      "fullUrl": "urn:uuid:af5b1d43-c9f6-4d41-9d01-04d1645608ce",
      "resource": {
        "resourceType": "Observation",
        "id": "af5b1d43-c9f6-4d41-9d01-04d1645608ce",
        "meta": {
          "profile": [
            "http://hl7.eu/fhir/laboratory/StructureDefinition/Observation-resultslab-eu-lab"
          ]
        },
        "performer": [
          {
            "display": "The Central European Lab"
          }
        ],
        "category": [
          {
            "coding": [
              {
                "system": "http://terminology.hl7.org/CodeSystem/observation-category",
                "code": "laboratory"
              }
            ]
          }
        ],
        "code": {
          "coding": [
            {
              "code": "2069-3",
              "system": "http://loinc.org",
              "display": "Chloride [Moles/volume] in Blood"
            }
          ],
          "text": "Chloride [Moles/volume] in Blood"
        },
        "valueQuantity": {
          "system": "http://unitsofmeasure.org",
          "value": 101.1,
          "unit": "mmol/L",
          "code": "mmol/L"
        },
        "referenceRange": [
          {
            "low": {
              "value": 98,
              "code": "mmol/L",
              "system": "http://unitsofmeasure.org"
            }
          },
          {
            "high": {
              "value": 108,
              "code": "mmol/L",
              "system": "http://unitsofmeasure.org"
            }
          }
        ],
        "text": {
          "status": "generated",
          "div": "<div xmlns=\"http://www.w3.org/1999/xhtml\"><table class=\"hl7__eu__lab__report\"><tr><th>Test</th><th>25-Jun-2024</th><th>Reference&#xA0;Range</th><th>Unit</th></tr><tr><td>Chloride [Moles/volume] in Blood</td><td>101.1</td><td>98 - 108</td><td></td><td>mmol/L</td></tr></table></div>"
        },
        "status": "final",
        "subject": {
          "reference": "urn:uuid:559876b2-3d21-4780-aca5-9482d0086a4e",
          "display": "Meaghan Neary"
        },
        "effectiveDateTime": "2024-06-24T22:11:04Z",
        "specimen": {
          "reference": "urn:uuid:ab4059e3-d9b8-45b6-a0a2-adb44b30667e"
        }
      }
    },
    {
      "fullUrl": "urn:uuid:917c7f64-db01-4111-abe6-5e6a1e829bcb",
      "resource": {
        "resourceType": "Observation",
        "id": "917c7f64-db01-4111-abe6-5e6a1e829bcb",
        "meta": {
          "profile": [
            "http://hl7.eu/fhir/laboratory/StructureDefinition/Observation-resultslab-eu-lab"
          ]
        },
        "performer": [
          {
            "display": "The Central European Lab"
          }
        ],
        "category": [
          {
            "coding": [
              {
                "system": "http://terminology.hl7.org/CodeSystem/observation-category",
                "code": "laboratory"
              }
            ]
          }
        ],
        "code": {
          "coding": [
            {
              "code": "20565-8",
              "system": "http://loinc.org",
              "display": "Carbon dioxide, total [Moles/volume] in Blood"
            }
          ],
          "text": "Carbon dioxide, total [Moles/volume] in Blood"
        },
        "valueQuantity": {
          "system": "http://unitsofmeasure.org",
          "value": 21.7,
          "unit": "mmol/L",
          "code": "mmol/L"
        },
        "referenceRange": [
          {
            "low": {
              "value": 22,
              "code": "mmol/L",
              "system": "http://unitsofmeasure.org"
            }
          },
          {
            "high": {
              "value": 29,
              "code": "mmol/L",
              "system": "http://unitsofmeasure.org"
            }
          }
        ],
        "interpretation": [
          {
            "coding": [
              {
                "code": "L",
                "system": "http://terminology.hl7.org/CodeSystem/v3-ObservationInterpretation",
                "display": "Low"
              }
            ]
          }
        ],
        "text": {
          "status": "generated",
          "div": "<div xmlns=\"http://www.w3.org/1999/xhtml\"><table class=\"hl7__eu__lab__report\"><tr><th>Test</th><th>25-Jun-2024</th><th>Reference&#xA0;Range</th><th>Unit</th></tr><tr><td>Carbon dioxide, total [Moles/volume] in Blood</td><td>21.7</td><td>22 - 29</td><td>L</td><td>mmol/L</td></tr></table></div>"
        },
        "status": "final",
        "subject": {
          "reference": "urn:uuid:559876b2-3d21-4780-aca5-9482d0086a4e",
          "display": "Meaghan Neary"
        },
        "effectiveDateTime": "2024-06-24T22:11:04Z",
        "specimen": {
          "reference": "urn:uuid:ab4059e3-d9b8-45b6-a0a2-adb44b30667e"
        }
      }
    },
    {
      "fullUrl": "urn:uuid:ee30d4e5-7e29-4262-800f-e57e2b31278d",
      "resource": {
        "resourceType": "Device",
        "id": "ee30d4e5-7e29-4262-800f-e57e2b31278d",
        "deviceName": [
          {
            "name": "SYNDERAI Synthetic Generator",
            "type": "manufacturer-name"
          }
        ],
        "version": [
          {
            "value": "5.0"
          }
        ],
        "text": {
          "status": "generated",
          "div": "<div xmlns=\"http://www.w3.org/1999/xhtml\">SYNDERAI Synthetic Generator v5.0</div>"
        },
        "status": "active\"",
        "distinctIdentifier": "synderai-generator-50",
        "manufacturer": "SYNDERAI Project"
      }
    },
    {
      "fullUrl": "urn:uuid:4e8f5f84-5821-48c0-a4e1-ccfe8715d9db",
      "resource": {
        "resourceType": "Provenance",
        "id": "4e8f5f84-5821-48c0-a4e1-ccfe8715d9db",
        "target": [
          {
            "reference": "Patient/559876b2-3d21-4780-aca5-9482d0086a4e"
          },
          {
            "reference": "Bundle/04ffc63e-f5e6-407e-81d2-fe787dbfb0c3"
          },
          {
            "reference": "Composition/4271f948-1b73-4c16-8aa0-ad1384fb886f"
          },
          {
            "reference": "PractitionerRole/77433aa4-29e1-4bcf-8678-5d4340a88107"
          },
          {
            "reference": "Practitioner/9c401294-414c-4c81-89e9-abc071b521b7"
          },
          {
            "reference": "PractitionerRole/78b64a2e-aa97-46c6-b7dd-e0672cd05c8c"
          },
          {
            "reference": "Organization/84de2b32-595f-4b18-bdf1-78529ece929e"
          }
        ],
        "activity": {
          "text": "Synthetic Example Data Generation"
        },
        "policy": [
          "https://synderai.net/synderai-synthetic-data-policy"
        ],
        "agent": [
          {
            "type": {
              "text": "author"
            },
            "who": {
              "reference": "Device/ee30d4e5-7e29-4262-800f-e57e2b31278d"
            }
          }
        ],
        "reason": [
          {
            "text": "Interoperability Testing and Training (non-clinical use)"
          }
        ],
        "text": {
          "status": "generated",
          "div": "<div xmlns=\"http://www.w3.org/1999/xhtml\">Provenance for SYNDERAI Synthetic Example Data Resource</div>"
        },
        "recorded": "2024-06-25T00:11:04Z"
      }
    },
    {
      "fullUrl": "urn:uuid:77433aa4-29e1-4bcf-8678-5d4340a88107",
      "resource": {
        "resourceType": "PractitionerRole",
        "id": "77433aa4-29e1-4bcf-8678-5d4340a88107",
        "meta": {
          "profile": [
            "http://hl7.eu/fhir/base/StructureDefinition/practitionerRole-eu"
          ]
        },
        "text": {
          "status": "generated",
          "div": "<div xmlns=\"http://www.w3.org/1999/xhtml\">Laboratory Role Id: 77433aa4-29e1-4bcf-8678-5d4340a88107</div>"
        },
        "practitioner": {
          "reference": "urn:uuid:9c401294-414c-4c81-89e9-abc071b521b7"
        }
      }
    },
    {
      "fullUrl": "urn:uuid:9c401294-414c-4c81-89e9-abc071b521b7",
      "resource": {
        "resourceType": "Practitioner",
        "id": "9c401294-414c-4c81-89e9-abc071b521b7",
        "meta": {
          "profile": [
            "http://hl7.eu/fhir/base/StructureDefinition/practitioner-eu"
          ]
        },
        "identifier": [
          {
            "assigner": {
              "display": "HL7 Europe"
            },
            "system": "urn:oid:2.16.840.1.113883.2.51.999",
            "value": "a3db48ee-82f9-47e8-a4cf-7a30484f7331"
          }
        ],
        "name": [
          {
            "prefix": [
              "dr"
            ],
            "given": [
              "Ex"
            ],
            "family": "Ample"
          }
        ],
        "address": [
          {
            "line": [
              "Laboratoire Central Européenne",
              "Boulevard du Jardin Botanique 32"
            ],
            "postalCode": "1000",
            "city": "Brussels",
            "country": "Belgium"
          }
        ],
        "text": {
          "status": "generated",
          "div": "<div xmlns=\"http://www.w3.org/1999/xhtml\">Laboratory: Laboratoire Central Européenne, 1000 Brussels, Belgium</div>"
        }
      }
    }
  ],
  "type": "document",
  "timestamp": "2024-06-25T00:11:04Z"
}
