{
  "resourceType": "Bundle",
  "id": "59bc2e60-64fc-465e-a3e3-e1d07dddc93d",
  "meta": {
    "profile": [
      "http://hl7.eu/fhir/laboratory/StructureDefinition/Bundle-eu-lab"
    ]
  },
  "identifier": {
    "assigner": {
      "display": "HL7 Europe"
    },
    "system": "urn:oid:2.16.840.1.113883.2.51.999",
    "value": "16755344-714f-47d6-ab48-946960c7434e"
  },
  "entry": [
    {
      "fullUrl": "urn:uuid:73913317-d26e-4e92-9f79-37eccf7f8e4c",
      "resource": {
        "resourceType": "Composition",
        "id": "73913317-d26e-4e92-9f79-37eccf7f8e4c",
        "meta": {
          "profile": [
            "http://hl7.eu/fhir/laboratory/StructureDefinition/Composition-eu-lab"
          ]
        },
        "identifier": {
          "assigner": {
            "display": "HL7 Europe"
          },
          "system": "urn:oid:2.16.840.1.113883.2.51.999",
          "value": "d9f759fc-66b4-4f57-866f-c8d6251bac7b"
        },
        "author": [
          {
            "reference": "urn:uuid:582e943c-892e-4dbf-b9f4-b61180591a41"
          }
        ],
        "category": [
          {
            "coding": [
              {
                "code": "26436-6",
                "system": "http://loinc.org",
                "display": "Laboratory studies (set)"
              }
            ]
          }
        ],
        "type": {
          "coding": [
            {
              "code": "11502-2",
              "system": "http://loinc.org",
              "display": "Laboratory report"
            }
          ],
          "text": "Laboratory Report"
        },
        "section": [
          {
            "code": {
              "coding": [
                {
                  "code": "26436-6",
                  "system": "http://loinc.org",
                  "display": "Laboratory studies (set)"
                }
              ],
              "text": "Laboratory studies"
            },
            "section": [
              {
                "code": {
                  "coding": [
                    {
                      "code": "$18719-5",
                      "system": "http://loinc.org",
                      "display": "Chemistry studies (set)"
                    }
                  ],
                  "text": "Chemistry"
                },
                "entry": [
                  {
                    "reference": "urn:uuid:c9c5acfa-bc3a-44d8-a093-9c016679e26f"
                  },
                  {
                    "reference": "urn:uuid:ec09fb4e-317c-40c8-80d2-0a4ee83534e4"
                  },
                  {
                    "reference": "urn:uuid:5760d308-70ca-49e6-9a88-70ca9df921aa"
                  },
                  {
                    "reference": "urn:uuid:5dfe77a7-2b81-4af3-a254-51ec4a756beb"
                  },
                  {
                    "reference": "urn:uuid:db8f8105-5e93-496c-9216-0b9d1b2f34de"
                  },
                  {
                    "reference": "urn:uuid:e2e3a031-b5b9-4df6-9ca1-82e90346ee17"
                  },
                  {
                    "reference": "urn:uuid:3796e3bb-83ca-4971-af3b-ee7d7032d4cd"
                  },
                  {
                    "reference": "urn:uuid:51507839-2380-4386-87fe-fc1f0725345f"
                  },
                  {
                    "reference": "urn:uuid:0ca2b2a1-c440-4331-86ac-c9c26ceca38b"
                  },
                  {
                    "reference": "urn:uuid:b782575a-273f-4653-b441-f43a9c43fd15"
                  },
                  {
                    "reference": "urn:uuid:8c429add-b6b1-469c-afd7-f17161386b28"
                  },
                  {
                    "reference": "urn:uuid:8f9bb321-522a-4ef9-b660-559b3be120cd"
                  },
                  {
                    "reference": "urn:uuid:0d181524-232a-40d0-a2b2-db3200061e1f"
                  },
                  {
                    "reference": "urn:uuid:039b976e-340c-4438-9f87-3201e617cc20"
                  },
                  {
                    "reference": "urn:uuid:1639b284-9da4-4056-90fc-e510970cb0bc"
                  },
                  {
                    "reference": "urn:uuid:48e01dca-fc2c-4cf0-b267-f96ac4d12848"
                  },
                  {
                    "reference": "urn:uuid:24b8c329-2078-4425-9c1a-0f174c9e1306"
                  },
                  {
                    "reference": "urn:uuid:7f4e9991-01f0-4a80-aaa8-295403eea915"
                  }
                ],
                "text": {
                  "status": "generated",
                  "div": "<div xmlns=\"http://www.w3.org/1999/xhtml\"><h3>Chemistry</h3><table class=\"hl7__eu__lab__report\"><thead><tr><th>Test</th><th>11-FEB-2021</th><th>Reference&#xA0;Range</th><th>Unit</th></tr></thead><tbody><tr><td>Glucose [Mass/volume] in Serum or Plasma</td><td><strong>65.3 L</strong></td><td>70 - 140</td><td>mg/dL</td></tr><tr><td>Urea nitrogen [Mass/volume] in Serum or Plasma</td><td>8.1</td><td>7 - 25</td><td>mg/dL</td></tr><tr><td>Creatinine [Mass/volume] in Serum or Plasma</td><td><strong>2.1 H</strong></td><td>0.9 - 1.3</td><td>mg/dL</td></tr><tr><td>Calcium [Mass/volume] in Serum or Plasma</td><td>10.2</td><td>8.5 - 10.5</td><td>mg/dL</td></tr><tr><td>Sodium [Moles/volume] in Serum or Plasma</td><td>140.4</td><td>135 - 145</td><td>mmol/L</td></tr><tr><td>Potassium [Moles/volume] in Serum or Plasma</td><td>3.9</td><td>3.5 - 5.3</td><td>mmol/L</td></tr><tr><td>Chloride [Moles/volume] in Serum or Plasma</td><td>106.6</td><td>98 - 107</td><td>mmol/L</td></tr><tr><td>Carbon dioxide, total [Moles/volume] in Serum or Plasma</td><td>25.4</td><td>22 - 29</td><td>mmol/L</td></tr><tr><td>Ketones [Presence] in Urine by Test strip</td><td>Urine ketone test = +</td><td></td><td></td></tr><tr><td>Hemoglobin A1c/Hemoglobin.total in Blood</td><td><strong>2.8 L</strong></td><td>4.5 - 6.4</td><td>%</td></tr><tr><td>Glucose [Mass/volume] in Blood</td><td><strong>65.3 L</strong></td><td>70 - 140</td><td>mg/dL</td></tr><tr><td>Urea nitrogen [Mass/volume] in Blood</td><td>8.1</td><td>7 - 25</td><td>mg/dL</td></tr><tr><td>Creatinine [Mass/volume] in Blood</td><td><strong>1.8 H</strong></td><td>0.9 - 1.3</td><td>mg/dL</td></tr><tr><td>Calcium [Mass/volume] in Blood</td><td>10.2</td><td>8.6 - 10.2</td><td>mg/dL</td></tr><tr><td>Sodium [Moles/volume] in Blood</td><td>140.4</td><td>135 - 145</td><td>mmol/L</td></tr><tr><td>Potassium [Moles/volume] in Blood</td><td>3.9</td><td>3.5 - 5.1</td><td>mmol/L</td></tr><tr><td>Chloride [Moles/volume] in Blood</td><td>106.6</td><td>98 - 108</td><td>mmol/L</td></tr><tr><td>Carbon dioxide, total [Moles/volume] in Blood</td><td>25.4</td><td>22 - 32</td><td>mmol/L</td></tr></tbody></table></div>"
                },
                "title": "Chemistry"
              },
              {
                "code": {
                  "coding": [
                    {
                      "code": "$18729-4",
                      "system": "http://loinc.org",
                      "display": "Urinalysis studies (set)"
                    }
                  ],
                  "text": "Urinalysis"
                },
                "entry": [
                  {
                    "reference": "urn:uuid:7b758323-4b6e-44ea-ae64-9ef175a7136f"
                  },
                  {
                    "reference": "urn:uuid:c9097aee-d0e6-4c70-a698-3249dc4160d8"
                  },
                  {
                    "reference": "urn:uuid:d7600bce-3ac2-4df0-8bc9-b7e302dfacd8"
                  },
                  {
                    "reference": "urn:uuid:0c8d25cb-c799-490b-beaa-f3ca5f3cca50"
                  },
                  {
                    "reference": "urn:uuid:1f4caff3-075c-4395-a8dc-b034b86bbf2f"
                  },
                  {
                    "reference": "urn:uuid:8e0b948e-befe-47e2-ac62-f68843d1c276"
                  },
                  {
                    "reference": "urn:uuid:3381bdb1-32d3-4a08-905e-95e0a8c85248"
                  },
                  {
                    "reference": "urn:uuid:d42575a9-b6b0-4f6f-97b8-44725fefa450"
                  },
                  {
                    "reference": "urn:uuid:5898715e-1231-4dde-90b6-a896e3d938dd"
                  },
                  {
                    "reference": "urn:uuid:1a09bfe0-2098-424a-9e5d-763c4aa943a8"
                  },
                  {
                    "reference": "urn:uuid:c05391d5-c110-4ad3-b4e5-8bf3fe6f740c"
                  },
                  {
                    "reference": "urn:uuid:e6544d18-cb38-4345-acff-6ad415c890e8"
                  }
                ],
                "text": {
                  "status": "generated",
                  "div": "<div xmlns=\"http://www.w3.org/1999/xhtml\"><h3>Urinalysis</h3><table class=\"hl7__eu__lab__report\"><thead><tr><th>Test</th><th>11-FEB-2021</th><th>Reference&#xA0;Range</th><th>Unit</th></tr></thead><tbody><tr><td>Glucose [Mass/volume] in Urine by Test strip</td><td><strong>2.2 H</strong></td><td>0.8 - 0</td><td>mg/dL</td></tr><tr><td>Glucose [Presence] in Urine by Test strip</td><td>++</td><td></td><td></td></tr><tr><td>Bilirubin.total [Mass/volume] in Urine by Test strip</td><td>1.2</td><td>0.2 - 1.5</td><td>mg/dL</td></tr><tr><td>Bilirubin.total [Presence] in Urine by Test strip</td><td>Finding of bilirubin in urine</td><td></td><td></td></tr><tr><td>Ketones [Mass/volume] in Urine by Test strip</td><td>0.8</td><td>0 - 4</td><td>mg/dL</td></tr><tr><td>Specific gravity of Urine by Test strip</td><td><strong>1.0 L</strong></td><td>1.01 - 1.03</td><td>{nominal}</td></tr><tr><td>pH of Urine by Test strip</td><td>6.8</td><td>4.5 - 7.5</td><td>pH</td></tr><tr><td>Protein [Mass/volume] in Urine by Test strip</td><td><strong>203.0 H</strong></td><td>0 - 150</td><td>mg/dL</td></tr><tr><td>Protein [Presence] in Urine by Test strip</td><td>Urine protein test = ++</td><td></td><td></td></tr><tr><td>Nitrite [Presence] in Urine by Test strip</td><td>Urine nitrite negative</td><td></td><td></td></tr><tr><td>Hemoglobin [Presence] in Urine by Test strip</td><td>Urine blood test = negative</td><td></td><td></td></tr><tr><td>Leukocyte esterase [Presence] in Urine by Test strip</td><td>Urine leukocyte test negative</td><td></td><td></td></tr></tbody></table></div>"
                },
                "title": "Urinalysis"
              },
              {
                "code": {
                  "coding": [
                    {
                      "code": "$LP7846-1",
                      "system": "http://loinc.org",
                      "display": "Specimen information"
                    }
                  ],
                  "text": "Specimen information"
                },
                "entry": [
                  {
                    "reference": "urn:uuid:58c2638b-2341-46ab-97ba-f2ca2ee44912"
                  },
                  {
                    "reference": "urn:uuid:e7c0e305-d12b-4bb2-a3c9-4036585b3412"
                  },
                  {
                    "reference": "urn:uuid:70c9f5fc-a422-47f3-aab2-8968b7bffea4"
                  },
                  {
                    "reference": "urn:uuid:808dbba9-0483-4fa7-841a-9c9b060ab631"
                  }
                ],
                "text": {
                  "status": "generated",
                  "div": "<div xmlns=\"http://www.w3.org/1999/xhtml\"><h3>Specimen information</h3><table class=\"hl7__eu__lab__report\"><thead><tr><th>Test</th><th>11-FEB-2021</th><th>Specimen</th><th></th></tr></thead><tbody><tr><td>Appearance of Urine</td><td>Cloudy urine</td><td>Urine</td><td></td></tr><tr><td>Odor of Urine</td><td>Urine smell ammoniacal</td><td>Urine</td><td></td></tr><tr><td>Clarity of Urine</td><td>Translucent</td><td>Urine</td><td></td></tr><tr><td>Color of Urine</td><td>Brown color</td><td>Urine</td><td></td></tr></tbody></table></div>"
                },
                "title": "Specimen information"
              }
            ],
            "title": "Laboratory Report"
          },
          {
            "text": {
              "status": "generated",
              "div": "<div xmlns=\"http://www.w3.org/1999/xhtml\"><h3>Annotation</h3><table class=\"hl7__eu__lab__report\"><tr><th>Conclusion and Recommendations based on this report and previous findings known to us</th></tr><tr><td>The patient shows hypoglycemia with low HbA1c, elevated creatinine suggesting impaired renal function, and significant proteinuria with low urine specific gravity, indicating possible nephrotic syndrome or glomerular pathology. Urine findings (cloudy, brown, ammoniacal) may suggest urinary tract involvement, but no evidence of infection (negative nitrites/leukocytes). Recommend clinical correlation for renal and metabolic status and further nephrological evaluation.</td></tr></table></div>"
            },
            "code": {
              "coding": [
                {
                  "system": "http://loinc.org",
                  "code": "48767-8",
                  "display": "Annotation comment"
                }
              ]
            },
            "title": "Annotation comment"
          }
        ],
        "status": "final",
        "subject": {
          "reference": "urn:uuid:8e9738c1-10c2-43f0-8dfb-8607f2372501",
          "display": "Pelayo Casal"
        },
        "date": "2021-02-11T06:38:59Z",
        "title": "Laboratory Report",
        "confidentiality": "N"
      }
    },
    {
      "fullUrl": "urn:uuid:b9d873a3-5aac-4e58-8bf6-18975d80925a",
      "resource": {
        "resourceType": "DiagnosticReport",
        "id": "b9d873a3-5aac-4e58-8bf6-18975d80925a",
        "meta": {
          "profile": [
            "http://hl7.eu/fhir/laboratory/StructureDefinition/DiagnosticReport-eu-lab"
          ]
        },
        "identifier": [
          {
            "assigner": {
              "display": "HL7 Europe"
            },
            "system": "urn:oid:2.16.840.1.113883.2.51.999",
            "value": "57c0c6e6-e0f7-458e-b889-23f00148f7f7"
          }
        ],
        "extension": [
          {
            "url": "http://hl7.org/fhir/5.0/StructureDefinition/extension-DiagnosticReport.composition",
            "valueReference": {
              "reference": "urn:uuid:d9f759fc-66b4-4f57-866f-c8d6251bac7b"
            }
          }
        ],
        "category": [
          {
            "coding": [
              {
                "code": "26436-6",
                "system": "http://loinc.org",
                "display": "Laboratory studies (set)"
              }
            ]
          }
        ],
        "specimen": [
          {
            "reference": "urn:uuid:d449cb66-9c58-4e19-a486-8ab063834d47"
          },
          {
            "reference": "urn:uuid:97c6137f-da08-49a0-a26c-ba059a88d70a"
          },
          {
            "reference": "urn:uuid:b59f1014-9d1f-4554-a9b1-13217ea85a7b"
          }
        ],
        "result": [
          {
            "reference": "urn:uuid:c9c5acfa-bc3a-44d8-a093-9c016679e26f"
          },
          {
            "reference": "urn:uuid:ec09fb4e-317c-40c8-80d2-0a4ee83534e4"
          },
          {
            "reference": "urn:uuid:5760d308-70ca-49e6-9a88-70ca9df921aa"
          },
          {
            "reference": "urn:uuid:5dfe77a7-2b81-4af3-a254-51ec4a756beb"
          },
          {
            "reference": "urn:uuid:db8f8105-5e93-496c-9216-0b9d1b2f34de"
          },
          {
            "reference": "urn:uuid:e2e3a031-b5b9-4df6-9ca1-82e90346ee17"
          },
          {
            "reference": "urn:uuid:3796e3bb-83ca-4971-af3b-ee7d7032d4cd"
          },
          {
            "reference": "urn:uuid:51507839-2380-4386-87fe-fc1f0725345f"
          },
          {
            "reference": "urn:uuid:58c2638b-2341-46ab-97ba-f2ca2ee44912"
          },
          {
            "reference": "urn:uuid:e7c0e305-d12b-4bb2-a3c9-4036585b3412"
          },
          {
            "reference": "urn:uuid:70c9f5fc-a422-47f3-aab2-8968b7bffea4"
          },
          {
            "reference": "urn:uuid:808dbba9-0483-4fa7-841a-9c9b060ab631"
          },
          {
            "reference": "urn:uuid:7b758323-4b6e-44ea-ae64-9ef175a7136f"
          },
          {
            "reference": "urn:uuid:c9097aee-d0e6-4c70-a698-3249dc4160d8"
          },
          {
            "reference": "urn:uuid:d7600bce-3ac2-4df0-8bc9-b7e302dfacd8"
          },
          {
            "reference": "urn:uuid:0c8d25cb-c799-490b-beaa-f3ca5f3cca50"
          },
          {
            "reference": "urn:uuid:1f4caff3-075c-4395-a8dc-b034b86bbf2f"
          },
          {
            "reference": "urn:uuid:0ca2b2a1-c440-4331-86ac-c9c26ceca38b"
          },
          {
            "reference": "urn:uuid:8e0b948e-befe-47e2-ac62-f68843d1c276"
          },
          {
            "reference": "urn:uuid:3381bdb1-32d3-4a08-905e-95e0a8c85248"
          },
          {
            "reference": "urn:uuid:d42575a9-b6b0-4f6f-97b8-44725fefa450"
          },
          {
            "reference": "urn:uuid:5898715e-1231-4dde-90b6-a896e3d938dd"
          },
          {
            "reference": "urn:uuid:1a09bfe0-2098-424a-9e5d-763c4aa943a8"
          },
          {
            "reference": "urn:uuid:c05391d5-c110-4ad3-b4e5-8bf3fe6f740c"
          },
          {
            "reference": "urn:uuid:e6544d18-cb38-4345-acff-6ad415c890e8"
          },
          {
            "reference": "urn:uuid:b782575a-273f-4653-b441-f43a9c43fd15"
          },
          {
            "reference": "urn:uuid:8c429add-b6b1-469c-afd7-f17161386b28"
          },
          {
            "reference": "urn:uuid:8f9bb321-522a-4ef9-b660-559b3be120cd"
          },
          {
            "reference": "urn:uuid:0d181524-232a-40d0-a2b2-db3200061e1f"
          },
          {
            "reference": "urn:uuid:039b976e-340c-4438-9f87-3201e617cc20"
          },
          {
            "reference": "urn:uuid:1639b284-9da4-4056-90fc-e510970cb0bc"
          },
          {
            "reference": "urn:uuid:48e01dca-fc2c-4cf0-b267-f96ac4d12848"
          },
          {
            "reference": "urn:uuid:24b8c329-2078-4425-9c1a-0f174c9e1306"
          },
          {
            "reference": "urn:uuid:7f4e9991-01f0-4a80-aaa8-295403eea915"
          }
        ],
        "status": "registered",
        "code": {
          "coding": [
            {
              "code": "11502-2",
              "system": "http://loinc.org",
              "display": "Laboratory report"
            }
          ]
        },
        "subject": {
          "reference": "urn:uuid:8e9738c1-10c2-43f0-8dfb-8607f2372501",
          "display": "Pelayo Casal"
        }
      }
    },
    {
      "fullUrl": "urn:uuid:8e9738c1-10c2-43f0-8dfb-8607f2372501",
      "resource": {
        "resourceType": "Patient",
        "id": "8e9738c1-10c2-43f0-8dfb-8607f2372501",
        "meta": {
          "security": [
            {
              "system": "http://terminology.hl7.org/CodeSystem/v3-ActReason",
              "code": "HTEST"
            },
            {
              "system": "http://terminology.hl7.org/CodeSystem/v3-ActReason",
              "code": "TRAIN"
            }
          ],
          "tag": [
            {
              "system": "https://synderai.net/fhir/CodeSystem/tags",
              "code": "synthetic",
              "display": "SYNDERAI Synthetic data"
            }
          ],
          "profile": [
            "http://hl7.eu/fhir/base/StructureDefinition/patient-eu-core"
          ]
        },
        "identifier": [
          {
            "type": {
              "coding": [
                {
                  "code": "PT",
                  "system": "http://terminology.hl7.org/CodeSystem/v2-0203"
                }
              ]
            },
            "system": "http://ec.europa.eu/identifier/eci",
            "value": "7707-510028-7"
          },
          {
            "type": {
              "coding": [
                {
                  "code": "MR",
                  "system": "http://terminology.hl7.org/CodeSystem/v2-0203"
                }
              ]
            },
            "system": "http://local.setting.eu/identifier",
            "value": "d88e82c6-df33-82d2-8538-f8b57da06491"
          }
        ],
        "name": [
          {
            "family": "Casal"
          },
          {
            "given": [
              "Pelayo"
            ]
          },
          {
            "text": "Pelayo Casal"
          }
        ],
        "address": [
          {
            "line": [
              "Callejón de Ignacio Pedrosa 67 Apt. 68 "
            ],
            "use": "home",
            "type": "physical",
            "postalCode": "35001",
            "city": "Las Palmas",
            "country": "Spain"
          }
        ],
        "telecom": [
          {
            "system": "phone",
            "value": "+34 875724898"
          }
        ],
        "extension": [
          {
            "url": "http://hl7.org/fhir/StructureDefinition/patient-nationality",
            "valueCodeableConcept": {
              "coding": [
                {
                  "code": "ES",
                  "system": "http://hl7.org/fhir/ValueSet/country"
                }
              ]
            }
          }
        ],
        "text": {
          "status": "generated",
          "div": "<div xmlns=\"http://www.w3.org/1999/xhtml\"><table class=\"hl7__ips\"><tr><td>Pelayo Casal</td><td>male</td><td>19-Apr-1940</td></tr></table></div>"
        },
        "gender": "male",
        "birthDate": "1940-04-19"
      }
    },
    {
      "fullUrl": "urn:uuid:4a036b61-4635-4ded-bb48-8403605afd46",
      "resource": {
        "resourceType": "ServiceRequest",
        "id": "4a036b61-4635-4ded-bb48-8403605afd46",
        "meta": {
          "profile": [
            "http://hl7.eu/fhir/laboratory/StructureDefinition/ServiceRequest-eu-lab"
          ]
        },
        "identifier": [
          {
            "system": "http://example.org",
            "value": "c24fe95f-62f3-410a-8b68-6f5c807d06bb"
          }
        ],
        "specimen": [
          {
            "reference": "urn:uuid:d449cb66-9c58-4e19-a486-8ab063834d47"
          },
          {
            "reference": "urn:uuid:97c6137f-da08-49a0-a26c-ba059a88d70a"
          },
          {
            "reference": "urn:uuid:b59f1014-9d1f-4554-a9b1-13217ea85a7b"
          }
        ],
        "reasonCode": [
          {
            "coding": [
              {
                "code": "431856006",
                "system": "http://snomed.info/sct",
                "display": "Chronic kidney disease stage 2"
              }
            ]
          },
          {
            "coding": [
              {
                "code": "90781000119102",
                "system": "http://snomed.info/sct",
                "display": "Microalbuminuria due to type 2 diabetes mellitus"
              }
            ]
          },
          {
            "coding": [
              {
                "code": "127013003",
                "system": "http://snomed.info/sct",
                "display": "Disorder of kidney due to diabetes mellitus"
              }
            ]
          },
          {
            "coding": [
              {
                "code": "431855005",
                "system": "http://snomed.info/sct",
                "display": "Chronic kidney disease stage 1"
              }
            ]
          },
          {
            "coding": [
              {
                "code": "64859006",
                "system": "http://snomed.info/sct",
                "display": "Osteoporosis"
              }
            ]
          },
          {
            "coding": [
              {
                "code": "414545008",
                "system": "http://snomed.info/sct",
                "display": "Ischemic heart disease"
              }
            ]
          },
          {
            "coding": [
              {
                "code": "237602007",
                "system": "http://snomed.info/sct",
                "display": "Metabolic syndrome X"
              }
            ]
          },
          {
            "coding": [
              {
                "code": "59621000",
                "system": "http://snomed.info/sct",
                "display": "Essential hypertension"
              }
            ]
          },
          {
            "coding": [
              {
                "code": "271737000",
                "system": "http://snomed.info/sct",
                "display": "Anemia"
              }
            ]
          },
          {
            "coding": [
              {
                "code": "15777000",
                "system": "http://snomed.info/sct",
                "display": "Prediabetes"
              }
            ]
          }
        ],
        "status": "active",
        "intent": "order",
        "code": {
          "coding": [
            {
              "code": "108252007",
              "system": "http://snomed.info/sct",
              "display": "Laboratory procedure"
            }
          ]
        },
        "subject": {
          "reference": "urn:uuid:8e9738c1-10c2-43f0-8dfb-8607f2372501",
          "display": "Pelayo Casal"
        },
        "requester": {
          "reference": "urn:uuid:1477a26c-471a-4ba2-b07e-b23e1ed0d3d4"
        }
      }
    },
    {
      "fullUrl": "urn:uuid:1477a26c-471a-4ba2-b07e-b23e1ed0d3d4",
      "resource": {
        "resourceType": "PractitionerRole",
        "id": "1477a26c-471a-4ba2-b07e-b23e1ed0d3d4",
        "meta": {
          "profile": [
            "http://hl7.eu/fhir/base/StructureDefinition/practitionerRole-eu"
          ]
        },
        "text": {
          "status": "generated",
          "div": "<div xmlns=\"http://www.w3.org/1999/xhtml\">Provider Role Id: 1477a26c-471a-4ba2-b07e-b23e1ed0d3d4</div>"
        },
        "organization": {
          "reference": "urn:uuid:b7a016e3-f375-48db-8127-b38aab0f8d8b"
        }
      }
    },
    {
      "fullUrl": "urn:uuid:b7a016e3-f375-48db-8127-b38aab0f8d8b",
      "resource": {
        "resourceType": "Organization",
        "id": "b7a016e3-f375-48db-8127-b38aab0f8d8b",
        "meta": {
          "profile": [
            "http://hl7.eu/fhir/base/StructureDefinition/organization-eu"
          ]
        },
        "identifier": [
          {
            "assigner": {
              "display": "HL7 Europe"
            },
            "system": "urn:oid:2.16.840.1.113883.2.51.999",
            "value": "7206e974-6f9c-4340-8fbf-2f263f55ebce"
          }
        ],
        "address": [
          {
            "country": "Spain"
          }
        ],
        "text": {
          "status": "generated",
          "div": "<div xmlns=\"http://www.w3.org/1999/xhtml\">Provider Organization: Centro de Salud de Guanarteme</div>"
        },
        "name": "Centro de Salud de Guanarteme"
      }
    },
    {
      "fullUrl": "urn:uuid:d449cb66-9c58-4e19-a486-8ab063834d47",
      "resource": {
        "resourceType": "Specimen",
        "id": "d449cb66-9c58-4e19-a486-8ab063834d47",
        "meta": {
          "profile": [
            "http://hl7.eu/fhir/laboratory/StructureDefinition/Specimen-eu-lab"
          ]
        },
        "collection": {
          "collectedDateTime": "2021-02-11"
        },
        "text": {
          "status": "generated",
          "div": "<div xmlns=\"http://www.w3.org/1999/xhtml\"><table class=\"hl7__eu__lab__report\"><tr><th>Specimen</th><th>Collection Date</th></tr><tr><td>Acellular blood (serum or plasma) specimen</td><td><span class=\"nb\">11-Feb-2021</span></td></tr></table></div>"
        },
        "type": {
          "coding": [
            {
              "code": "122592007",
              "system": "http://snomed.info/sct",
              "display": "Acellular blood (serum or plasma) specimen"
            }
          ]
        }
      }
    },
    {
      "fullUrl": "urn:uuid:97c6137f-da08-49a0-a26c-ba059a88d70a",
      "resource": {
        "resourceType": "Specimen",
        "id": "97c6137f-da08-49a0-a26c-ba059a88d70a",
        "meta": {
          "profile": [
            "http://hl7.eu/fhir/laboratory/StructureDefinition/Specimen-eu-lab"
          ]
        },
        "collection": {
          "collectedDateTime": "2021-02-11"
        },
        "text": {
          "status": "generated",
          "div": "<div xmlns=\"http://www.w3.org/1999/xhtml\"><table class=\"hl7__eu__lab__report\"><tr><th>Specimen</th><th>Collection Date</th></tr><tr><td>Urine specimen</td><td><span class=\"nb\">11-Feb-2021</span></td></tr></table></div>"
        },
        "type": {
          "coding": [
            {
              "code": "122575003",
              "system": "http://snomed.info/sct",
              "display": "Urine specimen"
            }
          ]
        }
      }
    },
    {
      "fullUrl": "urn:uuid:b59f1014-9d1f-4554-a9b1-13217ea85a7b",
      "resource": {
        "resourceType": "Specimen",
        "id": "b59f1014-9d1f-4554-a9b1-13217ea85a7b",
        "meta": {
          "profile": [
            "http://hl7.eu/fhir/laboratory/StructureDefinition/Specimen-eu-lab"
          ]
        },
        "collection": {
          "collectedDateTime": "2021-02-11"
        },
        "text": {
          "status": "generated",
          "div": "<div xmlns=\"http://www.w3.org/1999/xhtml\"><table class=\"hl7__eu__lab__report\"><tr><th>Specimen</th><th>Collection Date</th></tr><tr><td>Whole blood specimen (specimen)</td><td><span class=\"nb\">11-Feb-2021</span></td></tr></table></div>"
        },
        "type": {
          "coding": [
            {
              "code": "258580003",
              "system": "http://snomed.info/sct",
              "display": "Whole blood specimen (specimen)"
            }
          ]
        }
      }
    },
    {
      "fullUrl": "urn:uuid:c9c5acfa-bc3a-44d8-a093-9c016679e26f",
      "resource": {
        "resourceType": "Observation",
        "id": "c9c5acfa-bc3a-44d8-a093-9c016679e26f",
        "meta": {
          "profile": [
            "http://hl7.eu/fhir/laboratory/StructureDefinition/Observation-resultslab-eu-lab"
          ]
        },
        "performer": [
          {
            "display": "The Central European Lab"
          }
        ],
        "category": [
          {
            "coding": [
              {
                "system": "http://terminology.hl7.org/CodeSystem/observation-category",
                "code": "laboratory"
              }
            ]
          }
        ],
        "code": {
          "coding": [
            {
              "code": "2345-7",
              "system": "http://loinc.org",
              "display": "Glucose [Mass/volume] in Serum or Plasma"
            }
          ],
          "text": "Glucose [Mass/volume] in Serum or Plasma"
        },
        "valueQuantity": {
          "system": "http://unitsofmeasure.org",
          "value": 65.3,
          "unit": "mg/dL",
          "code": "mg/dL"
        },
        "referenceRange": [
          {
            "low": {
              "value": 70,
              "code": "mg/dL",
              "system": "http://unitsofmeasure.org"
            }
          },
          {
            "high": {
              "value": 140,
              "code": "mg/dL",
              "system": "http://unitsofmeasure.org"
            }
          }
        ],
        "interpretation": [
          {
            "coding": [
              {
                "code": "L",
                "system": "http://terminology.hl7.org/CodeSystem/v3-ObservationInterpretation",
                "display": "Low"
              }
            ]
          }
        ],
        "text": {
          "status": "generated",
          "div": "<div xmlns=\"http://www.w3.org/1999/xhtml\"><table class=\"hl7__eu__lab__report\"><tr><th>Test</th><th>11-Feb-2021</th><th>Reference&#xA0;Range</th><th>Unit</th></tr><tr><td>Glucose [Mass/volume] in Serum or Plasma</td><td>65.3</td><td>70 - 140</td><td>L</td><td>mg/dL</td></tr></table></div>"
        },
        "status": "final",
        "subject": {
          "reference": "urn:uuid:8e9738c1-10c2-43f0-8dfb-8607f2372501",
          "display": "Pelayo Casal"
        },
        "effectiveDateTime": "2021-02-11T05:38:59Z",
        "specimen": {
          "reference": "urn:uuid:d449cb66-9c58-4e19-a486-8ab063834d47"
        }
      }
    },
    {
      "fullUrl": "urn:uuid:ec09fb4e-317c-40c8-80d2-0a4ee83534e4",
      "resource": {
        "resourceType": "Observation",
        "id": "ec09fb4e-317c-40c8-80d2-0a4ee83534e4",
        "meta": {
          "profile": [
            "http://hl7.eu/fhir/laboratory/StructureDefinition/Observation-resultslab-eu-lab"
          ]
        },
        "performer": [
          {
            "display": "The Central European Lab"
          }
        ],
        "category": [
          {
            "coding": [
              {
                "system": "http://terminology.hl7.org/CodeSystem/observation-category",
                "code": "laboratory"
              }
            ]
          }
        ],
        "code": {
          "coding": [
            {
              "code": "3094-0",
              "system": "http://loinc.org",
              "display": "Urea nitrogen [Mass/volume] in Serum or Plasma"
            }
          ],
          "text": "Urea nitrogen [Mass/volume] in Serum or Plasma"
        },
        "valueQuantity": {
          "system": "http://unitsofmeasure.org",
          "value": 8.1,
          "unit": "mg/dL",
          "code": "mg/dL"
        },
        "referenceRange": [
          {
            "low": {
              "value": 7,
              "code": "mg/dL",
              "system": "http://unitsofmeasure.org"
            }
          },
          {
            "high": {
              "value": 25,
              "code": "mg/dL",
              "system": "http://unitsofmeasure.org"
            }
          }
        ],
        "text": {
          "status": "generated",
          "div": "<div xmlns=\"http://www.w3.org/1999/xhtml\"><table class=\"hl7__eu__lab__report\"><tr><th>Test</th><th>11-Feb-2021</th><th>Reference&#xA0;Range</th><th>Unit</th></tr><tr><td>Urea nitrogen [Mass/volume] in Serum or Plasma</td><td>8.1</td><td>7 - 25</td><td></td><td>mg/dL</td></tr></table></div>"
        },
        "status": "final",
        "subject": {
          "reference": "urn:uuid:8e9738c1-10c2-43f0-8dfb-8607f2372501",
          "display": "Pelayo Casal"
        },
        "effectiveDateTime": "2021-02-11T05:38:59Z",
        "specimen": {
          "reference": "urn:uuid:d449cb66-9c58-4e19-a486-8ab063834d47"
        }
      }
    },
    {
      "fullUrl": "urn:uuid:5760d308-70ca-49e6-9a88-70ca9df921aa",
      "resource": {
        "resourceType": "Observation",
        "id": "5760d308-70ca-49e6-9a88-70ca9df921aa",
        "meta": {
          "profile": [
            "http://hl7.eu/fhir/laboratory/StructureDefinition/Observation-resultslab-eu-lab"
          ]
        },
        "performer": [
          {
            "display": "The Central European Lab"
          }
        ],
        "category": [
          {
            "coding": [
              {
                "system": "http://terminology.hl7.org/CodeSystem/observation-category",
                "code": "laboratory"
              }
            ]
          }
        ],
        "code": {
          "coding": [
            {
              "code": "2160-0",
              "system": "http://loinc.org",
              "display": "Creatinine [Mass/volume] in Serum or Plasma"
            }
          ],
          "text": "Creatinine [Mass/volume] in Serum or Plasma"
        },
        "valueQuantity": {
          "system": "http://unitsofmeasure.org",
          "value": 2.1,
          "unit": "mg/dL",
          "code": "mg/dL"
        },
        "referenceRange": [
          {
            "low": {
              "value": 0.9,
              "code": "mg/dL",
              "system": "http://unitsofmeasure.org"
            }
          },
          {
            "high": {
              "value": 1.3,
              "code": "mg/dL",
              "system": "http://unitsofmeasure.org"
            }
          }
        ],
        "interpretation": [
          {
            "coding": [
              {
                "code": "H",
                "system": "http://terminology.hl7.org/CodeSystem/v3-ObservationInterpretation",
                "display": "High"
              }
            ]
          }
        ],
        "text": {
          "status": "generated",
          "div": "<div xmlns=\"http://www.w3.org/1999/xhtml\"><table class=\"hl7__eu__lab__report\"><tr><th>Test</th><th>11-Feb-2021</th><th>Reference&#xA0;Range</th><th>Unit</th></tr><tr><td>Creatinine [Mass/volume] in Serum or Plasma</td><td>2.1</td><td>0.9 - 1.3</td><td>H</td><td>mg/dL</td></tr></table></div>"
        },
        "status": "final",
        "subject": {
          "reference": "urn:uuid:8e9738c1-10c2-43f0-8dfb-8607f2372501",
          "display": "Pelayo Casal"
        },
        "effectiveDateTime": "2021-02-11T05:38:59Z",
        "specimen": {
          "reference": "urn:uuid:d449cb66-9c58-4e19-a486-8ab063834d47"
        }
      }
    },
    {
      "fullUrl": "urn:uuid:5dfe77a7-2b81-4af3-a254-51ec4a756beb",
      "resource": {
        "resourceType": "Observation",
        "id": "5dfe77a7-2b81-4af3-a254-51ec4a756beb",
        "meta": {
          "profile": [
            "http://hl7.eu/fhir/laboratory/StructureDefinition/Observation-resultslab-eu-lab"
          ]
        },
        "performer": [
          {
            "display": "The Central European Lab"
          }
        ],
        "category": [
          {
            "coding": [
              {
                "system": "http://terminology.hl7.org/CodeSystem/observation-category",
                "code": "laboratory"
              }
            ]
          }
        ],
        "code": {
          "coding": [
            {
              "code": "17861-6",
              "system": "http://loinc.org",
              "display": "Calcium [Mass/volume] in Serum or Plasma"
            }
          ],
          "text": "Calcium [Mass/volume] in Serum or Plasma"
        },
        "valueQuantity": {
          "system": "http://unitsofmeasure.org",
          "value": 10.2,
          "unit": "mg/dL",
          "code": "mg/dL"
        },
        "referenceRange": [
          {
            "low": {
              "value": 8.5,
              "code": "mg/dL",
              "system": "http://unitsofmeasure.org"
            }
          },
          {
            "high": {
              "value": 10.5,
              "code": "mg/dL",
              "system": "http://unitsofmeasure.org"
            }
          }
        ],
        "text": {
          "status": "generated",
          "div": "<div xmlns=\"http://www.w3.org/1999/xhtml\"><table class=\"hl7__eu__lab__report\"><tr><th>Test</th><th>11-Feb-2021</th><th>Reference&#xA0;Range</th><th>Unit</th></tr><tr><td>Calcium [Mass/volume] in Serum or Plasma</td><td>10.2</td><td>8.5 - 10.5</td><td></td><td>mg/dL</td></tr></table></div>"
        },
        "status": "final",
        "subject": {
          "reference": "urn:uuid:8e9738c1-10c2-43f0-8dfb-8607f2372501",
          "display": "Pelayo Casal"
        },
        "effectiveDateTime": "2021-02-11T05:38:59Z",
        "specimen": {
          "reference": "urn:uuid:d449cb66-9c58-4e19-a486-8ab063834d47"
        }
      }
    },
    {
      "fullUrl": "urn:uuid:db8f8105-5e93-496c-9216-0b9d1b2f34de",
      "resource": {
        "resourceType": "Observation",
        "id": "db8f8105-5e93-496c-9216-0b9d1b2f34de",
        "meta": {
          "profile": [
            "http://hl7.eu/fhir/laboratory/StructureDefinition/Observation-resultslab-eu-lab"
          ]
        },
        "performer": [
          {
            "display": "The Central European Lab"
          }
        ],
        "category": [
          {
            "coding": [
              {
                "system": "http://terminology.hl7.org/CodeSystem/observation-category",
                "code": "laboratory"
              }
            ]
          }
        ],
        "code": {
          "coding": [
            {
              "code": "2951-2",
              "system": "http://loinc.org",
              "display": "Sodium [Moles/volume] in Serum or Plasma"
            }
          ],
          "text": "Sodium [Moles/volume] in Serum or Plasma"
        },
        "valueQuantity": {
          "system": "http://unitsofmeasure.org",
          "value": 140.4,
          "unit": "mmol/L",
          "code": "mmol/L"
        },
        "referenceRange": [
          {
            "low": {
              "value": 135,
              "code": "mmol/L",
              "system": "http://unitsofmeasure.org"
            }
          },
          {
            "high": {
              "value": 145,
              "code": "mmol/L",
              "system": "http://unitsofmeasure.org"
            }
          }
        ],
        "text": {
          "status": "generated",
          "div": "<div xmlns=\"http://www.w3.org/1999/xhtml\"><table class=\"hl7__eu__lab__report\"><tr><th>Test</th><th>11-Feb-2021</th><th>Reference&#xA0;Range</th><th>Unit</th></tr><tr><td>Sodium [Moles/volume] in Serum or Plasma</td><td>140.4</td><td>135 - 145</td><td></td><td>mmol/L</td></tr></table></div>"
        },
        "status": "final",
        "subject": {
          "reference": "urn:uuid:8e9738c1-10c2-43f0-8dfb-8607f2372501",
          "display": "Pelayo Casal"
        },
        "effectiveDateTime": "2021-02-11T05:38:59Z",
        "specimen": {
          "reference": "urn:uuid:d449cb66-9c58-4e19-a486-8ab063834d47"
        }
      }
    },
    {
      "fullUrl": "urn:uuid:e2e3a031-b5b9-4df6-9ca1-82e90346ee17",
      "resource": {
        "resourceType": "Observation",
        "id": "e2e3a031-b5b9-4df6-9ca1-82e90346ee17",
        "meta": {
          "profile": [
            "http://hl7.eu/fhir/laboratory/StructureDefinition/Observation-resultslab-eu-lab"
          ]
        },
        "performer": [
          {
            "display": "The Central European Lab"
          }
        ],
        "category": [
          {
            "coding": [
              {
                "system": "http://terminology.hl7.org/CodeSystem/observation-category",
                "code": "laboratory"
              }
            ]
          }
        ],
        "code": {
          "coding": [
            {
              "code": "2823-3",
              "system": "http://loinc.org",
              "display": "Potassium [Moles/volume] in Serum or Plasma"
            }
          ],
          "text": "Potassium [Moles/volume] in Serum or Plasma"
        },
        "valueQuantity": {
          "system": "http://unitsofmeasure.org",
          "value": 3.9,
          "unit": "mmol/L",
          "code": "mmol/L"
        },
        "referenceRange": [
          {
            "low": {
              "value": 3.5,
              "code": "mmol/L",
              "system": "http://unitsofmeasure.org"
            }
          },
          {
            "high": {
              "value": 5.3,
              "code": "mmol/L",
              "system": "http://unitsofmeasure.org"
            }
          }
        ],
        "text": {
          "status": "generated",
          "div": "<div xmlns=\"http://www.w3.org/1999/xhtml\"><table class=\"hl7__eu__lab__report\"><tr><th>Test</th><th>11-Feb-2021</th><th>Reference&#xA0;Range</th><th>Unit</th></tr><tr><td>Potassium [Moles/volume] in Serum or Plasma</td><td>3.9</td><td>3.5 - 5.3</td><td></td><td>mmol/L</td></tr></table></div>"
        },
        "status": "final",
        "subject": {
          "reference": "urn:uuid:8e9738c1-10c2-43f0-8dfb-8607f2372501",
          "display": "Pelayo Casal"
        },
        "effectiveDateTime": "2021-02-11T05:38:59Z",
        "specimen": {
          "reference": "urn:uuid:d449cb66-9c58-4e19-a486-8ab063834d47"
        }
      }
    },
    {
      "fullUrl": "urn:uuid:3796e3bb-83ca-4971-af3b-ee7d7032d4cd",
      "resource": {
        "resourceType": "Observation",
        "id": "3796e3bb-83ca-4971-af3b-ee7d7032d4cd",
        "meta": {
          "profile": [
            "http://hl7.eu/fhir/laboratory/StructureDefinition/Observation-resultslab-eu-lab"
          ]
        },
        "performer": [
          {
            "display": "The Central European Lab"
          }
        ],
        "category": [
          {
            "coding": [
              {
                "system": "http://terminology.hl7.org/CodeSystem/observation-category",
                "code": "laboratory"
              }
            ]
          }
        ],
        "code": {
          "coding": [
            {
              "code": "2075-0",
              "system": "http://loinc.org",
              "display": "Chloride [Moles/volume] in Serum or Plasma"
            }
          ],
          "text": "Chloride [Moles/volume] in Serum or Plasma"
        },
        "valueQuantity": {
          "system": "http://unitsofmeasure.org",
          "value": 106.6,
          "unit": "mmol/L",
          "code": "mmol/L"
        },
        "referenceRange": [
          {
            "low": {
              "value": 98,
              "code": "mmol/L",
              "system": "http://unitsofmeasure.org"
            }
          },
          {
            "high": {
              "value": 107,
              "code": "mmol/L",
              "system": "http://unitsofmeasure.org"
            }
          }
        ],
        "text": {
          "status": "generated",
          "div": "<div xmlns=\"http://www.w3.org/1999/xhtml\"><table class=\"hl7__eu__lab__report\"><tr><th>Test</th><th>11-Feb-2021</th><th>Reference&#xA0;Range</th><th>Unit</th></tr><tr><td>Chloride [Moles/volume] in Serum or Plasma</td><td>106.6</td><td>98 - 107</td><td></td><td>mmol/L</td></tr></table></div>"
        },
        "status": "final",
        "subject": {
          "reference": "urn:uuid:8e9738c1-10c2-43f0-8dfb-8607f2372501",
          "display": "Pelayo Casal"
        },
        "effectiveDateTime": "2021-02-11T05:38:59Z",
        "specimen": {
          "reference": "urn:uuid:d449cb66-9c58-4e19-a486-8ab063834d47"
        }
      }
    },
    {
      "fullUrl": "urn:uuid:51507839-2380-4386-87fe-fc1f0725345f",
      "resource": {
        "resourceType": "Observation",
        "id": "51507839-2380-4386-87fe-fc1f0725345f",
        "meta": {
          "profile": [
            "http://hl7.eu/fhir/laboratory/StructureDefinition/Observation-resultslab-eu-lab"
          ]
        },
        "performer": [
          {
            "display": "The Central European Lab"
          }
        ],
        "category": [
          {
            "coding": [
              {
                "system": "http://terminology.hl7.org/CodeSystem/observation-category",
                "code": "laboratory"
              }
            ]
          }
        ],
        "code": {
          "coding": [
            {
              "code": "2028-9",
              "system": "http://loinc.org",
              "display": "Carbon dioxide, total [Moles/volume] in Serum or Plasma"
            }
          ],
          "text": "Carbon dioxide, total [Moles/volume] in Serum or Plasma"
        },
        "valueQuantity": {
          "system": "http://unitsofmeasure.org",
          "value": 25.4,
          "unit": "mmol/L",
          "code": "mmol/L"
        },
        "referenceRange": [
          {
            "low": {
              "value": 22,
              "code": "mmol/L",
              "system": "http://unitsofmeasure.org"
            }
          },
          {
            "high": {
              "value": 29,
              "code": "mmol/L",
              "system": "http://unitsofmeasure.org"
            }
          }
        ],
        "text": {
          "status": "generated",
          "div": "<div xmlns=\"http://www.w3.org/1999/xhtml\"><table class=\"hl7__eu__lab__report\"><tr><th>Test</th><th>11-Feb-2021</th><th>Reference&#xA0;Range</th><th>Unit</th></tr><tr><td>Carbon dioxide, total [Moles/volume] in Serum or Plasma</td><td>25.4</td><td>22 - 29</td><td></td><td>mmol/L</td></tr></table></div>"
        },
        "status": "final",
        "subject": {
          "reference": "urn:uuid:8e9738c1-10c2-43f0-8dfb-8607f2372501",
          "display": "Pelayo Casal"
        },
        "effectiveDateTime": "2021-02-11T05:38:59Z",
        "specimen": {
          "reference": "urn:uuid:d449cb66-9c58-4e19-a486-8ab063834d47"
        }
      }
    },
    {
      "fullUrl": "urn:uuid:58c2638b-2341-46ab-97ba-f2ca2ee44912",
      "resource": {
        "resourceType": "Observation",
        "id": "58c2638b-2341-46ab-97ba-f2ca2ee44912",
        "meta": {
          "profile": [
            "http://hl7.eu/fhir/laboratory/StructureDefinition/Observation-resultslab-eu-lab"
          ]
        },
        "performer": [
          {
            "display": "The Central European Lab"
          }
        ],
        "category": [
          {
            "coding": [
              {
                "system": "http://terminology.hl7.org/CodeSystem/observation-category",
                "code": "laboratory"
              }
            ]
          }
        ],
        "code": {
          "coding": [
            {
              "code": "5767-9",
              "system": "http://loinc.org",
              "display": "Appearance of Urine"
            }
          ],
          "text": "Appearance of Urine"
        },
        "text": {
          "status": "generated",
          "div": "<div xmlns=\"http://www.w3.org/1999/xhtml\"><table class=\"hl7__eu__lab__report\"><tr><th>Test</th><th>11-Feb-2021</th><th>Reference&#xA0;Range</th><th>Unit</th></tr><tr><td>Appearance of Urine</td></tr></table></div>"
        },
        "status": "final",
        "subject": {
          "reference": "urn:uuid:8e9738c1-10c2-43f0-8dfb-8607f2372501",
          "display": "Pelayo Casal"
        },
        "effectiveDateTime": "2021-02-11T05:38:59Z",
        "specimen": {
          "reference": "urn:uuid:97c6137f-da08-49a0-a26c-ba059a88d70a"
        }
      }
    },
    {
      "fullUrl": "urn:uuid:e7c0e305-d12b-4bb2-a3c9-4036585b3412",
      "resource": {
        "resourceType": "Observation",
        "id": "e7c0e305-d12b-4bb2-a3c9-4036585b3412",
        "meta": {
          "profile": [
            "http://hl7.eu/fhir/laboratory/StructureDefinition/Observation-resultslab-eu-lab"
          ]
        },
        "performer": [
          {
            "display": "The Central European Lab"
          }
        ],
        "category": [
          {
            "coding": [
              {
                "system": "http://terminology.hl7.org/CodeSystem/observation-category",
                "code": "laboratory"
              }
            ]
          }
        ],
        "code": {
          "coding": [
            {
              "code": "34533-0",
              "system": "http://loinc.org",
              "display": "Odor of Urine"
            }
          ],
          "text": "Odor of Urine"
        },
        "text": {
          "status": "generated",
          "div": "<div xmlns=\"http://www.w3.org/1999/xhtml\"><table class=\"hl7__eu__lab__report\"><tr><th>Test</th><th>11-Feb-2021</th><th>Reference&#xA0;Range</th><th>Unit</th></tr><tr><td>Odor of Urine</td></tr></table></div>"
        },
        "status": "final",
        "subject": {
          "reference": "urn:uuid:8e9738c1-10c2-43f0-8dfb-8607f2372501",
          "display": "Pelayo Casal"
        },
        "effectiveDateTime": "2021-02-11T05:38:59Z",
        "specimen": {
          "reference": "urn:uuid:97c6137f-da08-49a0-a26c-ba059a88d70a"
        }
      }
    },
    {
      "fullUrl": "urn:uuid:70c9f5fc-a422-47f3-aab2-8968b7bffea4",
      "resource": {
        "resourceType": "Observation",
        "id": "70c9f5fc-a422-47f3-aab2-8968b7bffea4",
        "meta": {
          "profile": [
            "http://hl7.eu/fhir/laboratory/StructureDefinition/Observation-resultslab-eu-lab"
          ]
        },
        "performer": [
          {
            "display": "The Central European Lab"
          }
        ],
        "category": [
          {
            "coding": [
              {
                "system": "http://terminology.hl7.org/CodeSystem/observation-category",
                "code": "laboratory"
              }
            ]
          }
        ],
        "code": {
          "coding": [
            {
              "code": "32167-9",
              "system": "http://loinc.org",
              "display": "Clarity of Urine"
            }
          ],
          "text": "Clarity of Urine"
        },
        "text": {
          "status": "generated",
          "div": "<div xmlns=\"http://www.w3.org/1999/xhtml\"><table class=\"hl7__eu__lab__report\"><tr><th>Test</th><th>11-Feb-2021</th><th>Reference&#xA0;Range</th><th>Unit</th></tr><tr><td>Clarity of Urine</td></tr></table></div>"
        },
        "status": "final",
        "subject": {
          "reference": "urn:uuid:8e9738c1-10c2-43f0-8dfb-8607f2372501",
          "display": "Pelayo Casal"
        },
        "effectiveDateTime": "2021-02-11T05:38:59Z",
        "specimen": {
          "reference": "urn:uuid:97c6137f-da08-49a0-a26c-ba059a88d70a"
        }
      }
    },
    {
      "fullUrl": "urn:uuid:808dbba9-0483-4fa7-841a-9c9b060ab631",
      "resource": {
        "resourceType": "Observation",
        "id": "808dbba9-0483-4fa7-841a-9c9b060ab631",
        "meta": {
          "profile": [
            "http://hl7.eu/fhir/laboratory/StructureDefinition/Observation-resultslab-eu-lab"
          ]
        },
        "performer": [
          {
            "display": "The Central European Lab"
          }
        ],
        "category": [
          {
            "coding": [
              {
                "system": "http://terminology.hl7.org/CodeSystem/observation-category",
                "code": "laboratory"
              }
            ]
          }
        ],
        "code": {
          "coding": [
            {
              "code": "5778-6",
              "system": "http://loinc.org",
              "display": "Color of Urine"
            }
          ],
          "text": "Color of Urine"
        },
        "text": {
          "status": "generated",
          "div": "<div xmlns=\"http://www.w3.org/1999/xhtml\"><table class=\"hl7__eu__lab__report\"><tr><th>Test</th><th>11-Feb-2021</th><th>Reference&#xA0;Range</th><th>Unit</th></tr><tr><td>Color of Urine</td></tr></table></div>"
        },
        "status": "final",
        "subject": {
          "reference": "urn:uuid:8e9738c1-10c2-43f0-8dfb-8607f2372501",
          "display": "Pelayo Casal"
        },
        "effectiveDateTime": "2021-02-11T05:38:59Z",
        "specimen": {
          "reference": "urn:uuid:97c6137f-da08-49a0-a26c-ba059a88d70a"
        }
      }
    },
    {
      "fullUrl": "urn:uuid:7b758323-4b6e-44ea-ae64-9ef175a7136f",
      "resource": {
        "resourceType": "Observation",
        "id": "7b758323-4b6e-44ea-ae64-9ef175a7136f",
        "meta": {
          "profile": [
            "http://hl7.eu/fhir/laboratory/StructureDefinition/Observation-resultslab-eu-lab"
          ]
        },
        "performer": [
          {
            "display": "The Central European Lab"
          }
        ],
        "category": [
          {
            "coding": [
              {
                "system": "http://terminology.hl7.org/CodeSystem/observation-category",
                "code": "laboratory"
              }
            ]
          }
        ],
        "code": {
          "coding": [
            {
              "code": "5792-7",
              "system": "http://loinc.org",
              "display": "Glucose [Mass/volume] in Urine by Test strip"
            }
          ],
          "text": "Glucose [Mass/volume] in Urine by Test strip"
        },
        "valueQuantity": {
          "system": "http://unitsofmeasure.org",
          "value": 2.2,
          "unit": "mg/dL",
          "code": "mg/dL"
        },
        "referenceRange": [
          {
            "low": {
              "value": 0.8,
              "code": "mg/dL",
              "system": "http://unitsofmeasure.org"
            }
          },
          {
            "high": {
              "value": 0,
              "code": "mg/dL",
              "system": "http://unitsofmeasure.org"
            }
          }
        ],
        "interpretation": [
          {
            "coding": [
              {
                "code": "H",
                "system": "http://terminology.hl7.org/CodeSystem/v3-ObservationInterpretation",
                "display": "High"
              }
            ]
          }
        ],
        "text": {
          "status": "generated",
          "div": "<div xmlns=\"http://www.w3.org/1999/xhtml\"><table class=\"hl7__eu__lab__report\"><tr><th>Test</th><th>11-Feb-2021</th><th>Reference&#xA0;Range</th><th>Unit</th></tr><tr><td>Glucose [Mass/volume] in Urine by Test strip</td><td>2.2</td><td>0.8 - 0</td><td>H</td><td>mg/dL</td></tr></table></div>"
        },
        "status": "final",
        "subject": {
          "reference": "urn:uuid:8e9738c1-10c2-43f0-8dfb-8607f2372501",
          "display": "Pelayo Casal"
        },
        "effectiveDateTime": "2021-02-11T05:38:59Z",
        "specimen": {
          "reference": "urn:uuid:97c6137f-da08-49a0-a26c-ba059a88d70a"
        }
      }
    },
    {
      "fullUrl": "urn:uuid:c9097aee-d0e6-4c70-a698-3249dc4160d8",
      "resource": {
        "resourceType": "Observation",
        "id": "c9097aee-d0e6-4c70-a698-3249dc4160d8",
        "meta": {
          "profile": [
            "http://hl7.eu/fhir/laboratory/StructureDefinition/Observation-resultslab-eu-lab"
          ]
        },
        "performer": [
          {
            "display": "The Central European Lab"
          }
        ],
        "category": [
          {
            "coding": [
              {
                "system": "http://terminology.hl7.org/CodeSystem/observation-category",
                "code": "laboratory"
              }
            ]
          }
        ],
        "code": {
          "coding": [
            {
              "code": "25428-4",
              "system": "http://loinc.org",
              "display": "Glucose [Presence] in Urine by Test strip"
            }
          ],
          "text": "Glucose [Presence] in Urine by Test strip"
        },
        "text": {
          "status": "generated",
          "div": "<div xmlns=\"http://www.w3.org/1999/xhtml\"><table class=\"hl7__eu__lab__report\"><tr><th>Test</th><th>11-Feb-2021</th><th>Reference&#xA0;Range</th><th>Unit</th></tr><tr><td>Glucose [Presence] in Urine by Test strip</td></tr></table></div>"
        },
        "status": "final",
        "subject": {
          "reference": "urn:uuid:8e9738c1-10c2-43f0-8dfb-8607f2372501",
          "display": "Pelayo Casal"
        },
        "effectiveDateTime": "2021-02-11T05:38:59Z",
        "specimen": {
          "reference": "urn:uuid:97c6137f-da08-49a0-a26c-ba059a88d70a"
        }
      }
    },
    {
      "fullUrl": "urn:uuid:d7600bce-3ac2-4df0-8bc9-b7e302dfacd8",
      "resource": {
        "resourceType": "Observation",
        "id": "d7600bce-3ac2-4df0-8bc9-b7e302dfacd8",
        "meta": {
          "profile": [
            "http://hl7.eu/fhir/laboratory/StructureDefinition/Observation-resultslab-eu-lab"
          ]
        },
        "performer": [
          {
            "display": "The Central European Lab"
          }
        ],
        "category": [
          {
            "coding": [
              {
                "system": "http://terminology.hl7.org/CodeSystem/observation-category",
                "code": "laboratory"
              }
            ]
          }
        ],
        "code": {
          "coding": [
            {
              "code": "20505-4",
              "system": "http://loinc.org",
              "display": "Bilirubin.total [Mass/volume] in Urine by Test strip"
            }
          ],
          "text": "Bilirubin.total [Mass/volume] in Urine by Test strip"
        },
        "valueQuantity": {
          "system": "http://unitsofmeasure.org",
          "value": 1.2,
          "unit": "mg/dL",
          "code": "mg/dL"
        },
        "referenceRange": [
          {
            "low": {
              "value": 0.2,
              "code": "mg/dL",
              "system": "http://unitsofmeasure.org"
            }
          },
          {
            "high": {
              "value": 1.5,
              "code": "mg/dL",
              "system": "http://unitsofmeasure.org"
            }
          }
        ],
        "text": {
          "status": "generated",
          "div": "<div xmlns=\"http://www.w3.org/1999/xhtml\"><table class=\"hl7__eu__lab__report\"><tr><th>Test</th><th>11-Feb-2021</th><th>Reference&#xA0;Range</th><th>Unit</th></tr><tr><td>Bilirubin.total [Mass/volume] in Urine by Test strip</td><td>1.2</td><td>0.2 - 1.5</td><td></td><td>mg/dL</td></tr></table></div>"
        },
        "status": "final",
        "subject": {
          "reference": "urn:uuid:8e9738c1-10c2-43f0-8dfb-8607f2372501",
          "display": "Pelayo Casal"
        },
        "effectiveDateTime": "2021-02-11T05:38:59Z",
        "specimen": {
          "reference": "urn:uuid:97c6137f-da08-49a0-a26c-ba059a88d70a"
        }
      }
    },
    {
      "fullUrl": "urn:uuid:0c8d25cb-c799-490b-beaa-f3ca5f3cca50",
      "resource": {
        "resourceType": "Observation",
        "id": "0c8d25cb-c799-490b-beaa-f3ca5f3cca50",
        "meta": {
          "profile": [
            "http://hl7.eu/fhir/laboratory/StructureDefinition/Observation-resultslab-eu-lab"
          ]
        },
        "performer": [
          {
            "display": "The Central European Lab"
          }
        ],
        "category": [
          {
            "coding": [
              {
                "system": "http://terminology.hl7.org/CodeSystem/observation-category",
                "code": "laboratory"
              }
            ]
          }
        ],
        "code": {
          "coding": [
            {
              "code": "5770-3",
              "system": "http://loinc.org",
              "display": "Bilirubin.total [Presence] in Urine by Test strip"
            }
          ],
          "text": "Bilirubin.total [Presence] in Urine by Test strip"
        },
        "text": {
          "status": "generated",
          "div": "<div xmlns=\"http://www.w3.org/1999/xhtml\"><table class=\"hl7__eu__lab__report\"><tr><th>Test</th><th>11-Feb-2021</th><th>Reference&#xA0;Range</th><th>Unit</th></tr><tr><td>Bilirubin.total [Presence] in Urine by Test strip</td></tr></table></div>"
        },
        "status": "final",
        "subject": {
          "reference": "urn:uuid:8e9738c1-10c2-43f0-8dfb-8607f2372501",
          "display": "Pelayo Casal"
        },
        "effectiveDateTime": "2021-02-11T05:38:59Z",
        "specimen": {
          "reference": "urn:uuid:97c6137f-da08-49a0-a26c-ba059a88d70a"
        }
      }
    },
    {
      "fullUrl": "urn:uuid:1f4caff3-075c-4395-a8dc-b034b86bbf2f",
      "resource": {
        "resourceType": "Observation",
        "id": "1f4caff3-075c-4395-a8dc-b034b86bbf2f",
        "meta": {
          "profile": [
            "http://hl7.eu/fhir/laboratory/StructureDefinition/Observation-resultslab-eu-lab"
          ]
        },
        "performer": [
          {
            "display": "The Central European Lab"
          }
        ],
        "category": [
          {
            "coding": [
              {
                "system": "http://terminology.hl7.org/CodeSystem/observation-category",
                "code": "laboratory"
              }
            ]
          }
        ],
        "code": {
          "coding": [
            {
              "code": "5797-6",
              "system": "http://loinc.org",
              "display": "Ketones [Mass/volume] in Urine by Test strip"
            }
          ],
          "text": "Ketones [Mass/volume] in Urine by Test strip"
        },
        "valueQuantity": {
          "system": "http://unitsofmeasure.org",
          "value": 0.8,
          "unit": "mg/dL",
          "code": "mg/dL"
        },
        "referenceRange": [
          {
            "low": {
              "value": 0,
              "code": "mg/dL",
              "system": "http://unitsofmeasure.org"
            }
          },
          {
            "high": {
              "value": 4,
              "code": "mg/dL",
              "system": "http://unitsofmeasure.org"
            }
          }
        ],
        "text": {
          "status": "generated",
          "div": "<div xmlns=\"http://www.w3.org/1999/xhtml\"><table class=\"hl7__eu__lab__report\"><tr><th>Test</th><th>11-Feb-2021</th><th>Reference&#xA0;Range</th><th>Unit</th></tr><tr><td>Ketones [Mass/volume] in Urine by Test strip</td><td>0.8</td><td>0 - 4</td><td></td><td>mg/dL</td></tr></table></div>"
        },
        "status": "final",
        "subject": {
          "reference": "urn:uuid:8e9738c1-10c2-43f0-8dfb-8607f2372501",
          "display": "Pelayo Casal"
        },
        "effectiveDateTime": "2021-02-11T05:38:59Z",
        "specimen": {
          "reference": "urn:uuid:97c6137f-da08-49a0-a26c-ba059a88d70a"
        }
      }
    },
    {
      "fullUrl": "urn:uuid:0ca2b2a1-c440-4331-86ac-c9c26ceca38b",
      "resource": {
        "resourceType": "Observation",
        "id": "0ca2b2a1-c440-4331-86ac-c9c26ceca38b",
        "meta": {
          "profile": [
            "http://hl7.eu/fhir/laboratory/StructureDefinition/Observation-resultslab-eu-lab"
          ]
        },
        "performer": [
          {
            "display": "The Central European Lab"
          }
        ],
        "category": [
          {
            "coding": [
              {
                "system": "http://terminology.hl7.org/CodeSystem/observation-category",
                "code": "laboratory"
              }
            ]
          }
        ],
        "code": {
          "coding": [
            {
              "code": "2514-8",
              "system": "http://loinc.org",
              "display": "Ketones [Presence] in Urine by Test strip"
            }
          ],
          "text": "Ketones [Presence] in Urine by Test strip"
        },
        "text": {
          "status": "generated",
          "div": "<div xmlns=\"http://www.w3.org/1999/xhtml\"><table class=\"hl7__eu__lab__report\"><tr><th>Test</th><th>11-Feb-2021</th><th>Reference&#xA0;Range</th><th>Unit</th></tr><tr><td>Ketones [Presence] in Urine by Test strip</td></tr></table></div>"
        },
        "status": "final",
        "subject": {
          "reference": "urn:uuid:8e9738c1-10c2-43f0-8dfb-8607f2372501",
          "display": "Pelayo Casal"
        },
        "effectiveDateTime": "2021-02-11T05:38:59Z",
        "specimen": {
          "reference": "urn:uuid:97c6137f-da08-49a0-a26c-ba059a88d70a"
        }
      }
    },
    {
      "fullUrl": "urn:uuid:8e0b948e-befe-47e2-ac62-f68843d1c276",
      "resource": {
        "resourceType": "Observation",
        "id": "8e0b948e-befe-47e2-ac62-f68843d1c276",
        "meta": {
          "profile": [
            "http://hl7.eu/fhir/laboratory/StructureDefinition/Observation-resultslab-eu-lab"
          ]
        },
        "performer": [
          {
            "display": "The Central European Lab"
          }
        ],
        "category": [
          {
            "coding": [
              {
                "system": "http://terminology.hl7.org/CodeSystem/observation-category",
                "code": "laboratory"
              }
            ]
          }
        ],
        "code": {
          "coding": [
            {
              "code": "5811-5",
              "system": "http://loinc.org",
              "display": "Specific gravity of Urine by Test strip"
            }
          ],
          "text": "Specific gravity of Urine by Test strip"
        },
        "valueQuantity": {
          "system": "http://unitsofmeasure.org",
          "value": 1,
          "unit": "{nominal}",
          "code": "{nominal}"
        },
        "referenceRange": [
          {
            "low": {
              "value": 1.01,
              "code": "g/mL",
              "system": "http://unitsofmeasure.org"
            }
          },
          {
            "high": {
              "value": 1.03,
              "code": "g/mL",
              "system": "http://unitsofmeasure.org"
            }
          }
        ],
        "interpretation": [
          {
            "coding": [
              {
                "code": "L",
                "system": "http://terminology.hl7.org/CodeSystem/v3-ObservationInterpretation",
                "display": "Low"
              }
            ]
          }
        ],
        "text": {
          "status": "generated",
          "div": "<div xmlns=\"http://www.w3.org/1999/xhtml\"><table class=\"hl7__eu__lab__report\"><tr><th>Test</th><th>11-Feb-2021</th><th>Reference&#xA0;Range</th><th>Unit</th></tr><tr><td>Specific gravity of Urine by Test strip</td><td>1.0</td><td>1.01 - 1.03</td><td>L</td><td>{nominal}</td></tr></table></div>"
        },
        "status": "final",
        "subject": {
          "reference": "urn:uuid:8e9738c1-10c2-43f0-8dfb-8607f2372501",
          "display": "Pelayo Casal"
        },
        "effectiveDateTime": "2021-02-11T05:38:59Z",
        "specimen": {
          "reference": "urn:uuid:97c6137f-da08-49a0-a26c-ba059a88d70a"
        }
      }
    },
    {
      "fullUrl": "urn:uuid:3381bdb1-32d3-4a08-905e-95e0a8c85248",
      "resource": {
        "resourceType": "Observation",
        "id": "3381bdb1-32d3-4a08-905e-95e0a8c85248",
        "meta": {
          "profile": [
            "http://hl7.eu/fhir/laboratory/StructureDefinition/Observation-resultslab-eu-lab"
          ]
        },
        "performer": [
          {
            "display": "The Central European Lab"
          }
        ],
        "category": [
          {
            "coding": [
              {
                "system": "http://terminology.hl7.org/CodeSystem/observation-category",
                "code": "laboratory"
              }
            ]
          }
        ],
        "code": {
          "coding": [
            {
              "code": "5803-2",
              "system": "http://loinc.org",
              "display": "pH of Urine by Test strip"
            }
          ],
          "text": "pH of Urine by Test strip"
        },
        "valueQuantity": {
          "system": "http://unitsofmeasure.org",
          "value": 6.8,
          "unit": "pH",
          "code": "pH"
        },
        "referenceRange": [
          {
            "low": {
              "value": 4.5,
              "code": "pH",
              "system": "http://unitsofmeasure.org"
            }
          },
          {
            "high": {
              "value": 7.5,
              "code": "pH",
              "system": "http://unitsofmeasure.org"
            }
          }
        ],
        "text": {
          "status": "generated",
          "div": "<div xmlns=\"http://www.w3.org/1999/xhtml\"><table class=\"hl7__eu__lab__report\"><tr><th>Test</th><th>11-Feb-2021</th><th>Reference&#xA0;Range</th><th>Unit</th></tr><tr><td>pH of Urine by Test strip</td><td>6.8</td><td>4.5 - 7.5</td><td></td><td>pH</td></tr></table></div>"
        },
        "status": "final",
        "subject": {
          "reference": "urn:uuid:8e9738c1-10c2-43f0-8dfb-8607f2372501",
          "display": "Pelayo Casal"
        },
        "effectiveDateTime": "2021-02-11T05:38:59Z",
        "specimen": {
          "reference": "urn:uuid:97c6137f-da08-49a0-a26c-ba059a88d70a"
        }
      }
    },
    {
      "fullUrl": "urn:uuid:d42575a9-b6b0-4f6f-97b8-44725fefa450",
      "resource": {
        "resourceType": "Observation",
        "id": "d42575a9-b6b0-4f6f-97b8-44725fefa450",
        "meta": {
          "profile": [
            "http://hl7.eu/fhir/laboratory/StructureDefinition/Observation-resultslab-eu-lab"
          ]
        },
        "performer": [
          {
            "display": "The Central European Lab"
          }
        ],
        "category": [
          {
            "coding": [
              {
                "system": "http://terminology.hl7.org/CodeSystem/observation-category",
                "code": "laboratory"
              }
            ]
          }
        ],
        "code": {
          "coding": [
            {
              "code": "5804-0",
              "system": "http://loinc.org",
              "display": "Protein [Mass/volume] in Urine by Test strip"
            }
          ],
          "text": "Protein [Mass/volume] in Urine by Test strip"
        },
        "valueQuantity": {
          "system": "http://unitsofmeasure.org",
          "value": 203,
          "unit": "mg/dL",
          "code": "mg/dL"
        },
        "referenceRange": [
          {
            "low": {
              "value": 0,
              "code": "mg/dL",
              "system": "http://unitsofmeasure.org"
            }
          },
          {
            "high": {
              "value": 150,
              "code": "mg/dL",
              "system": "http://unitsofmeasure.org"
            }
          }
        ],
        "interpretation": [
          {
            "coding": [
              {
                "code": "H",
                "system": "http://terminology.hl7.org/CodeSystem/v3-ObservationInterpretation",
                "display": "High"
              }
            ]
          }
        ],
        "text": {
          "status": "generated",
          "div": "<div xmlns=\"http://www.w3.org/1999/xhtml\"><table class=\"hl7__eu__lab__report\"><tr><th>Test</th><th>11-Feb-2021</th><th>Reference&#xA0;Range</th><th>Unit</th></tr><tr><td>Protein [Mass/volume] in Urine by Test strip</td><td>203.0</td><td>0 - 150</td><td>H</td><td>mg/dL</td></tr></table></div>"
        },
        "status": "final",
        "subject": {
          "reference": "urn:uuid:8e9738c1-10c2-43f0-8dfb-8607f2372501",
          "display": "Pelayo Casal"
        },
        "effectiveDateTime": "2021-02-11T05:38:59Z",
        "specimen": {
          "reference": "urn:uuid:97c6137f-da08-49a0-a26c-ba059a88d70a"
        }
      }
    },
    {
      "fullUrl": "urn:uuid:5898715e-1231-4dde-90b6-a896e3d938dd",
      "resource": {
        "resourceType": "Observation",
        "id": "5898715e-1231-4dde-90b6-a896e3d938dd",
        "meta": {
          "profile": [
            "http://hl7.eu/fhir/laboratory/StructureDefinition/Observation-resultslab-eu-lab"
          ]
        },
        "performer": [
          {
            "display": "The Central European Lab"
          }
        ],
        "category": [
          {
            "coding": [
              {
                "system": "http://terminology.hl7.org/CodeSystem/observation-category",
                "code": "laboratory"
              }
            ]
          }
        ],
        "code": {
          "coding": [
            {
              "code": "20454-5",
              "system": "http://loinc.org",
              "display": "Protein [Presence] in Urine by Test strip"
            }
          ],
          "text": "Protein [Presence] in Urine by Test strip"
        },
        "text": {
          "status": "generated",
          "div": "<div xmlns=\"http://www.w3.org/1999/xhtml\"><table class=\"hl7__eu__lab__report\"><tr><th>Test</th><th>11-Feb-2021</th><th>Reference&#xA0;Range</th><th>Unit</th></tr><tr><td>Protein [Presence] in Urine by Test strip</td></tr></table></div>"
        },
        "status": "final",
        "subject": {
          "reference": "urn:uuid:8e9738c1-10c2-43f0-8dfb-8607f2372501",
          "display": "Pelayo Casal"
        },
        "effectiveDateTime": "2021-02-11T05:38:59Z",
        "specimen": {
          "reference": "urn:uuid:97c6137f-da08-49a0-a26c-ba059a88d70a"
        }
      }
    },
    {
      "fullUrl": "urn:uuid:1a09bfe0-2098-424a-9e5d-763c4aa943a8",
      "resource": {
        "resourceType": "Observation",
        "id": "1a09bfe0-2098-424a-9e5d-763c4aa943a8",
        "meta": {
          "profile": [
            "http://hl7.eu/fhir/laboratory/StructureDefinition/Observation-resultslab-eu-lab"
          ]
        },
        "performer": [
          {
            "display": "The Central European Lab"
          }
        ],
        "category": [
          {
            "coding": [
              {
                "system": "http://terminology.hl7.org/CodeSystem/observation-category",
                "code": "laboratory"
              }
            ]
          }
        ],
        "code": {
          "coding": [
            {
              "code": "5802-4",
              "system": "http://loinc.org",
              "display": "Nitrite [Presence] in Urine by Test strip"
            }
          ],
          "text": "Nitrite [Presence] in Urine by Test strip"
        },
        "text": {
          "status": "generated",
          "div": "<div xmlns=\"http://www.w3.org/1999/xhtml\"><table class=\"hl7__eu__lab__report\"><tr><th>Test</th><th>11-Feb-2021</th><th>Reference&#xA0;Range</th><th>Unit</th></tr><tr><td>Nitrite [Presence] in Urine by Test strip</td></tr></table></div>"
        },
        "status": "final",
        "subject": {
          "reference": "urn:uuid:8e9738c1-10c2-43f0-8dfb-8607f2372501",
          "display": "Pelayo Casal"
        },
        "effectiveDateTime": "2021-02-11T05:38:59Z",
        "specimen": {
          "reference": "urn:uuid:97c6137f-da08-49a0-a26c-ba059a88d70a"
        }
      }
    },
    {
      "fullUrl": "urn:uuid:c05391d5-c110-4ad3-b4e5-8bf3fe6f740c",
      "resource": {
        "resourceType": "Observation",
        "id": "c05391d5-c110-4ad3-b4e5-8bf3fe6f740c",
        "meta": {
          "profile": [
            "http://hl7.eu/fhir/laboratory/StructureDefinition/Observation-resultslab-eu-lab"
          ]
        },
        "performer": [
          {
            "display": "The Central European Lab"
          }
        ],
        "category": [
          {
            "coding": [
              {
                "system": "http://terminology.hl7.org/CodeSystem/observation-category",
                "code": "laboratory"
              }
            ]
          }
        ],
        "code": {
          "coding": [
            {
              "code": "5794-3",
              "system": "http://loinc.org",
              "display": "Hemoglobin [Presence] in Urine by Test strip"
            }
          ],
          "text": "Hemoglobin [Presence] in Urine by Test strip"
        },
        "text": {
          "status": "generated",
          "div": "<div xmlns=\"http://www.w3.org/1999/xhtml\"><table class=\"hl7__eu__lab__report\"><tr><th>Test</th><th>11-Feb-2021</th><th>Reference&#xA0;Range</th><th>Unit</th></tr><tr><td>Hemoglobin [Presence] in Urine by Test strip</td></tr></table></div>"
        },
        "status": "final",
        "subject": {
          "reference": "urn:uuid:8e9738c1-10c2-43f0-8dfb-8607f2372501",
          "display": "Pelayo Casal"
        },
        "effectiveDateTime": "2021-02-11T05:38:59Z",
        "specimen": {
          "reference": "urn:uuid:97c6137f-da08-49a0-a26c-ba059a88d70a"
        }
      }
    },
    {
      "fullUrl": "urn:uuid:e6544d18-cb38-4345-acff-6ad415c890e8",
      "resource": {
        "resourceType": "Observation",
        "id": "e6544d18-cb38-4345-acff-6ad415c890e8",
        "meta": {
          "profile": [
            "http://hl7.eu/fhir/laboratory/StructureDefinition/Observation-resultslab-eu-lab"
          ]
        },
        "performer": [
          {
            "display": "The Central European Lab"
          }
        ],
        "category": [
          {
            "coding": [
              {
                "system": "http://terminology.hl7.org/CodeSystem/observation-category",
                "code": "laboratory"
              }
            ]
          }
        ],
        "code": {
          "coding": [
            {
              "code": "5799-2",
              "system": "http://loinc.org",
              "display": "Leukocyte esterase [Presence] in Urine by Test strip"
            }
          ],
          "text": "Leukocyte esterase [Presence] in Urine by Test strip"
        },
        "text": {
          "status": "generated",
          "div": "<div xmlns=\"http://www.w3.org/1999/xhtml\"><table class=\"hl7__eu__lab__report\"><tr><th>Test</th><th>11-Feb-2021</th><th>Reference&#xA0;Range</th><th>Unit</th></tr><tr><td>Leukocyte esterase [Presence] in Urine by Test strip</td></tr></table></div>"
        },
        "status": "final",
        "subject": {
          "reference": "urn:uuid:8e9738c1-10c2-43f0-8dfb-8607f2372501",
          "display": "Pelayo Casal"
        },
        "effectiveDateTime": "2021-02-11T05:38:59Z",
        "specimen": {
          "reference": "urn:uuid:97c6137f-da08-49a0-a26c-ba059a88d70a"
        }
      }
    },
    {
      "fullUrl": "urn:uuid:b782575a-273f-4653-b441-f43a9c43fd15",
      "resource": {
        "resourceType": "Observation",
        "id": "b782575a-273f-4653-b441-f43a9c43fd15",
        "meta": {
          "profile": [
            "http://hl7.eu/fhir/laboratory/StructureDefinition/Observation-resultslab-eu-lab"
          ]
        },
        "performer": [
          {
            "display": "The Central European Lab"
          }
        ],
        "category": [
          {
            "coding": [
              {
                "system": "http://terminology.hl7.org/CodeSystem/observation-category",
                "code": "laboratory"
              }
            ]
          }
        ],
        "code": {
          "coding": [
            {
              "code": "4548-4",
              "system": "http://loinc.org",
              "display": "Hemoglobin A1c/Hemoglobin.total in Blood"
            }
          ],
          "text": "Hemoglobin A1c/Hemoglobin.total in Blood"
        },
        "valueQuantity": {
          "system": "http://unitsofmeasure.org",
          "value": 2.8,
          "unit": "%",
          "code": "%"
        },
        "referenceRange": [
          {
            "low": {
              "value": 4.5,
              "code": "%",
              "system": "http://unitsofmeasure.org"
            }
          },
          {
            "high": {
              "value": 6.4,
              "code": "%",
              "system": "http://unitsofmeasure.org"
            }
          }
        ],
        "interpretation": [
          {
            "coding": [
              {
                "code": "L",
                "system": "http://terminology.hl7.org/CodeSystem/v3-ObservationInterpretation",
                "display": "Low"
              }
            ]
          }
        ],
        "text": {
          "status": "generated",
          "div": "<div xmlns=\"http://www.w3.org/1999/xhtml\"><table class=\"hl7__eu__lab__report\"><tr><th>Test</th><th>11-Feb-2021</th><th>Reference&#xA0;Range</th><th>Unit</th></tr><tr><td>Hemoglobin A1c/Hemoglobin.total in Blood</td><td>2.8</td><td>4.5 - 6.4</td><td>L</td><td>%</td></tr></table></div>"
        },
        "status": "final",
        "subject": {
          "reference": "urn:uuid:8e9738c1-10c2-43f0-8dfb-8607f2372501",
          "display": "Pelayo Casal"
        },
        "effectiveDateTime": "2021-02-11T05:38:59Z",
        "specimen": {
          "reference": "urn:uuid:b59f1014-9d1f-4554-a9b1-13217ea85a7b"
        }
      }
    },
    {
      "fullUrl": "urn:uuid:8c429add-b6b1-469c-afd7-f17161386b28",
      "resource": {
        "resourceType": "Observation",
        "id": "8c429add-b6b1-469c-afd7-f17161386b28",
        "meta": {
          "profile": [
            "http://hl7.eu/fhir/laboratory/StructureDefinition/Observation-resultslab-eu-lab"
          ]
        },
        "performer": [
          {
            "display": "The Central European Lab"
          }
        ],
        "category": [
          {
            "coding": [
              {
                "system": "http://terminology.hl7.org/CodeSystem/observation-category",
                "code": "laboratory"
              }
            ]
          }
        ],
        "code": {
          "coding": [
            {
              "code": "2339-0",
              "system": "http://loinc.org",
              "display": "Glucose [Mass/volume] in Blood"
            }
          ],
          "text": "Glucose [Mass/volume] in Blood"
        },
        "valueQuantity": {
          "system": "http://unitsofmeasure.org",
          "value": 65.3,
          "unit": "mg/dL",
          "code": "mg/dL"
        },
        "referenceRange": [
          {
            "low": {
              "value": 70,
              "code": "mg/dL",
              "system": "http://unitsofmeasure.org"
            }
          },
          {
            "high": {
              "value": 140,
              "code": "mg/dL",
              "system": "http://unitsofmeasure.org"
            }
          }
        ],
        "interpretation": [
          {
            "coding": [
              {
                "code": "L",
                "system": "http://terminology.hl7.org/CodeSystem/v3-ObservationInterpretation",
                "display": "Low"
              }
            ]
          }
        ],
        "text": {
          "status": "generated",
          "div": "<div xmlns=\"http://www.w3.org/1999/xhtml\"><table class=\"hl7__eu__lab__report\"><tr><th>Test</th><th>11-Feb-2021</th><th>Reference&#xA0;Range</th><th>Unit</th></tr><tr><td>Glucose [Mass/volume] in Blood</td><td>65.3</td><td>70 - 140</td><td>L</td><td>mg/dL</td></tr></table></div>"
        },
        "status": "final",
        "subject": {
          "reference": "urn:uuid:8e9738c1-10c2-43f0-8dfb-8607f2372501",
          "display": "Pelayo Casal"
        },
        "effectiveDateTime": "2021-02-11T05:38:59Z",
        "specimen": {
          "reference": "urn:uuid:b59f1014-9d1f-4554-a9b1-13217ea85a7b"
        }
      }
    },
    {
      "fullUrl": "urn:uuid:8f9bb321-522a-4ef9-b660-559b3be120cd",
      "resource": {
        "resourceType": "Observation",
        "id": "8f9bb321-522a-4ef9-b660-559b3be120cd",
        "meta": {
          "profile": [
            "http://hl7.eu/fhir/laboratory/StructureDefinition/Observation-resultslab-eu-lab"
          ]
        },
        "performer": [
          {
            "display": "The Central European Lab"
          }
        ],
        "category": [
          {
            "coding": [
              {
                "system": "http://terminology.hl7.org/CodeSystem/observation-category",
                "code": "laboratory"
              }
            ]
          }
        ],
        "code": {
          "coding": [
            {
              "code": "6299-2",
              "system": "http://loinc.org",
              "display": "Urea nitrogen [Mass/volume] in Blood"
            }
          ],
          "text": "Urea nitrogen [Mass/volume] in Blood"
        },
        "valueQuantity": {
          "system": "http://unitsofmeasure.org",
          "value": 8.1,
          "unit": "mg/dL",
          "code": "mg/dL"
        },
        "referenceRange": [
          {
            "low": {
              "value": 7,
              "code": "mg/dL",
              "system": "http://unitsofmeasure.org"
            }
          },
          {
            "high": {
              "value": 25,
              "code": "mg/dL",
              "system": "http://unitsofmeasure.org"
            }
          }
        ],
        "text": {
          "status": "generated",
          "div": "<div xmlns=\"http://www.w3.org/1999/xhtml\"><table class=\"hl7__eu__lab__report\"><tr><th>Test</th><th>11-Feb-2021</th><th>Reference&#xA0;Range</th><th>Unit</th></tr><tr><td>Urea nitrogen [Mass/volume] in Blood</td><td>8.1</td><td>7 - 25</td><td></td><td>mg/dL</td></tr></table></div>"
        },
        "status": "final",
        "subject": {
          "reference": "urn:uuid:8e9738c1-10c2-43f0-8dfb-8607f2372501",
          "display": "Pelayo Casal"
        },
        "effectiveDateTime": "2021-02-11T05:38:59Z",
        "specimen": {
          "reference": "urn:uuid:b59f1014-9d1f-4554-a9b1-13217ea85a7b"
        }
      }
    },
    {
      "fullUrl": "urn:uuid:0d181524-232a-40d0-a2b2-db3200061e1f",
      "resource": {
        "resourceType": "Observation",
        "id": "0d181524-232a-40d0-a2b2-db3200061e1f",
        "meta": {
          "profile": [
            "http://hl7.eu/fhir/laboratory/StructureDefinition/Observation-resultslab-eu-lab"
          ]
        },
        "performer": [
          {
            "display": "The Central European Lab"
          }
        ],
        "category": [
          {
            "coding": [
              {
                "system": "http://terminology.hl7.org/CodeSystem/observation-category",
                "code": "laboratory"
              }
            ]
          }
        ],
        "code": {
          "coding": [
            {
              "code": "38483-4",
              "system": "http://loinc.org",
              "display": "Creatinine [Mass/volume] in Blood"
            }
          ],
          "text": "Creatinine [Mass/volume] in Blood"
        },
        "valueQuantity": {
          "system": "http://unitsofmeasure.org",
          "value": 1.8,
          "unit": "mg/dL",
          "code": "mg/dL"
        },
        "referenceRange": [
          {
            "low": {
              "value": 0.9,
              "code": "mg/dL",
              "system": "http://unitsofmeasure.org"
            }
          },
          {
            "high": {
              "value": 1.3,
              "code": "mg/dL",
              "system": "http://unitsofmeasure.org"
            }
          }
        ],
        "interpretation": [
          {
            "coding": [
              {
                "code": "H",
                "system": "http://terminology.hl7.org/CodeSystem/v3-ObservationInterpretation",
                "display": "High"
              }
            ]
          }
        ],
        "text": {
          "status": "generated",
          "div": "<div xmlns=\"http://www.w3.org/1999/xhtml\"><table class=\"hl7__eu__lab__report\"><tr><th>Test</th><th>11-Feb-2021</th><th>Reference&#xA0;Range</th><th>Unit</th></tr><tr><td>Creatinine [Mass/volume] in Blood</td><td>1.8</td><td>0.9 - 1.3</td><td>H</td><td>mg/dL</td></tr></table></div>"
        },
        "status": "final",
        "subject": {
          "reference": "urn:uuid:8e9738c1-10c2-43f0-8dfb-8607f2372501",
          "display": "Pelayo Casal"
        },
        "effectiveDateTime": "2021-02-11T05:38:59Z",
        "specimen": {
          "reference": "urn:uuid:b59f1014-9d1f-4554-a9b1-13217ea85a7b"
        }
      }
    },
    {
      "fullUrl": "urn:uuid:039b976e-340c-4438-9f87-3201e617cc20",
      "resource": {
        "resourceType": "Observation",
        "id": "039b976e-340c-4438-9f87-3201e617cc20",
        "meta": {
          "profile": [
            "http://hl7.eu/fhir/laboratory/StructureDefinition/Observation-resultslab-eu-lab"
          ]
        },
        "performer": [
          {
            "display": "The Central European Lab"
          }
        ],
        "category": [
          {
            "coding": [
              {
                "system": "http://terminology.hl7.org/CodeSystem/observation-category",
                "code": "laboratory"
              }
            ]
          }
        ],
        "code": {
          "coding": [
            {
              "code": "49765-1",
              "system": "http://loinc.org",
              "display": "Calcium [Mass/volume] in Blood"
            }
          ],
          "text": "Calcium [Mass/volume] in Blood"
        },
        "valueQuantity": {
          "system": "http://unitsofmeasure.org",
          "value": 10.2,
          "unit": "mg/dL",
          "code": "mg/dL"
        },
        "referenceRange": [
          {
            "low": {
              "value": 8.6,
              "code": "mg/dL",
              "system": "http://unitsofmeasure.org"
            }
          },
          {
            "high": {
              "value": 10.2,
              "code": "mg/dL",
              "system": "http://unitsofmeasure.org"
            }
          }
        ],
        "text": {
          "status": "generated",
          "div": "<div xmlns=\"http://www.w3.org/1999/xhtml\"><table class=\"hl7__eu__lab__report\"><tr><th>Test</th><th>11-Feb-2021</th><th>Reference&#xA0;Range</th><th>Unit</th></tr><tr><td>Calcium [Mass/volume] in Blood</td><td>10.2</td><td>8.6 - 10.2</td><td></td><td>mg/dL</td></tr></table></div>"
        },
        "status": "final",
        "subject": {
          "reference": "urn:uuid:8e9738c1-10c2-43f0-8dfb-8607f2372501",
          "display": "Pelayo Casal"
        },
        "effectiveDateTime": "2021-02-11T05:38:59Z",
        "specimen": {
          "reference": "urn:uuid:b59f1014-9d1f-4554-a9b1-13217ea85a7b"
        }
      }
    },
    {
      "fullUrl": "urn:uuid:1639b284-9da4-4056-90fc-e510970cb0bc",
      "resource": {
        "resourceType": "Observation",
        "id": "1639b284-9da4-4056-90fc-e510970cb0bc",
        "meta": {
          "profile": [
            "http://hl7.eu/fhir/laboratory/StructureDefinition/Observation-resultslab-eu-lab"
          ]
        },
        "performer": [
          {
            "display": "The Central European Lab"
          }
        ],
        "category": [
          {
            "coding": [
              {
                "system": "http://terminology.hl7.org/CodeSystem/observation-category",
                "code": "laboratory"
              }
            ]
          }
        ],
        "code": {
          "coding": [
            {
              "code": "2947-0",
              "system": "http://loinc.org",
              "display": "Sodium [Moles/volume] in Blood"
            }
          ],
          "text": "Sodium [Moles/volume] in Blood"
        },
        "valueQuantity": {
          "system": "http://unitsofmeasure.org",
          "value": 140.4,
          "unit": "mmol/L",
          "code": "mmol/L"
        },
        "referenceRange": [
          {
            "low": {
              "value": 135,
              "code": "mmol/L",
              "system": "http://unitsofmeasure.org"
            }
          },
          {
            "high": {
              "value": 145,
              "code": "mmol/L",
              "system": "http://unitsofmeasure.org"
            }
          }
        ],
        "text": {
          "status": "generated",
          "div": "<div xmlns=\"http://www.w3.org/1999/xhtml\"><table class=\"hl7__eu__lab__report\"><tr><th>Test</th><th>11-Feb-2021</th><th>Reference&#xA0;Range</th><th>Unit</th></tr><tr><td>Sodium [Moles/volume] in Blood</td><td>140.4</td><td>135 - 145</td><td></td><td>mmol/L</td></tr></table></div>"
        },
        "status": "final",
        "subject": {
          "reference": "urn:uuid:8e9738c1-10c2-43f0-8dfb-8607f2372501",
          "display": "Pelayo Casal"
        },
        "effectiveDateTime": "2021-02-11T05:38:59Z",
        "specimen": {
          "reference": "urn:uuid:b59f1014-9d1f-4554-a9b1-13217ea85a7b"
        }
      }
    },
    {
      "fullUrl": "urn:uuid:48e01dca-fc2c-4cf0-b267-f96ac4d12848",
      "resource": {
        "resourceType": "Observation",
        "id": "48e01dca-fc2c-4cf0-b267-f96ac4d12848",
        "meta": {
          "profile": [
            "http://hl7.eu/fhir/laboratory/StructureDefinition/Observation-resultslab-eu-lab"
          ]
        },
        "performer": [
          {
            "display": "The Central European Lab"
          }
        ],
        "category": [
          {
            "coding": [
              {
                "system": "http://terminology.hl7.org/CodeSystem/observation-category",
                "code": "laboratory"
              }
            ]
          }
        ],
        "code": {
          "coding": [
            {
              "code": "6298-4",
              "system": "http://loinc.org",
              "display": "Potassium [Moles/volume] in Blood"
            }
          ],
          "text": "Potassium [Moles/volume] in Blood"
        },
        "valueQuantity": {
          "system": "http://unitsofmeasure.org",
          "value": 3.9,
          "unit": "mmol/L",
          "code": "mmol/L"
        },
        "referenceRange": [
          {
            "low": {
              "value": 3.5,
              "code": "mmol/L",
              "system": "http://unitsofmeasure.org"
            }
          },
          {
            "high": {
              "value": 5.1,
              "code": "mmol/L",
              "system": "http://unitsofmeasure.org"
            }
          }
        ],
        "text": {
          "status": "generated",
          "div": "<div xmlns=\"http://www.w3.org/1999/xhtml\"><table class=\"hl7__eu__lab__report\"><tr><th>Test</th><th>11-Feb-2021</th><th>Reference&#xA0;Range</th><th>Unit</th></tr><tr><td>Potassium [Moles/volume] in Blood</td><td>3.9</td><td>3.5 - 5.1</td><td></td><td>mmol/L</td></tr></table></div>"
        },
        "status": "final",
        "subject": {
          "reference": "urn:uuid:8e9738c1-10c2-43f0-8dfb-8607f2372501",
          "display": "Pelayo Casal"
        },
        "effectiveDateTime": "2021-02-11T05:38:59Z",
        "specimen": {
          "reference": "urn:uuid:b59f1014-9d1f-4554-a9b1-13217ea85a7b"
        }
      }
    },
    {
      "fullUrl": "urn:uuid:24b8c329-2078-4425-9c1a-0f174c9e1306",
      "resource": {
        "resourceType": "Observation",
        "id": "24b8c329-2078-4425-9c1a-0f174c9e1306",
        "meta": {
          "profile": [
            "http://hl7.eu/fhir/laboratory/StructureDefinition/Observation-resultslab-eu-lab"
          ]
        },
        "performer": [
          {
            "display": "The Central European Lab"
          }
        ],
        "category": [
          {
            "coding": [
              {
                "system": "http://terminology.hl7.org/CodeSystem/observation-category",
                "code": "laboratory"
              }
            ]
          }
        ],
        "code": {
          "coding": [
            {
              "code": "2069-3",
              "system": "http://loinc.org",
              "display": "Chloride [Moles/volume] in Blood"
            }
          ],
          "text": "Chloride [Moles/volume] in Blood"
        },
        "valueQuantity": {
          "system": "http://unitsofmeasure.org",
          "value": 106.6,
          "unit": "mmol/L",
          "code": "mmol/L"
        },
        "referenceRange": [
          {
            "low": {
              "value": 98,
              "code": "mmol/L",
              "system": "http://unitsofmeasure.org"
            }
          },
          {
            "high": {
              "value": 108,
              "code": "mmol/L",
              "system": "http://unitsofmeasure.org"
            }
          }
        ],
        "text": {
          "status": "generated",
          "div": "<div xmlns=\"http://www.w3.org/1999/xhtml\"><table class=\"hl7__eu__lab__report\"><tr><th>Test</th><th>11-Feb-2021</th><th>Reference&#xA0;Range</th><th>Unit</th></tr><tr><td>Chloride [Moles/volume] in Blood</td><td>106.6</td><td>98 - 108</td><td></td><td>mmol/L</td></tr></table></div>"
        },
        "status": "final",
        "subject": {
          "reference": "urn:uuid:8e9738c1-10c2-43f0-8dfb-8607f2372501",
          "display": "Pelayo Casal"
        },
        "effectiveDateTime": "2021-02-11T05:38:59Z",
        "specimen": {
          "reference": "urn:uuid:b59f1014-9d1f-4554-a9b1-13217ea85a7b"
        }
      }
    },
    {
      "fullUrl": "urn:uuid:7f4e9991-01f0-4a80-aaa8-295403eea915",
      "resource": {
        "resourceType": "Observation",
        "id": "7f4e9991-01f0-4a80-aaa8-295403eea915",
        "meta": {
          "profile": [
            "http://hl7.eu/fhir/laboratory/StructureDefinition/Observation-resultslab-eu-lab"
          ]
        },
        "performer": [
          {
            "display": "The Central European Lab"
          }
        ],
        "category": [
          {
            "coding": [
              {
                "system": "http://terminology.hl7.org/CodeSystem/observation-category",
                "code": "laboratory"
              }
            ]
          }
        ],
        "code": {
          "coding": [
            {
              "code": "20565-8",
              "system": "http://loinc.org",
              "display": "Carbon dioxide, total [Moles/volume] in Blood"
            }
          ],
          "text": "Carbon dioxide, total [Moles/volume] in Blood"
        },
        "valueQuantity": {
          "system": "http://unitsofmeasure.org",
          "value": 25.4,
          "unit": "mmol/L",
          "code": "mmol/L"
        },
        "referenceRange": [
          {
            "low": {
              "value": 22,
              "code": "mmol/L",
              "system": "http://unitsofmeasure.org"
            }
          },
          {
            "high": {
              "value": 32,
              "code": "mmol/L",
              "system": "http://unitsofmeasure.org"
            }
          }
        ],
        "text": {
          "status": "generated",
          "div": "<div xmlns=\"http://www.w3.org/1999/xhtml\"><table class=\"hl7__eu__lab__report\"><tr><th>Test</th><th>11-Feb-2021</th><th>Reference&#xA0;Range</th><th>Unit</th></tr><tr><td>Carbon dioxide, total [Moles/volume] in Blood</td><td>25.4</td><td>22 - 32</td><td></td><td>mmol/L</td></tr></table></div>"
        },
        "status": "final",
        "subject": {
          "reference": "urn:uuid:8e9738c1-10c2-43f0-8dfb-8607f2372501",
          "display": "Pelayo Casal"
        },
        "effectiveDateTime": "2021-02-11T05:38:59Z",
        "specimen": {
          "reference": "urn:uuid:b59f1014-9d1f-4554-a9b1-13217ea85a7b"
        }
      }
    },
    {
      "fullUrl": "urn:uuid:4edf44d7-4178-408a-9538-3256958f4f68",
      "resource": {
        "resourceType": "Device",
        "id": "4edf44d7-4178-408a-9538-3256958f4f68",
        "deviceName": [
          {
            "name": "SYNDERAI Synthetic Generator",
            "type": "manufacturer-name"
          }
        ],
        "version": [
          {
            "value": "5.0"
          }
        ],
        "text": {
          "status": "generated",
          "div": "<div xmlns=\"http://www.w3.org/1999/xhtml\">SYNDERAI Synthetic Generator v5.0</div>"
        },
        "status": "active\"",
        "distinctIdentifier": "synderai-generator-50",
        "manufacturer": "SYNDERAI Project"
      }
    },
    {
      "fullUrl": "urn:uuid:26a4003c-865f-4f0c-9796-b82b84fb74f2",
      "resource": {
        "resourceType": "Provenance",
        "id": "26a4003c-865f-4f0c-9796-b82b84fb74f2",
        "target": [
          {
            "reference": "Patient/8e9738c1-10c2-43f0-8dfb-8607f2372501"
          },
          {
            "reference": "Bundle/59bc2e60-64fc-465e-a3e3-e1d07dddc93d"
          },
          {
            "reference": "Composition/73913317-d26e-4e92-9f79-37eccf7f8e4c"
          },
          {
            "reference": "PractitionerRole/582e943c-892e-4dbf-b9f4-b61180591a41"
          },
          {
            "reference": "Practitioner/50fe5028-1d8c-4683-aecd-30f9d74db9c7"
          },
          {
            "reference": "PractitionerRole/1477a26c-471a-4ba2-b07e-b23e1ed0d3d4"
          },
          {
            "reference": "Organization/b7a016e3-f375-48db-8127-b38aab0f8d8b"
          }
        ],
        "activity": {
          "text": "Synthetic Example Data Generation"
        },
        "policy": [
          "https://synderai.net/synderai-synthetic-data-policy"
        ],
        "agent": [
          {
            "type": {
              "text": "author"
            },
            "who": {
              "reference": "Device/4edf44d7-4178-408a-9538-3256958f4f68"
            }
          }
        ],
        "reason": [
          {
            "text": "Interoperability Testing and Training (non-clinical use)"
          }
        ],
        "text": {
          "status": "generated",
          "div": "<div xmlns=\"http://www.w3.org/1999/xhtml\">Provenance for SYNDERAI Synthetic Example Data Resource</div>"
        },
        "recorded": "2021-02-11T06:38:59Z"
      }
    },
    {
      "fullUrl": "urn:uuid:582e943c-892e-4dbf-b9f4-b61180591a41",
      "resource": {
        "resourceType": "PractitionerRole",
        "id": "582e943c-892e-4dbf-b9f4-b61180591a41",
        "meta": {
          "profile": [
            "http://hl7.eu/fhir/base/StructureDefinition/practitionerRole-eu"
          ]
        },
        "text": {
          "status": "generated",
          "div": "<div xmlns=\"http://www.w3.org/1999/xhtml\">Laboratory Role Id: 582e943c-892e-4dbf-b9f4-b61180591a41</div>"
        },
        "practitioner": {
          "reference": "urn:uuid:50fe5028-1d8c-4683-aecd-30f9d74db9c7"
        }
      }
    },
    {
      "fullUrl": "urn:uuid:50fe5028-1d8c-4683-aecd-30f9d74db9c7",
      "resource": {
        "resourceType": "Practitioner",
        "id": "50fe5028-1d8c-4683-aecd-30f9d74db9c7",
        "meta": {
          "profile": [
            "http://hl7.eu/fhir/base/StructureDefinition/practitioner-eu"
          ]
        },
        "identifier": [
          {
            "assigner": {
              "display": "HL7 Europe"
            },
            "system": "urn:oid:2.16.840.1.113883.2.51.999",
            "value": "8e67c74e-0cde-42ff-bf75-26047616b0f3"
          }
        ],
        "name": [
          {
            "prefix": [
              "dr"
            ],
            "given": [
              "Ex"
            ],
            "family": "Ample"
          }
        ],
        "address": [
          {
            "line": [
              "Laboratoire Central Européenne",
              "Boulevard du Jardin Botanique 32"
            ],
            "postalCode": "1000",
            "city": "Brussels",
            "country": "Belgium"
          }
        ],
        "text": {
          "status": "generated",
          "div": "<div xmlns=\"http://www.w3.org/1999/xhtml\">Laboratory: Laboratoire Central Européenne, 1000 Brussels, Belgium</div>"
        }
      }
    }
  ],
  "type": "document",
  "timestamp": "2021-02-11T06:38:59Z"
}
