{
  "resourceType": "Bundle",
  "id": "c289d29e-68a3-41d0-83e3-2c7a7b6a68c2",
  "meta": {
    "profile": [
      "http://hl7.eu/fhir/laboratory/StructureDefinition/Bundle-eu-lab"
    ]
  },
  "identifier": {
    "assigner": {
      "display": "HL7 Europe"
    },
    "system": "urn:oid:2.16.840.1.113883.2.51.999",
    "value": "ad906ad0-a62b-4b79-bdb0-6e10d3059b83"
  },
  "entry": [
    {
      "fullUrl": "urn:uuid:bf7addee-6a9c-4b76-8bdc-f75b4fc77137",
      "resource": {
        "resourceType": "Composition",
        "id": "bf7addee-6a9c-4b76-8bdc-f75b4fc77137",
        "meta": {
          "profile": [
            "http://hl7.eu/fhir/laboratory/StructureDefinition/Composition-eu-lab"
          ]
        },
        "identifier": {
          "assigner": {
            "display": "HL7 Europe"
          },
          "system": "urn:oid:2.16.840.1.113883.2.51.999",
          "value": "99fec256-06aa-44cf-a6e1-3d02360f7361"
        },
        "author": [
          {
            "reference": "urn:uuid:bb7813ec-8a28-4336-92ab-8254478396e9"
          }
        ],
        "category": [
          {
            "coding": [
              {
                "code": "26436-6",
                "system": "http://loinc.org",
                "display": "Laboratory studies (set)"
              }
            ]
          }
        ],
        "type": {
          "coding": [
            {
              "code": "11502-2",
              "system": "http://loinc.org",
              "display": "Laboratory report"
            }
          ],
          "text": "Laboratory Report"
        },
        "section": [
          {
            "code": {
              "coding": [
                {
                  "code": "26436-6",
                  "system": "http://loinc.org",
                  "display": "Laboratory studies (set)"
                }
              ],
              "text": "Laboratory studies"
            },
            "section": [
              {
                "code": {
                  "coding": [
                    {
                      "code": "$18719-5",
                      "system": "http://loinc.org",
                      "display": "Chemistry studies (set)"
                    }
                  ],
                  "text": "Chemistry"
                },
                "entry": [
                  {
                    "reference": "urn:uuid:9b65b51f-aeb0-453e-827a-ee6d26e2213a"
                  },
                  {
                    "reference": "urn:uuid:62073421-08aa-4c72-92cd-0bcf8c551cfc"
                  },
                  {
                    "reference": "urn:uuid:69d901a1-5d21-44a3-8ed7-5946739d9928"
                  },
                  {
                    "reference": "urn:uuid:e13c1857-e060-44bb-9fb0-c1caf7982f3b"
                  }
                ],
                "text": {
                  "status": "generated",
                  "div": "<div xmlns=\"http://www.w3.org/1999/xhtml\"><h3>Chemistry</h3><table class=\"hl7__eu__lab__report\"><thead><tr><th>Test</th><th>04-AUG-2021</th><th>Reference&#xA0;Range</th><th>Unit</th></tr></thead><tbody><tr><td>Cholesterol [Mass/volume] in Serum or Plasma</td><td>136.4</td><td>125 - 200</td><td>mg/dL</td></tr><tr><td>Triglyceride [Mass/volume] in Serum or Plasma</td><td>100.8</td><td>35 - 150</td><td>mg/dL</td></tr><tr><td>Cholesterol in LDL [Mass/volume] in Serum or Plasma by Direct assay</td><td>60.8</td><td>0 - 130</td><td>mg/dL</td></tr><tr><td>Cholesterol in HDL [Mass/volume] in Serum or Plasma</td><td>55.4</td><td>40 - 60</td><td>mg/dL</td></tr></tbody></table></div>"
                },
                "title": "Chemistry"
              }
            ],
            "title": "Laboratory Report"
          },
          {
            "text": {
              "status": "generated",
              "div": "<div xmlns=\"http://www.w3.org/1999/xhtml\"><h3>Annotation</h3><table class=\"hl7__eu__lab__report\"><tr><th>Conclusion and Recommendations based on this report and previous findings known to us</th></tr><tr><td>All lipid parameters (total cholesterol, LDL, HDL, and triglycerides) are within normal limits. No dyslipidemia is detected. No laboratory evidence of increased cardiovascular risk based on these results. No further action required from a laboratory perspective.</td></tr></table></div>"
            },
            "code": {
              "coding": [
                {
                  "system": "http://loinc.org",
                  "code": "48767-8",
                  "display": "Annotation comment"
                }
              ]
            },
            "title": "Annotation comment"
          }
        ],
        "status": "final",
        "subject": {
          "reference": "urn:uuid:31880b4c-41f9-46db-9bc8-d8a05d579e78",
          "display": "Charlene Sharpe"
        },
        "date": "2021-08-04T02:49:39Z",
        "title": "Laboratory Report",
        "confidentiality": "N"
      }
    },
    {
      "fullUrl": "urn:uuid:de711ae1-da67-498a-85d8-6fec84f00699",
      "resource": {
        "resourceType": "DiagnosticReport",
        "id": "de711ae1-da67-498a-85d8-6fec84f00699",
        "meta": {
          "profile": [
            "http://hl7.eu/fhir/laboratory/StructureDefinition/DiagnosticReport-eu-lab"
          ]
        },
        "identifier": [
          {
            "assigner": {
              "display": "HL7 Europe"
            },
            "system": "urn:oid:2.16.840.1.113883.2.51.999",
            "value": "6877c089-1749-43ed-9623-aa76be62bd1b"
          }
        ],
        "extension": [
          {
            "url": "http://hl7.org/fhir/5.0/StructureDefinition/extension-DiagnosticReport.composition",
            "valueReference": {
              "reference": "urn:uuid:99fec256-06aa-44cf-a6e1-3d02360f7361"
            }
          }
        ],
        "category": [
          {
            "coding": [
              {
                "code": "26436-6",
                "system": "http://loinc.org",
                "display": "Laboratory studies (set)"
              }
            ]
          }
        ],
        "specimen": [
          {
            "reference": "urn:uuid:796f7955-49e9-4087-b5bf-3e8a55a141e5"
          }
        ],
        "result": [
          {
            "reference": "urn:uuid:9b65b51f-aeb0-453e-827a-ee6d26e2213a"
          },
          {
            "reference": "urn:uuid:62073421-08aa-4c72-92cd-0bcf8c551cfc"
          },
          {
            "reference": "urn:uuid:69d901a1-5d21-44a3-8ed7-5946739d9928"
          },
          {
            "reference": "urn:uuid:e13c1857-e060-44bb-9fb0-c1caf7982f3b"
          }
        ],
        "status": "registered",
        "code": {
          "coding": [
            {
              "code": "11502-2",
              "system": "http://loinc.org",
              "display": "Laboratory report"
            }
          ]
        },
        "subject": {
          "reference": "urn:uuid:31880b4c-41f9-46db-9bc8-d8a05d579e78",
          "display": "Charlene Sharpe"
        }
      }
    },
    {
      "fullUrl": "urn:uuid:31880b4c-41f9-46db-9bc8-d8a05d579e78",
      "resource": {
        "resourceType": "Patient",
        "id": "31880b4c-41f9-46db-9bc8-d8a05d579e78",
        "meta": {
          "security": [
            {
              "system": "http://terminology.hl7.org/CodeSystem/v3-ActReason",
              "code": "HTEST"
            },
            {
              "system": "http://terminology.hl7.org/CodeSystem/v3-ActReason",
              "code": "TRAIN"
            }
          ],
          "tag": [
            {
              "system": "https://synderai.net/fhir/CodeSystem/tags",
              "code": "synthetic",
              "display": "SYNDERAI Synthetic data"
            }
          ],
          "profile": [
            "http://hl7.eu/fhir/base/StructureDefinition/patient-eu-core"
          ]
        },
        "identifier": [
          {
            "type": {
              "coding": [
                {
                  "code": "PT",
                  "system": "http://terminology.hl7.org/CodeSystem/v2-0203"
                }
              ]
            },
            "system": "http://ec.europa.eu/identifier/eci",
            "value": "1398-333111-0"
          },
          {
            "type": {
              "coding": [
                {
                  "code": "MR",
                  "system": "http://terminology.hl7.org/CodeSystem/v2-0203"
                }
              ]
            },
            "system": "http://local.setting.eu/identifier",
            "value": "6fe0fe4a-b508-d942-a7a7-576f68360f0d"
          }
        ],
        "name": [
          {
            "family": "Sharpe"
          },
          {
            "given": [
              "Charlene"
            ]
          },
          {
            "text": "Charlene Sharpe"
          }
        ],
        "address": [
          {
            "line": [
              "Studio 63",
              "Jenkins dale"
            ],
            "use": "home",
            "type": "physical",
            "postalCode": "SW1A",
            "city": "London",
            "country": "United Kingdom"
          }
        ],
        "telecom": [
          {
            "system": "phone",
            "value": "+44289018242"
          }
        ],
        "extension": [
          {
            "url": "http://hl7.org/fhir/StructureDefinition/patient-nationality",
            "valueCodeableConcept": {
              "coding": [
                {
                  "code": "GB",
                  "system": "http://hl7.org/fhir/ValueSet/country"
                }
              ]
            }
          }
        ],
        "text": {
          "status": "generated",
          "div": "<div xmlns=\"http://www.w3.org/1999/xhtml\"><table class=\"hl7__ips\"><tr><td>Charlene Sharpe</td><td>female</td><td>20-Jun-1991</td></tr></table></div>"
        },
        "gender": "female",
        "birthDate": "1991-06-20"
      }
    },
    {
      "fullUrl": "urn:uuid:c3a5071f-4315-4b97-9599-cadc7082b362",
      "resource": {
        "resourceType": "ServiceRequest",
        "id": "c3a5071f-4315-4b97-9599-cadc7082b362",
        "meta": {
          "profile": [
            "http://hl7.eu/fhir/laboratory/StructureDefinition/ServiceRequest-eu-lab"
          ]
        },
        "identifier": [
          {
            "system": "http://example.org",
            "value": "8fd6b297-007d-4846-8683-a828e240cb46"
          }
        ],
        "specimen": [
          {
            "reference": "urn:uuid:796f7955-49e9-4087-b5bf-3e8a55a141e5"
          }
        ],
        "status": "active",
        "intent": "order",
        "code": {
          "coding": [
            {
              "code": "108252007",
              "system": "http://snomed.info/sct",
              "display": "Laboratory procedure"
            }
          ]
        },
        "subject": {
          "reference": "urn:uuid:31880b4c-41f9-46db-9bc8-d8a05d579e78",
          "display": "Charlene Sharpe"
        },
        "requester": {
          "reference": "urn:uuid:f914f670-6092-4f0d-806f-de3e030756be"
        }
      }
    },
    {
      "fullUrl": "urn:uuid:f914f670-6092-4f0d-806f-de3e030756be",
      "resource": {
        "resourceType": "PractitionerRole",
        "id": "f914f670-6092-4f0d-806f-de3e030756be",
        "meta": {
          "profile": [
            "http://hl7.eu/fhir/base/StructureDefinition/practitionerRole-eu"
          ]
        },
        "text": {
          "status": "generated",
          "div": "<div xmlns=\"http://www.w3.org/1999/xhtml\">Provider Role Id: f914f670-6092-4f0d-806f-de3e030756be</div>"
        },
        "organization": {
          "reference": "urn:uuid:7ac65812-fd90-4a33-8149-f504b60f53f5"
        }
      }
    },
    {
      "fullUrl": "urn:uuid:7ac65812-fd90-4a33-8149-f504b60f53f5",
      "resource": {
        "resourceType": "Organization",
        "id": "7ac65812-fd90-4a33-8149-f504b60f53f5",
        "meta": {
          "profile": [
            "http://hl7.eu/fhir/base/StructureDefinition/organization-eu"
          ]
        },
        "identifier": [
          {
            "assigner": {
              "display": "HL7 Europe"
            },
            "system": "urn:oid:2.16.840.1.113883.2.51.999",
            "value": "a81ba2f3-eeca-44eb-9b61-ff8a33657acc"
          }
        ],
        "address": [
          {
            "city": "London",
            "postalCode": "SE1 7",
            "country": "United Kingdom"
          }
        ],
        "text": {
          "status": "generated",
          "div": "<div xmlns=\"http://www.w3.org/1999/xhtml\">Provider Organization: Evelina Children&#039;s Hospital</div>"
        },
        "name": "Evelina Children&#039;s Hospital"
      }
    },
    {
      "fullUrl": "urn:uuid:796f7955-49e9-4087-b5bf-3e8a55a141e5",
      "resource": {
        "resourceType": "Specimen",
        "id": "796f7955-49e9-4087-b5bf-3e8a55a141e5",
        "meta": {
          "profile": [
            "http://hl7.eu/fhir/laboratory/StructureDefinition/Specimen-eu-lab"
          ]
        },
        "collection": {
          "collectedDateTime": "2021-08-04"
        },
        "text": {
          "status": "generated",
          "div": "<div xmlns=\"http://www.w3.org/1999/xhtml\"><table class=\"hl7__eu__lab__report\"><tr><th>Specimen</th><th>Collection Date</th></tr><tr><td>Acellular blood (serum or plasma) specimen</td><td><span class=\"nb\">04-Aug-2021</span></td></tr></table></div>"
        },
        "type": {
          "coding": [
            {
              "code": "122592007",
              "system": "http://snomed.info/sct",
              "display": "Acellular blood (serum or plasma) specimen"
            }
          ]
        }
      }
    },
    {
      "fullUrl": "urn:uuid:9b65b51f-aeb0-453e-827a-ee6d26e2213a",
      "resource": {
        "resourceType": "Observation",
        "id": "9b65b51f-aeb0-453e-827a-ee6d26e2213a",
        "meta": {
          "profile": [
            "http://hl7.eu/fhir/laboratory/StructureDefinition/Observation-resultslab-eu-lab"
          ]
        },
        "performer": [
          {
            "display": "The Central European Lab"
          }
        ],
        "category": [
          {
            "coding": [
              {
                "system": "http://terminology.hl7.org/CodeSystem/observation-category",
                "code": "laboratory"
              }
            ]
          }
        ],
        "code": {
          "coding": [
            {
              "code": "2093-3",
              "system": "http://loinc.org",
              "display": "Cholesterol [Mass/volume] in Serum or Plasma"
            }
          ],
          "text": "Cholesterol [Mass/volume] in Serum or Plasma"
        },
        "valueQuantity": {
          "system": "http://unitsofmeasure.org",
          "value": 136.4,
          "unit": "mg/dL",
          "code": "mg/dL"
        },
        "referenceRange": [
          {
            "low": {
              "value": 125,
              "code": "mg/dL",
              "system": "http://unitsofmeasure.org"
            }
          },
          {
            "high": {
              "value": 200,
              "code": "mg/dL",
              "system": "http://unitsofmeasure.org"
            }
          }
        ],
        "text": {
          "status": "generated",
          "div": "<div xmlns=\"http://www.w3.org/1999/xhtml\"><table class=\"hl7__eu__lab__report\"><tr><th>Test</th><th>04-Aug-2021</th><th>Reference&#xA0;Range</th><th>Unit</th></tr><tr><td>Cholesterol [Mass/volume] in Serum or Plasma</td><td>136.4</td><td>125 - 200</td><td></td><td>mg/dL</td></tr></table></div>"
        },
        "status": "final",
        "subject": {
          "reference": "urn:uuid:31880b4c-41f9-46db-9bc8-d8a05d579e78",
          "display": "Charlene Sharpe"
        },
        "effectiveDateTime": "2021-08-04T00:49:39Z",
        "specimen": {
          "reference": "urn:uuid:796f7955-49e9-4087-b5bf-3e8a55a141e5"
        }
      }
    },
    {
      "fullUrl": "urn:uuid:62073421-08aa-4c72-92cd-0bcf8c551cfc",
      "resource": {
        "resourceType": "Observation",
        "id": "62073421-08aa-4c72-92cd-0bcf8c551cfc",
        "meta": {
          "profile": [
            "http://hl7.eu/fhir/laboratory/StructureDefinition/Observation-resultslab-eu-lab"
          ]
        },
        "performer": [
          {
            "display": "The Central European Lab"
          }
        ],
        "category": [
          {
            "coding": [
              {
                "system": "http://terminology.hl7.org/CodeSystem/observation-category",
                "code": "laboratory"
              }
            ]
          }
        ],
        "code": {
          "coding": [
            {
              "code": "2571-8",
              "system": "http://loinc.org",
              "display": "Triglyceride [Mass/volume] in Serum or Plasma"
            }
          ],
          "text": "Triglyceride [Mass/volume] in Serum or Plasma"
        },
        "valueQuantity": {
          "system": "http://unitsofmeasure.org",
          "value": 100.8,
          "unit": "mg/dL",
          "code": "mg/dL"
        },
        "referenceRange": [
          {
            "low": {
              "value": 35,
              "code": "mg/dL",
              "system": "http://unitsofmeasure.org"
            }
          },
          {
            "high": {
              "value": 150,
              "code": "mg/dL",
              "system": "http://unitsofmeasure.org"
            }
          }
        ],
        "text": {
          "status": "generated",
          "div": "<div xmlns=\"http://www.w3.org/1999/xhtml\"><table class=\"hl7__eu__lab__report\"><tr><th>Test</th><th>04-Aug-2021</th><th>Reference&#xA0;Range</th><th>Unit</th></tr><tr><td>Triglyceride [Mass/volume] in Serum or Plasma</td><td>100.8</td><td>35 - 150</td><td></td><td>mg/dL</td></tr></table></div>"
        },
        "status": "final",
        "subject": {
          "reference": "urn:uuid:31880b4c-41f9-46db-9bc8-d8a05d579e78",
          "display": "Charlene Sharpe"
        },
        "effectiveDateTime": "2021-08-04T00:49:39Z",
        "specimen": {
          "reference": "urn:uuid:796f7955-49e9-4087-b5bf-3e8a55a141e5"
        }
      }
    },
    {
      "fullUrl": "urn:uuid:69d901a1-5d21-44a3-8ed7-5946739d9928",
      "resource": {
        "resourceType": "Observation",
        "id": "69d901a1-5d21-44a3-8ed7-5946739d9928",
        "meta": {
          "profile": [
            "http://hl7.eu/fhir/laboratory/StructureDefinition/Observation-resultslab-eu-lab"
          ]
        },
        "performer": [
          {
            "display": "The Central European Lab"
          }
        ],
        "category": [
          {
            "coding": [
              {
                "system": "http://terminology.hl7.org/CodeSystem/observation-category",
                "code": "laboratory"
              }
            ]
          }
        ],
        "code": {
          "coding": [
            {
              "code": "18262-6",
              "system": "http://loinc.org",
              "display": "Cholesterol in LDL [Mass/volume] in Serum or Plasma by Direct assay"
            }
          ],
          "text": "Cholesterol in LDL [Mass/volume] in Serum or Plasma by Direct assay"
        },
        "valueQuantity": {
          "system": "http://unitsofmeasure.org",
          "value": 60.8,
          "unit": "mg/dL",
          "code": "mg/dL"
        },
        "referenceRange": [
          {
            "low": {
              "value": 0,
              "code": "mg/dL",
              "system": "http://unitsofmeasure.org"
            }
          },
          {
            "high": {
              "value": 130,
              "code": "mg/dL",
              "system": "http://unitsofmeasure.org"
            }
          }
        ],
        "text": {
          "status": "generated",
          "div": "<div xmlns=\"http://www.w3.org/1999/xhtml\"><table class=\"hl7__eu__lab__report\"><tr><th>Test</th><th>04-Aug-2021</th><th>Reference&#xA0;Range</th><th>Unit</th></tr><tr><td>Cholesterol in LDL [Mass/volume] in Serum or Plasma by Direct assay</td><td>60.8</td><td>0 - 130</td><td></td><td>mg/dL</td></tr></table></div>"
        },
        "status": "final",
        "subject": {
          "reference": "urn:uuid:31880b4c-41f9-46db-9bc8-d8a05d579e78",
          "display": "Charlene Sharpe"
        },
        "effectiveDateTime": "2021-08-04T00:49:39Z",
        "specimen": {
          "reference": "urn:uuid:796f7955-49e9-4087-b5bf-3e8a55a141e5"
        }
      }
    },
    {
      "fullUrl": "urn:uuid:e13c1857-e060-44bb-9fb0-c1caf7982f3b",
      "resource": {
        "resourceType": "Observation",
        "id": "e13c1857-e060-44bb-9fb0-c1caf7982f3b",
        "meta": {
          "profile": [
            "http://hl7.eu/fhir/laboratory/StructureDefinition/Observation-resultslab-eu-lab"
          ]
        },
        "performer": [
          {
            "display": "The Central European Lab"
          }
        ],
        "category": [
          {
            "coding": [
              {
                "system": "http://terminology.hl7.org/CodeSystem/observation-category",
                "code": "laboratory"
              }
            ]
          }
        ],
        "code": {
          "coding": [
            {
              "code": "2085-9",
              "system": "http://loinc.org",
              "display": "Cholesterol in HDL [Mass/volume] in Serum or Plasma"
            }
          ],
          "text": "Cholesterol in HDL [Mass/volume] in Serum or Plasma"
        },
        "valueQuantity": {
          "system": "http://unitsofmeasure.org",
          "value": 55.4,
          "unit": "mg/dL",
          "code": "mg/dL"
        },
        "referenceRange": [
          {
            "low": {
              "value": 40,
              "code": "mg/dL",
              "system": "http://unitsofmeasure.org"
            }
          },
          {
            "high": {
              "value": 60,
              "code": "mg/dL",
              "system": "http://unitsofmeasure.org"
            }
          }
        ],
        "text": {
          "status": "generated",
          "div": "<div xmlns=\"http://www.w3.org/1999/xhtml\"><table class=\"hl7__eu__lab__report\"><tr><th>Test</th><th>04-Aug-2021</th><th>Reference&#xA0;Range</th><th>Unit</th></tr><tr><td>Cholesterol in HDL [Mass/volume] in Serum or Plasma</td><td>55.4</td><td>40 - 60</td><td></td><td>mg/dL</td></tr></table></div>"
        },
        "status": "final",
        "subject": {
          "reference": "urn:uuid:31880b4c-41f9-46db-9bc8-d8a05d579e78",
          "display": "Charlene Sharpe"
        },
        "effectiveDateTime": "2021-08-04T00:49:39Z",
        "specimen": {
          "reference": "urn:uuid:796f7955-49e9-4087-b5bf-3e8a55a141e5"
        }
      }
    },
    {
      "fullUrl": "urn:uuid:b23b40cb-90c0-4060-890f-b079b42a1960",
      "resource": {
        "resourceType": "Device",
        "id": "b23b40cb-90c0-4060-890f-b079b42a1960",
        "deviceName": [
          {
            "name": "SYNDERAI Synthetic Generator",
            "type": "manufacturer-name"
          }
        ],
        "version": [
          {
            "value": "5.0"
          }
        ],
        "text": {
          "status": "generated",
          "div": "<div xmlns=\"http://www.w3.org/1999/xhtml\">SYNDERAI Synthetic Generator v5.0</div>"
        },
        "status": "active\"",
        "distinctIdentifier": "synderai-generator-50",
        "manufacturer": "SYNDERAI Project"
      }
    },
    {
      "fullUrl": "urn:uuid:8d5ea86f-a98a-40bc-a136-86abb6504d87",
      "resource": {
        "resourceType": "Provenance",
        "id": "8d5ea86f-a98a-40bc-a136-86abb6504d87",
        "target": [
          {
            "reference": "Patient/31880b4c-41f9-46db-9bc8-d8a05d579e78"
          },
          {
            "reference": "Bundle/c289d29e-68a3-41d0-83e3-2c7a7b6a68c2"
          },
          {
            "reference": "Composition/bf7addee-6a9c-4b76-8bdc-f75b4fc77137"
          },
          {
            "reference": "PractitionerRole/bb7813ec-8a28-4336-92ab-8254478396e9"
          },
          {
            "reference": "Practitioner/d420e414-fd12-4e1e-abc8-ce1ea286fa57"
          },
          {
            "reference": "PractitionerRole/f914f670-6092-4f0d-806f-de3e030756be"
          },
          {
            "reference": "Organization/7ac65812-fd90-4a33-8149-f504b60f53f5"
          }
        ],
        "activity": {
          "text": "Synthetic Example Data Generation"
        },
        "policy": [
          "https://synderai.net/synderai-synthetic-data-policy"
        ],
        "agent": [
          {
            "type": {
              "text": "author"
            },
            "who": {
              "reference": "Device/b23b40cb-90c0-4060-890f-b079b42a1960"
            }
          }
        ],
        "reason": [
          {
            "text": "Interoperability Testing and Training (non-clinical use)"
          }
        ],
        "text": {
          "status": "generated",
          "div": "<div xmlns=\"http://www.w3.org/1999/xhtml\">Provenance for SYNDERAI Synthetic Example Data Resource</div>"
        },
        "recorded": "2021-08-04T02:49:39Z"
      }
    },
    {
      "fullUrl": "urn:uuid:bb7813ec-8a28-4336-92ab-8254478396e9",
      "resource": {
        "resourceType": "PractitionerRole",
        "id": "bb7813ec-8a28-4336-92ab-8254478396e9",
        "meta": {
          "profile": [
            "http://hl7.eu/fhir/base/StructureDefinition/practitionerRole-eu"
          ]
        },
        "text": {
          "status": "generated",
          "div": "<div xmlns=\"http://www.w3.org/1999/xhtml\">Laboratory Role Id: bb7813ec-8a28-4336-92ab-8254478396e9</div>"
        },
        "practitioner": {
          "reference": "urn:uuid:d420e414-fd12-4e1e-abc8-ce1ea286fa57"
        }
      }
    },
    {
      "fullUrl": "urn:uuid:d420e414-fd12-4e1e-abc8-ce1ea286fa57",
      "resource": {
        "resourceType": "Practitioner",
        "id": "d420e414-fd12-4e1e-abc8-ce1ea286fa57",
        "meta": {
          "profile": [
            "http://hl7.eu/fhir/base/StructureDefinition/practitioner-eu"
          ]
        },
        "identifier": [
          {
            "assigner": {
              "display": "HL7 Europe"
            },
            "system": "urn:oid:2.16.840.1.113883.2.51.999",
            "value": "a28b6fff-e21a-4e5d-85fd-93ece5882dcb"
          }
        ],
        "name": [
          {
            "prefix": [
              "dr"
            ],
            "given": [
              "Ex"
            ],
            "family": "Ample"
          }
        ],
        "address": [
          {
            "line": [
              "Laboratoire Central Européenne",
              "Boulevard du Jardin Botanique 32"
            ],
            "postalCode": "1000",
            "city": "Brussels",
            "country": "Belgium"
          }
        ],
        "text": {
          "status": "generated",
          "div": "<div xmlns=\"http://www.w3.org/1999/xhtml\">Laboratory: Laboratoire Central Européenne, 1000 Brussels, Belgium</div>"
        }
      }
    }
  ],
  "type": "document",
  "timestamp": "2021-08-04T02:49:39Z"
}
