{
  "resourceType": "Bundle",
  "id": "700885db-5d6e-44bd-8b84-035952a95282",
  "meta": {
    "profile": [
      "http://hl7.eu/fhir/laboratory/StructureDefinition/Bundle-eu-lab"
    ]
  },
  "identifier": {
    "assigner": {
      "display": "HL7 Europe"
    },
    "system": "urn:oid:2.16.840.1.113883.2.51.999",
    "value": "faee3101-4132-4158-b16a-137ae9582927"
  },
  "entry": [
    {
      "fullUrl": "urn:uuid:9a18a4e8-3000-4f66-8327-450353e3052e",
      "resource": {
        "resourceType": "Composition",
        "id": "9a18a4e8-3000-4f66-8327-450353e3052e",
        "meta": {
          "profile": [
            "http://hl7.eu/fhir/laboratory/StructureDefinition/Composition-eu-lab"
          ]
        },
        "identifier": {
          "assigner": {
            "display": "HL7 Europe"
          },
          "system": "urn:oid:2.16.840.1.113883.2.51.999",
          "value": "922b68cf-d1fc-45f0-bf86-c2810c7e9376"
        },
        "author": [
          {
            "reference": "urn:uuid:285b8026-92c4-495a-89bd-24d0efbc55d4"
          }
        ],
        "category": [
          {
            "coding": [
              {
                "code": "26436-6",
                "system": "http://loinc.org",
                "display": "Laboratory studies (set)"
              }
            ]
          }
        ],
        "type": {
          "coding": [
            {
              "code": "11502-2",
              "system": "http://loinc.org",
              "display": "Laboratory report"
            }
          ],
          "text": "Laboratory Report"
        },
        "section": [
          {
            "code": {
              "coding": [
                {
                  "code": "26436-6",
                  "system": "http://loinc.org",
                  "display": "Laboratory studies (set)"
                }
              ],
              "text": "Laboratory studies"
            },
            "section": [
              {
                "code": {
                  "coding": [
                    {
                      "code": "$18723-7",
                      "system": "http://loinc.org",
                      "display": "Hematology studies (set)"
                    }
                  ],
                  "text": "Hematology"
                },
                "entry": [
                  {
                    "reference": "urn:uuid:d3ce4be4-a7a2-4158-9627-72b3b006d72e"
                  },
                  {
                    "reference": "urn:uuid:f5897b5f-1723-4e64-b2c7-d86a0dff60e3"
                  },
                  {
                    "reference": "urn:uuid:ac3fc239-0136-4bab-8840-5da6956d828a"
                  },
                  {
                    "reference": "urn:uuid:4e80abd0-04fd-4171-9989-12211c391674"
                  },
                  {
                    "reference": "urn:uuid:27282e29-a74e-4ae9-ad5c-0e661cabb7a4"
                  },
                  {
                    "reference": "urn:uuid:828f2b0b-b223-4785-b42d-ad719cd02390"
                  },
                  {
                    "reference": "urn:uuid:204efaec-8db3-4969-850c-d5246850ddcb"
                  },
                  {
                    "reference": "urn:uuid:88f09ade-9ca3-429e-8ef7-e2cf98cb6144"
                  },
                  {
                    "reference": "urn:uuid:2391f703-8c21-4459-b6d9-48dceb3dd95c"
                  },
                  {
                    "reference": "urn:uuid:d2b00234-f3b1-4486-8b5c-4e3c09deae54"
                  },
                  {
                    "reference": "urn:uuid:f6609cbf-02ec-4fe1-a46a-19d0d12e8d7a"
                  }
                ],
                "text": {
                  "status": "generated",
                  "div": "<div xmlns=\"http://www.w3.org/1999/xhtml\"><h3>Hematology</h3><table class=\"hl7__eu__lab__report\"><thead><tr><th>Test</th><th>22-FEB-2018</th><th>Reference&#xA0;Range</th><th>Unit</th></tr></thead><tbody><tr><td>Leukocytes [#/volume] in Blood by Automated count</td><td>6.6</td><td>3.6 - 10.5</td><td>10*3/uL</td></tr><tr><td>Erythrocytes [#/volume] in Blood by Automated count</td><td>4.9</td><td>4.1 - 5.7</td><td>10*6/uL</td></tr><tr><td>Hemoglobin [Mass/volume] in Blood</td><td>12.2</td><td>12 - 15.5</td><td>g/dL</td></tr><tr><td>Hematocrit [Volume Fraction] of Blood by Automated count</td><td><strong>37.4 L</strong></td><td>37.5 - 44.3</td><td>%</td></tr><tr><td>MCV [Entitic volume] by Automated count</td><td>89.0</td><td>78 - 98</td><td>fL</td></tr><tr><td>MCH [Entitic mass] by Automated count</td><td>30.1</td><td>27 - 34</td><td>pg</td></tr><tr><td>MCHC [Mass/volume] by Automated count</td><td>33.8</td><td>31 - 35</td><td>g/dL</td></tr><tr><td>Erythrocyte distribution width [Entitic volume] by Automated count</td><td>45.8</td><td>36 - 56</td><td>fL</td></tr><tr><td>Platelets [#/volume] in Blood by Automated count</td><td>302.5</td><td>150 - 450</td><td>10*3/uL</td></tr><tr><td>Platelet distribution width [Entitic volume] in Blood by Automated count</td><td><strong>298.5 H</strong></td><td>13.4 - 17.4</td><td>fL</td></tr><tr><td>Platelet mean volume [Entitic volume] in Blood by Automated count</td><td>11.9</td><td>9.7 - 13.5</td><td>fL</td></tr></tbody></table></div>"
                },
                "title": "Hematology"
              },
              {
                "code": {
                  "coding": [
                    {
                      "code": "$18719-5",
                      "system": "http://loinc.org",
                      "display": "Chemistry studies (set)"
                    }
                  ],
                  "text": "Chemistry"
                },
                "entry": [
                  {
                    "reference": "urn:uuid:26fb6f10-b6d7-4f15-8b2e-acfc907cbca8"
                  },
                  {
                    "reference": "urn:uuid:cb604e67-ded8-4db2-ac05-56e4ca5df822"
                  },
                  {
                    "reference": "urn:uuid:6086a922-ed56-4823-b73c-ab00c66a10cb"
                  },
                  {
                    "reference": "urn:uuid:d4aa518d-0972-4431-8b79-1cef2a965a93"
                  },
                  {
                    "reference": "urn:uuid:762668d4-071c-46f9-a769-78316e6745c6"
                  },
                  {
                    "reference": "urn:uuid:a6a8f263-5d25-44c4-b9bc-916fc59b7a19"
                  },
                  {
                    "reference": "urn:uuid:91afbb88-bb9d-444d-b6f0-d1b2bc684271"
                  },
                  {
                    "reference": "urn:uuid:22381492-3099-427c-858a-2cb4a620323d"
                  },
                  {
                    "reference": "urn:uuid:d2335544-74b2-4dfd-abe7-f5e14de31ea4"
                  }
                ],
                "text": {
                  "status": "generated",
                  "div": "<div xmlns=\"http://www.w3.org/1999/xhtml\"><h3>Chemistry</h3><table class=\"hl7__eu__lab__report\"><thead><tr><th>Test</th><th>22-FEB-2018</th><th>Reference&#xA0;Range</th><th>Unit</th></tr></thead><tbody><tr><td>Glucose [Mass/volume] in Serum or Plasma</td><td>71.9</td><td>70 - 140</td><td>mg/dL</td></tr><tr><td>Urea nitrogen [Mass/volume] in Serum or Plasma</td><td>17.8</td><td>7 - 50</td><td>mg/dL</td></tr><tr><td>Creatinine [Mass/volume] in Serum or Plasma</td><td><strong>1.5 H</strong></td><td>0.6 - 1.1</td><td>mg/dL</td></tr><tr><td>Calcium [Mass/volume] in Serum or Plasma</td><td>9.6</td><td>8.5 - 10.5</td><td>mg/dL</td></tr><tr><td>Sodium [Moles/volume] in Serum or Plasma</td><td>140.3</td><td>135 - 145</td><td>mmol/L</td></tr><tr><td>Potassium [Moles/volume] in Serum or Plasma</td><td>5.0</td><td>3.5 - 5.1</td><td>mmol/L</td></tr><tr><td>Chloride [Moles/volume] in Serum or Plasma</td><td>103.8</td><td>98 - 108</td><td>mmol/L</td></tr><tr><td>Carbon dioxide, total [Moles/volume] in Serum or Plasma</td><td><strong>20.5 L</strong></td><td>22 - 32</td><td>mmol/L</td></tr><tr><td>Ketones [Presence] in Urine by Test strip</td><td>Urine ketone test = trace</td><td></td><td></td></tr></tbody></table></div>"
                },
                "title": "Chemistry"
              },
              {
                "code": {
                  "coding": [
                    {
                      "code": "$18729-4",
                      "system": "http://loinc.org",
                      "display": "Urinalysis studies (set)"
                    }
                  ],
                  "text": "Urinalysis"
                },
                "entry": [
                  {
                    "reference": "urn:uuid:ac7de611-963c-47f9-b47e-6ac2bbae69ec"
                  },
                  {
                    "reference": "urn:uuid:5ed792ad-ea26-46a9-9de3-593e1ace68cc"
                  },
                  {
                    "reference": "urn:uuid:2dd69f09-55e0-48bd-bf6d-8f3694ffcafd"
                  },
                  {
                    "reference": "urn:uuid:ef5b615d-aeb1-4e88-a317-9378eddc80d2"
                  },
                  {
                    "reference": "urn:uuid:52bb2a25-3af1-47ac-a333-eb3b33806846"
                  },
                  {
                    "reference": "urn:uuid:9fe61d1e-ea19-4adf-b13c-64a744310fe4"
                  },
                  {
                    "reference": "urn:uuid:09d6688d-fc03-4e49-b696-67f7a4069618"
                  },
                  {
                    "reference": "urn:uuid:ace6e068-7311-4385-aa78-bf8c47a8cf8d"
                  },
                  {
                    "reference": "urn:uuid:d2b9b548-e7e2-41f1-bfa0-6a1005d38d2d"
                  },
                  {
                    "reference": "urn:uuid:9e76f406-336a-4081-aba1-c71d956609c4"
                  },
                  {
                    "reference": "urn:uuid:ed178649-123d-4efd-a32b-e0038f614096"
                  },
                  {
                    "reference": "urn:uuid:d5f6b187-24df-4cdf-a4f6-f0132e8b4be9"
                  }
                ],
                "text": {
                  "status": "generated",
                  "div": "<div xmlns=\"http://www.w3.org/1999/xhtml\"><h3>Urinalysis</h3><table class=\"hl7__eu__lab__report\"><thead><tr><th>Test</th><th>22-FEB-2018</th><th>Reference&#xA0;Range</th><th>Unit</th></tr></thead><tbody><tr><td>Glucose [Mass/volume] in Urine by Test strip</td><td><strong>2.4 H</strong></td><td>0.8 - 0</td><td>mg/dL</td></tr><tr><td>Glucose [Presence] in Urine by Test strip</td><td>++</td><td></td><td></td></tr><tr><td>Bilirubin.total [Mass/volume] in Urine by Test strip</td><td>0.4</td><td>0 - 1</td><td>mg/dL</td></tr><tr><td>Bilirubin.total [Presence] in Urine by Test strip</td><td>Finding of bilirubin in urine</td><td></td><td></td></tr><tr><td>Ketones [Mass/volume] in Urine by Test strip</td><td>17.0</td><td>0 - 20</td><td>mg/dL</td></tr><tr><td>Specific gravity of Urine by Test strip</td><td><strong>1.0 L</strong></td><td>1.01 - 1.03</td><td>{nominal}</td></tr><tr><td>pH of Urine by Test strip</td><td>6.8</td><td>4.6 - 7</td><td>pH</td></tr><tr><td>Protein [Mass/volume] in Urine by Test strip</td><td><strong>113.5 H</strong></td><td>0 - 15</td><td>mg/dL</td></tr><tr><td>Protein [Presence] in Urine by Test strip</td><td>Urine protein test = +</td><td></td><td></td></tr><tr><td>Nitrite [Presence] in Urine by Test strip</td><td>Urine nitrite negative</td><td></td><td></td></tr><tr><td>Hemoglobin [Presence] in Urine by Test strip</td><td>Urine blood test = negative</td><td></td><td></td></tr><tr><td>Leukocyte esterase [Presence] in Urine by Test strip</td><td>Urine leukocyte test negative</td><td></td><td></td></tr></tbody></table></div>"
                },
                "title": "Urinalysis"
              },
              {
                "code": {
                  "coding": [
                    {
                      "code": "$LP7846-1",
                      "system": "http://loinc.org",
                      "display": "Specimen information"
                    }
                  ],
                  "text": "Specimen information"
                },
                "entry": [
                  {
                    "reference": "urn:uuid:f2c24fe1-316b-4001-8207-0218b9362688"
                  },
                  {
                    "reference": "urn:uuid:5ae8c77e-0607-4417-beed-85360fa5c0ac"
                  },
                  {
                    "reference": "urn:uuid:a68cd644-70a5-4bec-93a0-07ddda798d40"
                  },
                  {
                    "reference": "urn:uuid:b057cca3-303e-4a1c-90ab-a0a341161213"
                  }
                ],
                "text": {
                  "status": "generated",
                  "div": "<div xmlns=\"http://www.w3.org/1999/xhtml\"><h3>Specimen information</h3><table class=\"hl7__eu__lab__report\"><thead><tr><th>Test</th><th>22-FEB-2018</th><th>Specimen</th><th></th></tr></thead><tbody><tr><td>Appearance of Urine</td><td>Cloudy urine</td><td>Urine</td><td></td></tr><tr><td>Odor of Urine</td><td>Urine smell ammoniacal</td><td>Urine</td><td></td></tr><tr><td>Clarity of Urine</td><td>Translucent</td><td>Urine</td><td></td></tr><tr><td>Color of Urine</td><td>Brown color</td><td>Urine</td><td></td></tr></tbody></table></div>"
                },
                "title": "Specimen information"
              }
            ],
            "title": "Laboratory Report"
          },
          {
            "text": {
              "status": "generated",
              "div": "<div xmlns=\"http://www.w3.org/1999/xhtml\"><h3>Annotation</h3><table class=\"hl7__eu__lab__report\"><tr><th>Conclusion and Recommendations based on this report and previous findings known to us</th></tr><tr><td>The patient shows elevated serum creatinine, suggesting possible renal impairment. Urinalysis reveals proteinuria, glucosuria, low specific gravity, and abnormal urine appearance (cloudy, brown, ammoniacal), which may indicate renal dysfunction or possible urinary tract pathology. Blood counts are largely within normal limits, though hematocrit is borderline low. Further clinical correlation and renal evaluation are recommended.</td></tr></table></div>"
            },
            "code": {
              "coding": [
                {
                  "system": "http://loinc.org",
                  "code": "48767-8",
                  "display": "Annotation comment"
                }
              ]
            },
            "title": "Annotation comment"
          }
        ],
        "status": "final",
        "subject": {
          "reference": "urn:uuid:4089d26d-5515-44ee-8208-76dd84509057",
          "display": "Marthe Gallet"
        },
        "date": "2018-02-22T20:05:43Z",
        "title": "Laboratory Report",
        "confidentiality": "N"
      }
    },
    {
      "fullUrl": "urn:uuid:a53a1c39-fdfd-4a31-b956-de97ec772a8d",
      "resource": {
        "resourceType": "DiagnosticReport",
        "id": "a53a1c39-fdfd-4a31-b956-de97ec772a8d",
        "meta": {
          "profile": [
            "http://hl7.eu/fhir/laboratory/StructureDefinition/DiagnosticReport-eu-lab"
          ]
        },
        "identifier": [
          {
            "assigner": {
              "display": "HL7 Europe"
            },
            "system": "urn:oid:2.16.840.1.113883.2.51.999",
            "value": "8fe4b8a7-5ca6-4826-ab12-68821f71a560"
          }
        ],
        "extension": [
          {
            "url": "http://hl7.org/fhir/5.0/StructureDefinition/extension-DiagnosticReport.composition",
            "valueReference": {
              "reference": "urn:uuid:922b68cf-d1fc-45f0-bf86-c2810c7e9376"
            }
          }
        ],
        "category": [
          {
            "coding": [
              {
                "code": "26436-6",
                "system": "http://loinc.org",
                "display": "Laboratory studies (set)"
              }
            ]
          }
        ],
        "specimen": [
          {
            "reference": "urn:uuid:0a7c6849-523b-4f16-94d8-b6d0f97bf4c7"
          },
          {
            "reference": "urn:uuid:b05c94bc-2cd2-4b4a-a222-98d94273e615"
          },
          {
            "reference": "urn:uuid:34e39c8e-e228-4d02-89b9-30dbe7cec58e"
          },
          {
            "reference": "urn:uuid:34e39c8e-e228-4d02-89b9-30dbe7cec58e"
          }
        ],
        "result": [
          {
            "reference": "urn:uuid:26fb6f10-b6d7-4f15-8b2e-acfc907cbca8"
          },
          {
            "reference": "urn:uuid:cb604e67-ded8-4db2-ac05-56e4ca5df822"
          },
          {
            "reference": "urn:uuid:6086a922-ed56-4823-b73c-ab00c66a10cb"
          },
          {
            "reference": "urn:uuid:d4aa518d-0972-4431-8b79-1cef2a965a93"
          },
          {
            "reference": "urn:uuid:762668d4-071c-46f9-a769-78316e6745c6"
          },
          {
            "reference": "urn:uuid:a6a8f263-5d25-44c4-b9bc-916fc59b7a19"
          },
          {
            "reference": "urn:uuid:91afbb88-bb9d-444d-b6f0-d1b2bc684271"
          },
          {
            "reference": "urn:uuid:22381492-3099-427c-858a-2cb4a620323d"
          },
          {
            "reference": "urn:uuid:f2c24fe1-316b-4001-8207-0218b9362688"
          },
          {
            "reference": "urn:uuid:5ae8c77e-0607-4417-beed-85360fa5c0ac"
          },
          {
            "reference": "urn:uuid:a68cd644-70a5-4bec-93a0-07ddda798d40"
          },
          {
            "reference": "urn:uuid:b057cca3-303e-4a1c-90ab-a0a341161213"
          },
          {
            "reference": "urn:uuid:ac7de611-963c-47f9-b47e-6ac2bbae69ec"
          },
          {
            "reference": "urn:uuid:5ed792ad-ea26-46a9-9de3-593e1ace68cc"
          },
          {
            "reference": "urn:uuid:2dd69f09-55e0-48bd-bf6d-8f3694ffcafd"
          },
          {
            "reference": "urn:uuid:ef5b615d-aeb1-4e88-a317-9378eddc80d2"
          },
          {
            "reference": "urn:uuid:52bb2a25-3af1-47ac-a333-eb3b33806846"
          },
          {
            "reference": "urn:uuid:d2335544-74b2-4dfd-abe7-f5e14de31ea4"
          },
          {
            "reference": "urn:uuid:9fe61d1e-ea19-4adf-b13c-64a744310fe4"
          },
          {
            "reference": "urn:uuid:09d6688d-fc03-4e49-b696-67f7a4069618"
          },
          {
            "reference": "urn:uuid:ace6e068-7311-4385-aa78-bf8c47a8cf8d"
          },
          {
            "reference": "urn:uuid:d2b9b548-e7e2-41f1-bfa0-6a1005d38d2d"
          },
          {
            "reference": "urn:uuid:9e76f406-336a-4081-aba1-c71d956609c4"
          },
          {
            "reference": "urn:uuid:ed178649-123d-4efd-a32b-e0038f614096"
          },
          {
            "reference": "urn:uuid:d5f6b187-24df-4cdf-a4f6-f0132e8b4be9"
          },
          {
            "reference": "urn:uuid:d3ce4be4-a7a2-4158-9627-72b3b006d72e"
          },
          {
            "reference": "urn:uuid:f5897b5f-1723-4e64-b2c7-d86a0dff60e3"
          },
          {
            "reference": "urn:uuid:ac3fc239-0136-4bab-8840-5da6956d828a"
          },
          {
            "reference": "urn:uuid:4e80abd0-04fd-4171-9989-12211c391674"
          },
          {
            "reference": "urn:uuid:27282e29-a74e-4ae9-ad5c-0e661cabb7a4"
          },
          {
            "reference": "urn:uuid:828f2b0b-b223-4785-b42d-ad719cd02390"
          },
          {
            "reference": "urn:uuid:204efaec-8db3-4969-850c-d5246850ddcb"
          },
          {
            "reference": "urn:uuid:88f09ade-9ca3-429e-8ef7-e2cf98cb6144"
          },
          {
            "reference": "urn:uuid:2391f703-8c21-4459-b6d9-48dceb3dd95c"
          },
          {
            "reference": "urn:uuid:d2b00234-f3b1-4486-8b5c-4e3c09deae54"
          },
          {
            "reference": "urn:uuid:f6609cbf-02ec-4fe1-a46a-19d0d12e8d7a"
          }
        ],
        "status": "registered",
        "code": {
          "coding": [
            {
              "code": "11502-2",
              "system": "http://loinc.org",
              "display": "Laboratory report"
            }
          ]
        },
        "subject": {
          "reference": "urn:uuid:4089d26d-5515-44ee-8208-76dd84509057",
          "display": "Marthe Gallet"
        }
      }
    },
    {
      "fullUrl": "urn:uuid:4089d26d-5515-44ee-8208-76dd84509057",
      "resource": {
        "resourceType": "Patient",
        "id": "4089d26d-5515-44ee-8208-76dd84509057",
        "meta": {
          "security": [
            {
              "system": "http://terminology.hl7.org/CodeSystem/v3-ActReason",
              "code": "HTEST"
            },
            {
              "system": "http://terminology.hl7.org/CodeSystem/v3-ActReason",
              "code": "TRAIN"
            }
          ],
          "tag": [
            {
              "system": "https://synderai.net/fhir/CodeSystem/tags",
              "code": "synthetic",
              "display": "SYNDERAI Synthetic data"
            }
          ],
          "profile": [
            "http://hl7.eu/fhir/base/StructureDefinition/patient-eu-core"
          ]
        },
        "identifier": [
          {
            "type": {
              "coding": [
                {
                  "code": "PT",
                  "system": "http://terminology.hl7.org/CodeSystem/v2-0203"
                }
              ]
            },
            "system": "http://ec.europa.eu/identifier/eci",
            "value": "9444-947487-6"
          },
          {
            "type": {
              "coding": [
                {
                  "code": "MR",
                  "system": "http://terminology.hl7.org/CodeSystem/v2-0203"
                }
              ]
            },
            "system": "http://local.setting.eu/identifier",
            "value": "854228d5-a476-2d9c-a1d7-c3202375a617"
          }
        ],
        "name": [
          {
            "family": "Gallet"
          },
          {
            "given": [
              "Marthe"
            ]
          },
          {
            "text": "Marthe Gallet"
          }
        ],
        "address": [
          {
            "line": [
              "3, rue Emmanuel Goncalves"
            ],
            "use": "home",
            "type": "physical",
            "postalCode": "49490",
            "city": "Briand",
            "country": "France"
          }
        ],
        "telecom": [
          {
            "system": "phone",
            "value": "+33 1 70 99 82 74"
          }
        ],
        "extension": [
          {
            "url": "http://hl7.org/fhir/StructureDefinition/patient-nationality",
            "valueCodeableConcept": {
              "coding": [
                {
                  "code": "FR",
                  "system": "http://hl7.org/fhir/ValueSet/country"
                }
              ]
            }
          }
        ],
        "text": {
          "status": "generated",
          "div": "<div xmlns=\"http://www.w3.org/1999/xhtml\"><table class=\"hl7__ips\"><tr><td>Marthe Gallet</td><td>female</td><td>29-Oct-1950</td></tr></table></div>"
        },
        "gender": "female",
        "birthDate": "1950-10-29"
      }
    },
    {
      "fullUrl": "urn:uuid:042541d6-5e32-499e-b59e-342ae34155fa",
      "resource": {
        "resourceType": "ServiceRequest",
        "id": "042541d6-5e32-499e-b59e-342ae34155fa",
        "meta": {
          "profile": [
            "http://hl7.eu/fhir/laboratory/StructureDefinition/ServiceRequest-eu-lab"
          ]
        },
        "identifier": [
          {
            "system": "http://example.org",
            "value": "eab29202-cd92-4819-971f-de45bf88f6be"
          }
        ],
        "specimen": [
          {
            "reference": "urn:uuid:0a7c6849-523b-4f16-94d8-b6d0f97bf4c7"
          },
          {
            "reference": "urn:uuid:b05c94bc-2cd2-4b4a-a222-98d94273e615"
          },
          {
            "reference": "urn:uuid:34e39c8e-e228-4d02-89b9-30dbe7cec58e"
          }
        ],
        "reasonCode": [
          {
            "coding": [
              {
                "code": "431856006",
                "system": "http://snomed.info/sct",
                "display": "Chronic kidney disease stage 2"
              }
            ]
          },
          {
            "coding": [
              {
                "code": "90781000119102",
                "system": "http://snomed.info/sct",
                "display": "Microalbuminuria due to type 2 diabetes mellitus"
              }
            ]
          },
          {
            "coding": [
              {
                "code": "127013003",
                "system": "http://snomed.info/sct",
                "display": "Disorder of kidney due to diabetes mellitus"
              }
            ]
          },
          {
            "coding": [
              {
                "code": "431855005",
                "system": "http://snomed.info/sct",
                "display": "Chronic kidney disease stage 1"
              }
            ]
          },
          {
            "coding": [
              {
                "code": "55822004",
                "system": "http://snomed.info/sct",
                "display": "Hyperlipidemia"
              }
            ]
          },
          {
            "coding": [
              {
                "code": "59621000",
                "system": "http://snomed.info/sct",
                "display": "Essential hypertension"
              }
            ]
          }
        ],
        "status": "active",
        "intent": "order",
        "code": {
          "coding": [
            {
              "code": "108252007",
              "system": "http://snomed.info/sct",
              "display": "Laboratory procedure"
            }
          ]
        },
        "subject": {
          "reference": "urn:uuid:4089d26d-5515-44ee-8208-76dd84509057",
          "display": "Marthe Gallet"
        },
        "requester": {
          "reference": "urn:uuid:40ac4d2a-578b-496b-8455-0dea8ac17821"
        }
      }
    },
    {
      "fullUrl": "urn:uuid:40ac4d2a-578b-496b-8455-0dea8ac17821",
      "resource": {
        "resourceType": "PractitionerRole",
        "id": "40ac4d2a-578b-496b-8455-0dea8ac17821",
        "meta": {
          "profile": [
            "http://hl7.eu/fhir/base/StructureDefinition/practitionerRole-eu"
          ]
        },
        "text": {
          "status": "generated",
          "div": "<div xmlns=\"http://www.w3.org/1999/xhtml\">Provider Role Id: 40ac4d2a-578b-496b-8455-0dea8ac17821</div>"
        },
        "organization": {
          "reference": "urn:uuid:e0917b39-5781-4c57-aab6-340ffa77f7e6"
        }
      }
    },
    {
      "fullUrl": "urn:uuid:e0917b39-5781-4c57-aab6-340ffa77f7e6",
      "resource": {
        "resourceType": "Organization",
        "id": "e0917b39-5781-4c57-aab6-340ffa77f7e6",
        "meta": {
          "profile": [
            "http://hl7.eu/fhir/base/StructureDefinition/organization-eu"
          ]
        },
        "identifier": [
          {
            "assigner": {
              "display": "HL7 Europe"
            },
            "system": "urn:oid:2.16.840.1.113883.2.51.999",
            "value": "eb42a97a-906b-4e1d-bdf0-b6df0bc709d1"
          }
        ],
        "address": [
          {
            "line": [
              "Rue Larrey nan"
            ],
            "city": "Angers",
            "postalCode": "49100",
            "country": "France"
          }
        ],
        "text": {
          "status": "generated",
          "div": "<div xmlns=\"http://www.w3.org/1999/xhtml\">Provider Organization: CHU d&#039;Angers</div>"
        },
        "name": "CHU d&#039;Angers"
      }
    },
    {
      "fullUrl": "urn:uuid:0a7c6849-523b-4f16-94d8-b6d0f97bf4c7",
      "resource": {
        "resourceType": "Specimen",
        "id": "0a7c6849-523b-4f16-94d8-b6d0f97bf4c7",
        "meta": {
          "profile": [
            "http://hl7.eu/fhir/laboratory/StructureDefinition/Specimen-eu-lab"
          ]
        },
        "collection": {
          "collectedDateTime": "2018-02-22"
        },
        "text": {
          "status": "generated",
          "div": "<div xmlns=\"http://www.w3.org/1999/xhtml\"><table class=\"hl7__eu__lab__report\"><tr><th>Specimen</th><th>Collection Date</th></tr><tr><td>Acellular blood (serum or plasma) specimen</td><td><span class=\"nb\">22-Feb-2018</span></td></tr></table></div>"
        },
        "type": {
          "coding": [
            {
              "code": "122592007",
              "system": "http://snomed.info/sct",
              "display": "Acellular blood (serum or plasma) specimen"
            }
          ]
        }
      }
    },
    {
      "fullUrl": "urn:uuid:b05c94bc-2cd2-4b4a-a222-98d94273e615",
      "resource": {
        "resourceType": "Specimen",
        "id": "b05c94bc-2cd2-4b4a-a222-98d94273e615",
        "meta": {
          "profile": [
            "http://hl7.eu/fhir/laboratory/StructureDefinition/Specimen-eu-lab"
          ]
        },
        "collection": {
          "collectedDateTime": "2018-02-22"
        },
        "text": {
          "status": "generated",
          "div": "<div xmlns=\"http://www.w3.org/1999/xhtml\"><table class=\"hl7__eu__lab__report\"><tr><th>Specimen</th><th>Collection Date</th></tr><tr><td>Urine specimen</td><td><span class=\"nb\">22-Feb-2018</span></td></tr></table></div>"
        },
        "type": {
          "coding": [
            {
              "code": "122575003",
              "system": "http://snomed.info/sct",
              "display": "Urine specimen"
            }
          ]
        }
      }
    },
    {
      "fullUrl": "urn:uuid:34e39c8e-e228-4d02-89b9-30dbe7cec58e",
      "resource": {
        "resourceType": "Specimen",
        "id": "34e39c8e-e228-4d02-89b9-30dbe7cec58e",
        "meta": {
          "profile": [
            "http://hl7.eu/fhir/laboratory/StructureDefinition/Specimen-eu-lab"
          ]
        },
        "collection": {
          "collectedDateTime": "2018-02-22"
        },
        "text": {
          "status": "generated",
          "div": "<div xmlns=\"http://www.w3.org/1999/xhtml\"><table class=\"hl7__eu__lab__report\"><tr><th>Specimen</th><th>Collection Date</th></tr><tr><td>Whole blood specimen (specimen)</td><td><span class=\"nb\">22-Feb-2018</span></td></tr></table></div>"
        },
        "type": {
          "coding": [
            {
              "code": "258580003",
              "system": "http://snomed.info/sct",
              "display": "Whole blood specimen (specimen)"
            }
          ]
        }
      }
    },
    {
      "fullUrl": "urn:uuid:34e39c8e-e228-4d02-89b9-30dbe7cec58e",
      "resource": {
        "resourceType": "Specimen",
        "id": "34e39c8e-e228-4d02-89b9-30dbe7cec58e",
        "meta": {
          "profile": [
            "http://hl7.eu/fhir/laboratory/StructureDefinition/Specimen-eu-lab"
          ]
        },
        "collection": {
          "collectedDateTime": "2018-02-22"
        },
        "text": {
          "status": "generated",
          "div": "<div xmlns=\"http://www.w3.org/1999/xhtml\"><table class=\"hl7__eu__lab__report\"><tr><th>Specimen</th><th>Collection Date</th></tr><tr><td>Whole blood specimen (specimen)</td><td><span class=\"nb\">22-Feb-2018</span></td></tr></table></div>"
        },
        "type": {
          "coding": [
            {
              "code": "258580003",
              "system": "http://snomed.info/sct",
              "display": "Whole blood specimen (specimen)"
            }
          ]
        }
      }
    },
    {
      "fullUrl": "urn:uuid:26fb6f10-b6d7-4f15-8b2e-acfc907cbca8",
      "resource": {
        "resourceType": "Observation",
        "id": "26fb6f10-b6d7-4f15-8b2e-acfc907cbca8",
        "meta": {
          "profile": [
            "http://hl7.eu/fhir/laboratory/StructureDefinition/Observation-resultslab-eu-lab"
          ]
        },
        "performer": [
          {
            "display": "The Central European Lab"
          }
        ],
        "category": [
          {
            "coding": [
              {
                "system": "http://terminology.hl7.org/CodeSystem/observation-category",
                "code": "laboratory"
              }
            ]
          }
        ],
        "code": {
          "coding": [
            {
              "code": "2345-7",
              "system": "http://loinc.org",
              "display": "Glucose [Mass/volume] in Serum or Plasma"
            }
          ],
          "text": "Glucose [Mass/volume] in Serum or Plasma"
        },
        "valueQuantity": {
          "system": "http://unitsofmeasure.org",
          "value": 71.9,
          "unit": "mg/dL",
          "code": "mg/dL"
        },
        "referenceRange": [
          {
            "low": {
              "value": 70,
              "code": "mg/dL",
              "system": "http://unitsofmeasure.org"
            }
          },
          {
            "high": {
              "value": 140,
              "code": "mg/dL",
              "system": "http://unitsofmeasure.org"
            }
          }
        ],
        "text": {
          "status": "generated",
          "div": "<div xmlns=\"http://www.w3.org/1999/xhtml\"><table class=\"hl7__eu__lab__report\"><tr><th>Test</th><th>22-Feb-2018</th><th>Reference&#xA0;Range</th><th>Unit</th></tr><tr><td>Glucose [Mass/volume] in Serum or Plasma</td><td>71.9</td><td>70 - 140</td><td></td><td>mg/dL</td></tr></table></div>"
        },
        "status": "final",
        "subject": {
          "reference": "urn:uuid:4089d26d-5515-44ee-8208-76dd84509057",
          "display": "Marthe Gallet"
        },
        "effectiveDateTime": "2018-02-22T19:05:43Z",
        "specimen": {
          "reference": "urn:uuid:0a7c6849-523b-4f16-94d8-b6d0f97bf4c7"
        }
      }
    },
    {
      "fullUrl": "urn:uuid:cb604e67-ded8-4db2-ac05-56e4ca5df822",
      "resource": {
        "resourceType": "Observation",
        "id": "cb604e67-ded8-4db2-ac05-56e4ca5df822",
        "meta": {
          "profile": [
            "http://hl7.eu/fhir/laboratory/StructureDefinition/Observation-resultslab-eu-lab"
          ]
        },
        "performer": [
          {
            "display": "The Central European Lab"
          }
        ],
        "category": [
          {
            "coding": [
              {
                "system": "http://terminology.hl7.org/CodeSystem/observation-category",
                "code": "laboratory"
              }
            ]
          }
        ],
        "code": {
          "coding": [
            {
              "code": "3094-0",
              "system": "http://loinc.org",
              "display": "Urea nitrogen [Mass/volume] in Serum or Plasma"
            }
          ],
          "text": "Urea nitrogen [Mass/volume] in Serum or Plasma"
        },
        "valueQuantity": {
          "system": "http://unitsofmeasure.org",
          "value": 17.8,
          "unit": "mg/dL",
          "code": "mg/dL"
        },
        "referenceRange": [
          {
            "low": {
              "value": 7,
              "code": "mg/dL",
              "system": "http://unitsofmeasure.org"
            }
          },
          {
            "high": {
              "value": 50,
              "code": "mg/dL",
              "system": "http://unitsofmeasure.org"
            }
          }
        ],
        "text": {
          "status": "generated",
          "div": "<div xmlns=\"http://www.w3.org/1999/xhtml\"><table class=\"hl7__eu__lab__report\"><tr><th>Test</th><th>22-Feb-2018</th><th>Reference&#xA0;Range</th><th>Unit</th></tr><tr><td>Urea nitrogen [Mass/volume] in Serum or Plasma</td><td>17.8</td><td>7 - 50</td><td></td><td>mg/dL</td></tr></table></div>"
        },
        "status": "final",
        "subject": {
          "reference": "urn:uuid:4089d26d-5515-44ee-8208-76dd84509057",
          "display": "Marthe Gallet"
        },
        "effectiveDateTime": "2018-02-22T19:05:43Z",
        "specimen": {
          "reference": "urn:uuid:0a7c6849-523b-4f16-94d8-b6d0f97bf4c7"
        }
      }
    },
    {
      "fullUrl": "urn:uuid:6086a922-ed56-4823-b73c-ab00c66a10cb",
      "resource": {
        "resourceType": "Observation",
        "id": "6086a922-ed56-4823-b73c-ab00c66a10cb",
        "meta": {
          "profile": [
            "http://hl7.eu/fhir/laboratory/StructureDefinition/Observation-resultslab-eu-lab"
          ]
        },
        "performer": [
          {
            "display": "The Central European Lab"
          }
        ],
        "category": [
          {
            "coding": [
              {
                "system": "http://terminology.hl7.org/CodeSystem/observation-category",
                "code": "laboratory"
              }
            ]
          }
        ],
        "code": {
          "coding": [
            {
              "code": "2160-0",
              "system": "http://loinc.org",
              "display": "Creatinine [Mass/volume] in Serum or Plasma"
            }
          ],
          "text": "Creatinine [Mass/volume] in Serum or Plasma"
        },
        "valueQuantity": {
          "system": "http://unitsofmeasure.org",
          "value": 1.5,
          "unit": "mg/dL",
          "code": "mg/dL"
        },
        "referenceRange": [
          {
            "low": {
              "value": 0.6,
              "code": "mg/dL",
              "system": "http://unitsofmeasure.org"
            }
          },
          {
            "high": {
              "value": 1.1,
              "code": "mg/dL",
              "system": "http://unitsofmeasure.org"
            }
          }
        ],
        "interpretation": [
          {
            "coding": [
              {
                "code": "H",
                "system": "http://terminology.hl7.org/CodeSystem/v3-ObservationInterpretation",
                "display": "High"
              }
            ]
          }
        ],
        "text": {
          "status": "generated",
          "div": "<div xmlns=\"http://www.w3.org/1999/xhtml\"><table class=\"hl7__eu__lab__report\"><tr><th>Test</th><th>22-Feb-2018</th><th>Reference&#xA0;Range</th><th>Unit</th></tr><tr><td>Creatinine [Mass/volume] in Serum or Plasma</td><td>1.5</td><td>0.6 - 1.1</td><td>H</td><td>mg/dL</td></tr></table></div>"
        },
        "status": "final",
        "subject": {
          "reference": "urn:uuid:4089d26d-5515-44ee-8208-76dd84509057",
          "display": "Marthe Gallet"
        },
        "effectiveDateTime": "2018-02-22T19:05:43Z",
        "specimen": {
          "reference": "urn:uuid:0a7c6849-523b-4f16-94d8-b6d0f97bf4c7"
        }
      }
    },
    {
      "fullUrl": "urn:uuid:d4aa518d-0972-4431-8b79-1cef2a965a93",
      "resource": {
        "resourceType": "Observation",
        "id": "d4aa518d-0972-4431-8b79-1cef2a965a93",
        "meta": {
          "profile": [
            "http://hl7.eu/fhir/laboratory/StructureDefinition/Observation-resultslab-eu-lab"
          ]
        },
        "performer": [
          {
            "display": "The Central European Lab"
          }
        ],
        "category": [
          {
            "coding": [
              {
                "system": "http://terminology.hl7.org/CodeSystem/observation-category",
                "code": "laboratory"
              }
            ]
          }
        ],
        "code": {
          "coding": [
            {
              "code": "17861-6",
              "system": "http://loinc.org",
              "display": "Calcium [Mass/volume] in Serum or Plasma"
            }
          ],
          "text": "Calcium [Mass/volume] in Serum or Plasma"
        },
        "valueQuantity": {
          "system": "http://unitsofmeasure.org",
          "value": 9.6,
          "unit": "mg/dL",
          "code": "mg/dL"
        },
        "referenceRange": [
          {
            "low": {
              "value": 8.5,
              "code": "mg/dL",
              "system": "http://unitsofmeasure.org"
            }
          },
          {
            "high": {
              "value": 10.5,
              "code": "mg/dL",
              "system": "http://unitsofmeasure.org"
            }
          }
        ],
        "text": {
          "status": "generated",
          "div": "<div xmlns=\"http://www.w3.org/1999/xhtml\"><table class=\"hl7__eu__lab__report\"><tr><th>Test</th><th>22-Feb-2018</th><th>Reference&#xA0;Range</th><th>Unit</th></tr><tr><td>Calcium [Mass/volume] in Serum or Plasma</td><td>9.6</td><td>8.5 - 10.5</td><td></td><td>mg/dL</td></tr></table></div>"
        },
        "status": "final",
        "subject": {
          "reference": "urn:uuid:4089d26d-5515-44ee-8208-76dd84509057",
          "display": "Marthe Gallet"
        },
        "effectiveDateTime": "2018-02-22T19:05:43Z",
        "specimen": {
          "reference": "urn:uuid:0a7c6849-523b-4f16-94d8-b6d0f97bf4c7"
        }
      }
    },
    {
      "fullUrl": "urn:uuid:762668d4-071c-46f9-a769-78316e6745c6",
      "resource": {
        "resourceType": "Observation",
        "id": "762668d4-071c-46f9-a769-78316e6745c6",
        "meta": {
          "profile": [
            "http://hl7.eu/fhir/laboratory/StructureDefinition/Observation-resultslab-eu-lab"
          ]
        },
        "performer": [
          {
            "display": "The Central European Lab"
          }
        ],
        "category": [
          {
            "coding": [
              {
                "system": "http://terminology.hl7.org/CodeSystem/observation-category",
                "code": "laboratory"
              }
            ]
          }
        ],
        "code": {
          "coding": [
            {
              "code": "2951-2",
              "system": "http://loinc.org",
              "display": "Sodium [Moles/volume] in Serum or Plasma"
            }
          ],
          "text": "Sodium [Moles/volume] in Serum or Plasma"
        },
        "valueQuantity": {
          "system": "http://unitsofmeasure.org",
          "value": 140.3,
          "unit": "mmol/L",
          "code": "mmol/L"
        },
        "referenceRange": [
          {
            "low": {
              "value": 135,
              "code": "mmol/L",
              "system": "http://unitsofmeasure.org"
            }
          },
          {
            "high": {
              "value": 145,
              "code": "mmol/L",
              "system": "http://unitsofmeasure.org"
            }
          }
        ],
        "text": {
          "status": "generated",
          "div": "<div xmlns=\"http://www.w3.org/1999/xhtml\"><table class=\"hl7__eu__lab__report\"><tr><th>Test</th><th>22-Feb-2018</th><th>Reference&#xA0;Range</th><th>Unit</th></tr><tr><td>Sodium [Moles/volume] in Serum or Plasma</td><td>140.3</td><td>135 - 145</td><td></td><td>mmol/L</td></tr></table></div>"
        },
        "status": "final",
        "subject": {
          "reference": "urn:uuid:4089d26d-5515-44ee-8208-76dd84509057",
          "display": "Marthe Gallet"
        },
        "effectiveDateTime": "2018-02-22T19:05:43Z",
        "specimen": {
          "reference": "urn:uuid:0a7c6849-523b-4f16-94d8-b6d0f97bf4c7"
        }
      }
    },
    {
      "fullUrl": "urn:uuid:a6a8f263-5d25-44c4-b9bc-916fc59b7a19",
      "resource": {
        "resourceType": "Observation",
        "id": "a6a8f263-5d25-44c4-b9bc-916fc59b7a19",
        "meta": {
          "profile": [
            "http://hl7.eu/fhir/laboratory/StructureDefinition/Observation-resultslab-eu-lab"
          ]
        },
        "performer": [
          {
            "display": "The Central European Lab"
          }
        ],
        "category": [
          {
            "coding": [
              {
                "system": "http://terminology.hl7.org/CodeSystem/observation-category",
                "code": "laboratory"
              }
            ]
          }
        ],
        "code": {
          "coding": [
            {
              "code": "2823-3",
              "system": "http://loinc.org",
              "display": "Potassium [Moles/volume] in Serum or Plasma"
            }
          ],
          "text": "Potassium [Moles/volume] in Serum or Plasma"
        },
        "valueQuantity": {
          "system": "http://unitsofmeasure.org",
          "value": 5,
          "unit": "mmol/L",
          "code": "mmol/L"
        },
        "referenceRange": [
          {
            "low": {
              "value": 3.5,
              "code": "mmol/L",
              "system": "http://unitsofmeasure.org"
            }
          },
          {
            "high": {
              "value": 5.1,
              "code": "mmol/L",
              "system": "http://unitsofmeasure.org"
            }
          }
        ],
        "text": {
          "status": "generated",
          "div": "<div xmlns=\"http://www.w3.org/1999/xhtml\"><table class=\"hl7__eu__lab__report\"><tr><th>Test</th><th>22-Feb-2018</th><th>Reference&#xA0;Range</th><th>Unit</th></tr><tr><td>Potassium [Moles/volume] in Serum or Plasma</td><td>5.0</td><td>3.5 - 5.1</td><td></td><td>mmol/L</td></tr></table></div>"
        },
        "status": "final",
        "subject": {
          "reference": "urn:uuid:4089d26d-5515-44ee-8208-76dd84509057",
          "display": "Marthe Gallet"
        },
        "effectiveDateTime": "2018-02-22T19:05:43Z",
        "specimen": {
          "reference": "urn:uuid:0a7c6849-523b-4f16-94d8-b6d0f97bf4c7"
        }
      }
    },
    {
      "fullUrl": "urn:uuid:91afbb88-bb9d-444d-b6f0-d1b2bc684271",
      "resource": {
        "resourceType": "Observation",
        "id": "91afbb88-bb9d-444d-b6f0-d1b2bc684271",
        "meta": {
          "profile": [
            "http://hl7.eu/fhir/laboratory/StructureDefinition/Observation-resultslab-eu-lab"
          ]
        },
        "performer": [
          {
            "display": "The Central European Lab"
          }
        ],
        "category": [
          {
            "coding": [
              {
                "system": "http://terminology.hl7.org/CodeSystem/observation-category",
                "code": "laboratory"
              }
            ]
          }
        ],
        "code": {
          "coding": [
            {
              "code": "2075-0",
              "system": "http://loinc.org",
              "display": "Chloride [Moles/volume] in Serum or Plasma"
            }
          ],
          "text": "Chloride [Moles/volume] in Serum or Plasma"
        },
        "valueQuantity": {
          "system": "http://unitsofmeasure.org",
          "value": 103.8,
          "unit": "mmol/L",
          "code": "mmol/L"
        },
        "referenceRange": [
          {
            "low": {
              "value": 98,
              "code": "mmol/L",
              "system": "http://unitsofmeasure.org"
            }
          },
          {
            "high": {
              "value": 108,
              "code": "mmol/L",
              "system": "http://unitsofmeasure.org"
            }
          }
        ],
        "text": {
          "status": "generated",
          "div": "<div xmlns=\"http://www.w3.org/1999/xhtml\"><table class=\"hl7__eu__lab__report\"><tr><th>Test</th><th>22-Feb-2018</th><th>Reference&#xA0;Range</th><th>Unit</th></tr><tr><td>Chloride [Moles/volume] in Serum or Plasma</td><td>103.8</td><td>98 - 108</td><td></td><td>mmol/L</td></tr></table></div>"
        },
        "status": "final",
        "subject": {
          "reference": "urn:uuid:4089d26d-5515-44ee-8208-76dd84509057",
          "display": "Marthe Gallet"
        },
        "effectiveDateTime": "2018-02-22T19:05:43Z",
        "specimen": {
          "reference": "urn:uuid:0a7c6849-523b-4f16-94d8-b6d0f97bf4c7"
        }
      }
    },
    {
      "fullUrl": "urn:uuid:22381492-3099-427c-858a-2cb4a620323d",
      "resource": {
        "resourceType": "Observation",
        "id": "22381492-3099-427c-858a-2cb4a620323d",
        "meta": {
          "profile": [
            "http://hl7.eu/fhir/laboratory/StructureDefinition/Observation-resultslab-eu-lab"
          ]
        },
        "performer": [
          {
            "display": "The Central European Lab"
          }
        ],
        "category": [
          {
            "coding": [
              {
                "system": "http://terminology.hl7.org/CodeSystem/observation-category",
                "code": "laboratory"
              }
            ]
          }
        ],
        "code": {
          "coding": [
            {
              "code": "2028-9",
              "system": "http://loinc.org",
              "display": "Carbon dioxide, total [Moles/volume] in Serum or Plasma"
            }
          ],
          "text": "Carbon dioxide, total [Moles/volume] in Serum or Plasma"
        },
        "valueQuantity": {
          "system": "http://unitsofmeasure.org",
          "value": 20.5,
          "unit": "mmol/L",
          "code": "mmol/L"
        },
        "referenceRange": [
          {
            "low": {
              "value": 22,
              "code": "mmol/L",
              "system": "http://unitsofmeasure.org"
            }
          },
          {
            "high": {
              "value": 32,
              "code": "mmol/L",
              "system": "http://unitsofmeasure.org"
            }
          }
        ],
        "interpretation": [
          {
            "coding": [
              {
                "code": "L",
                "system": "http://terminology.hl7.org/CodeSystem/v3-ObservationInterpretation",
                "display": "Low"
              }
            ]
          }
        ],
        "text": {
          "status": "generated",
          "div": "<div xmlns=\"http://www.w3.org/1999/xhtml\"><table class=\"hl7__eu__lab__report\"><tr><th>Test</th><th>22-Feb-2018</th><th>Reference&#xA0;Range</th><th>Unit</th></tr><tr><td>Carbon dioxide, total [Moles/volume] in Serum or Plasma</td><td>20.5</td><td>22 - 32</td><td>L</td><td>mmol/L</td></tr></table></div>"
        },
        "status": "final",
        "subject": {
          "reference": "urn:uuid:4089d26d-5515-44ee-8208-76dd84509057",
          "display": "Marthe Gallet"
        },
        "effectiveDateTime": "2018-02-22T19:05:43Z",
        "specimen": {
          "reference": "urn:uuid:0a7c6849-523b-4f16-94d8-b6d0f97bf4c7"
        }
      }
    },
    {
      "fullUrl": "urn:uuid:f2c24fe1-316b-4001-8207-0218b9362688",
      "resource": {
        "resourceType": "Observation",
        "id": "f2c24fe1-316b-4001-8207-0218b9362688",
        "meta": {
          "profile": [
            "http://hl7.eu/fhir/laboratory/StructureDefinition/Observation-resultslab-eu-lab"
          ]
        },
        "performer": [
          {
            "display": "The Central European Lab"
          }
        ],
        "category": [
          {
            "coding": [
              {
                "system": "http://terminology.hl7.org/CodeSystem/observation-category",
                "code": "laboratory"
              }
            ]
          }
        ],
        "code": {
          "coding": [
            {
              "code": "5767-9",
              "system": "http://loinc.org",
              "display": "Appearance of Urine"
            }
          ],
          "text": "Appearance of Urine"
        },
        "text": {
          "status": "generated",
          "div": "<div xmlns=\"http://www.w3.org/1999/xhtml\"><table class=\"hl7__eu__lab__report\"><tr><th>Test</th><th>22-Feb-2018</th><th>Reference&#xA0;Range</th><th>Unit</th></tr><tr><td>Appearance of Urine</td></tr></table></div>"
        },
        "status": "final",
        "subject": {
          "reference": "urn:uuid:4089d26d-5515-44ee-8208-76dd84509057",
          "display": "Marthe Gallet"
        },
        "effectiveDateTime": "2018-02-22T19:05:43Z",
        "specimen": {
          "reference": "urn:uuid:b05c94bc-2cd2-4b4a-a222-98d94273e615"
        }
      }
    },
    {
      "fullUrl": "urn:uuid:5ae8c77e-0607-4417-beed-85360fa5c0ac",
      "resource": {
        "resourceType": "Observation",
        "id": "5ae8c77e-0607-4417-beed-85360fa5c0ac",
        "meta": {
          "profile": [
            "http://hl7.eu/fhir/laboratory/StructureDefinition/Observation-resultslab-eu-lab"
          ]
        },
        "performer": [
          {
            "display": "The Central European Lab"
          }
        ],
        "category": [
          {
            "coding": [
              {
                "system": "http://terminology.hl7.org/CodeSystem/observation-category",
                "code": "laboratory"
              }
            ]
          }
        ],
        "code": {
          "coding": [
            {
              "code": "34533-0",
              "system": "http://loinc.org",
              "display": "Odor of Urine"
            }
          ],
          "text": "Odor of Urine"
        },
        "text": {
          "status": "generated",
          "div": "<div xmlns=\"http://www.w3.org/1999/xhtml\"><table class=\"hl7__eu__lab__report\"><tr><th>Test</th><th>22-Feb-2018</th><th>Reference&#xA0;Range</th><th>Unit</th></tr><tr><td>Odor of Urine</td></tr></table></div>"
        },
        "status": "final",
        "subject": {
          "reference": "urn:uuid:4089d26d-5515-44ee-8208-76dd84509057",
          "display": "Marthe Gallet"
        },
        "effectiveDateTime": "2018-02-22T19:05:43Z",
        "specimen": {
          "reference": "urn:uuid:b05c94bc-2cd2-4b4a-a222-98d94273e615"
        }
      }
    },
    {
      "fullUrl": "urn:uuid:a68cd644-70a5-4bec-93a0-07ddda798d40",
      "resource": {
        "resourceType": "Observation",
        "id": "a68cd644-70a5-4bec-93a0-07ddda798d40",
        "meta": {
          "profile": [
            "http://hl7.eu/fhir/laboratory/StructureDefinition/Observation-resultslab-eu-lab"
          ]
        },
        "performer": [
          {
            "display": "The Central European Lab"
          }
        ],
        "category": [
          {
            "coding": [
              {
                "system": "http://terminology.hl7.org/CodeSystem/observation-category",
                "code": "laboratory"
              }
            ]
          }
        ],
        "code": {
          "coding": [
            {
              "code": "32167-9",
              "system": "http://loinc.org",
              "display": "Clarity of Urine"
            }
          ],
          "text": "Clarity of Urine"
        },
        "text": {
          "status": "generated",
          "div": "<div xmlns=\"http://www.w3.org/1999/xhtml\"><table class=\"hl7__eu__lab__report\"><tr><th>Test</th><th>22-Feb-2018</th><th>Reference&#xA0;Range</th><th>Unit</th></tr><tr><td>Clarity of Urine</td></tr></table></div>"
        },
        "status": "final",
        "subject": {
          "reference": "urn:uuid:4089d26d-5515-44ee-8208-76dd84509057",
          "display": "Marthe Gallet"
        },
        "effectiveDateTime": "2018-02-22T19:05:43Z",
        "specimen": {
          "reference": "urn:uuid:b05c94bc-2cd2-4b4a-a222-98d94273e615"
        }
      }
    },
    {
      "fullUrl": "urn:uuid:b057cca3-303e-4a1c-90ab-a0a341161213",
      "resource": {
        "resourceType": "Observation",
        "id": "b057cca3-303e-4a1c-90ab-a0a341161213",
        "meta": {
          "profile": [
            "http://hl7.eu/fhir/laboratory/StructureDefinition/Observation-resultslab-eu-lab"
          ]
        },
        "performer": [
          {
            "display": "The Central European Lab"
          }
        ],
        "category": [
          {
            "coding": [
              {
                "system": "http://terminology.hl7.org/CodeSystem/observation-category",
                "code": "laboratory"
              }
            ]
          }
        ],
        "code": {
          "coding": [
            {
              "code": "5778-6",
              "system": "http://loinc.org",
              "display": "Color of Urine"
            }
          ],
          "text": "Color of Urine"
        },
        "text": {
          "status": "generated",
          "div": "<div xmlns=\"http://www.w3.org/1999/xhtml\"><table class=\"hl7__eu__lab__report\"><tr><th>Test</th><th>22-Feb-2018</th><th>Reference&#xA0;Range</th><th>Unit</th></tr><tr><td>Color of Urine</td></tr></table></div>"
        },
        "status": "final",
        "subject": {
          "reference": "urn:uuid:4089d26d-5515-44ee-8208-76dd84509057",
          "display": "Marthe Gallet"
        },
        "effectiveDateTime": "2018-02-22T19:05:43Z",
        "specimen": {
          "reference": "urn:uuid:b05c94bc-2cd2-4b4a-a222-98d94273e615"
        }
      }
    },
    {
      "fullUrl": "urn:uuid:ac7de611-963c-47f9-b47e-6ac2bbae69ec",
      "resource": {
        "resourceType": "Observation",
        "id": "ac7de611-963c-47f9-b47e-6ac2bbae69ec",
        "meta": {
          "profile": [
            "http://hl7.eu/fhir/laboratory/StructureDefinition/Observation-resultslab-eu-lab"
          ]
        },
        "performer": [
          {
            "display": "The Central European Lab"
          }
        ],
        "category": [
          {
            "coding": [
              {
                "system": "http://terminology.hl7.org/CodeSystem/observation-category",
                "code": "laboratory"
              }
            ]
          }
        ],
        "code": {
          "coding": [
            {
              "code": "5792-7",
              "system": "http://loinc.org",
              "display": "Glucose [Mass/volume] in Urine by Test strip"
            }
          ],
          "text": "Glucose [Mass/volume] in Urine by Test strip"
        },
        "valueQuantity": {
          "system": "http://unitsofmeasure.org",
          "value": 2.4,
          "unit": "mg/dL",
          "code": "mg/dL"
        },
        "referenceRange": [
          {
            "low": {
              "value": 0.8,
              "code": "mg/dL",
              "system": "http://unitsofmeasure.org"
            }
          },
          {
            "high": {
              "value": 0,
              "code": "mg/dL",
              "system": "http://unitsofmeasure.org"
            }
          }
        ],
        "interpretation": [
          {
            "coding": [
              {
                "code": "H",
                "system": "http://terminology.hl7.org/CodeSystem/v3-ObservationInterpretation",
                "display": "High"
              }
            ]
          }
        ],
        "text": {
          "status": "generated",
          "div": "<div xmlns=\"http://www.w3.org/1999/xhtml\"><table class=\"hl7__eu__lab__report\"><tr><th>Test</th><th>22-Feb-2018</th><th>Reference&#xA0;Range</th><th>Unit</th></tr><tr><td>Glucose [Mass/volume] in Urine by Test strip</td><td>2.4</td><td>0.8 - 0</td><td>H</td><td>mg/dL</td></tr></table></div>"
        },
        "status": "final",
        "subject": {
          "reference": "urn:uuid:4089d26d-5515-44ee-8208-76dd84509057",
          "display": "Marthe Gallet"
        },
        "effectiveDateTime": "2018-02-22T19:05:43Z",
        "specimen": {
          "reference": "urn:uuid:b05c94bc-2cd2-4b4a-a222-98d94273e615"
        }
      }
    },
    {
      "fullUrl": "urn:uuid:5ed792ad-ea26-46a9-9de3-593e1ace68cc",
      "resource": {
        "resourceType": "Observation",
        "id": "5ed792ad-ea26-46a9-9de3-593e1ace68cc",
        "meta": {
          "profile": [
            "http://hl7.eu/fhir/laboratory/StructureDefinition/Observation-resultslab-eu-lab"
          ]
        },
        "performer": [
          {
            "display": "The Central European Lab"
          }
        ],
        "category": [
          {
            "coding": [
              {
                "system": "http://terminology.hl7.org/CodeSystem/observation-category",
                "code": "laboratory"
              }
            ]
          }
        ],
        "code": {
          "coding": [
            {
              "code": "25428-4",
              "system": "http://loinc.org",
              "display": "Glucose [Presence] in Urine by Test strip"
            }
          ],
          "text": "Glucose [Presence] in Urine by Test strip"
        },
        "text": {
          "status": "generated",
          "div": "<div xmlns=\"http://www.w3.org/1999/xhtml\"><table class=\"hl7__eu__lab__report\"><tr><th>Test</th><th>22-Feb-2018</th><th>Reference&#xA0;Range</th><th>Unit</th></tr><tr><td>Glucose [Presence] in Urine by Test strip</td></tr></table></div>"
        },
        "status": "final",
        "subject": {
          "reference": "urn:uuid:4089d26d-5515-44ee-8208-76dd84509057",
          "display": "Marthe Gallet"
        },
        "effectiveDateTime": "2018-02-22T19:05:43Z",
        "specimen": {
          "reference": "urn:uuid:b05c94bc-2cd2-4b4a-a222-98d94273e615"
        }
      }
    },
    {
      "fullUrl": "urn:uuid:2dd69f09-55e0-48bd-bf6d-8f3694ffcafd",
      "resource": {
        "resourceType": "Observation",
        "id": "2dd69f09-55e0-48bd-bf6d-8f3694ffcafd",
        "meta": {
          "profile": [
            "http://hl7.eu/fhir/laboratory/StructureDefinition/Observation-resultslab-eu-lab"
          ]
        },
        "performer": [
          {
            "display": "The Central European Lab"
          }
        ],
        "category": [
          {
            "coding": [
              {
                "system": "http://terminology.hl7.org/CodeSystem/observation-category",
                "code": "laboratory"
              }
            ]
          }
        ],
        "code": {
          "coding": [
            {
              "code": "20505-4",
              "system": "http://loinc.org",
              "display": "Bilirubin.total [Mass/volume] in Urine by Test strip"
            }
          ],
          "text": "Bilirubin.total [Mass/volume] in Urine by Test strip"
        },
        "valueQuantity": {
          "system": "http://unitsofmeasure.org",
          "value": 0.4,
          "unit": "mg/dL",
          "code": "mg/dL"
        },
        "referenceRange": [
          {
            "low": {
              "value": 0,
              "code": "mg/dL",
              "system": "http://unitsofmeasure.org"
            }
          },
          {
            "high": {
              "value": 1,
              "code": "mg/dL",
              "system": "http://unitsofmeasure.org"
            }
          }
        ],
        "text": {
          "status": "generated",
          "div": "<div xmlns=\"http://www.w3.org/1999/xhtml\"><table class=\"hl7__eu__lab__report\"><tr><th>Test</th><th>22-Feb-2018</th><th>Reference&#xA0;Range</th><th>Unit</th></tr><tr><td>Bilirubin.total [Mass/volume] in Urine by Test strip</td><td>0.4</td><td>0 - 1</td><td></td><td>mg/dL</td></tr></table></div>"
        },
        "status": "final",
        "subject": {
          "reference": "urn:uuid:4089d26d-5515-44ee-8208-76dd84509057",
          "display": "Marthe Gallet"
        },
        "effectiveDateTime": "2018-02-22T19:05:43Z",
        "specimen": {
          "reference": "urn:uuid:b05c94bc-2cd2-4b4a-a222-98d94273e615"
        }
      }
    },
    {
      "fullUrl": "urn:uuid:ef5b615d-aeb1-4e88-a317-9378eddc80d2",
      "resource": {
        "resourceType": "Observation",
        "id": "ef5b615d-aeb1-4e88-a317-9378eddc80d2",
        "meta": {
          "profile": [
            "http://hl7.eu/fhir/laboratory/StructureDefinition/Observation-resultslab-eu-lab"
          ]
        },
        "performer": [
          {
            "display": "The Central European Lab"
          }
        ],
        "category": [
          {
            "coding": [
              {
                "system": "http://terminology.hl7.org/CodeSystem/observation-category",
                "code": "laboratory"
              }
            ]
          }
        ],
        "code": {
          "coding": [
            {
              "code": "5770-3",
              "system": "http://loinc.org",
              "display": "Bilirubin.total [Presence] in Urine by Test strip"
            }
          ],
          "text": "Bilirubin.total [Presence] in Urine by Test strip"
        },
        "text": {
          "status": "generated",
          "div": "<div xmlns=\"http://www.w3.org/1999/xhtml\"><table class=\"hl7__eu__lab__report\"><tr><th>Test</th><th>22-Feb-2018</th><th>Reference&#xA0;Range</th><th>Unit</th></tr><tr><td>Bilirubin.total [Presence] in Urine by Test strip</td></tr></table></div>"
        },
        "status": "final",
        "subject": {
          "reference": "urn:uuid:4089d26d-5515-44ee-8208-76dd84509057",
          "display": "Marthe Gallet"
        },
        "effectiveDateTime": "2018-02-22T19:05:43Z",
        "specimen": {
          "reference": "urn:uuid:b05c94bc-2cd2-4b4a-a222-98d94273e615"
        }
      }
    },
    {
      "fullUrl": "urn:uuid:52bb2a25-3af1-47ac-a333-eb3b33806846",
      "resource": {
        "resourceType": "Observation",
        "id": "52bb2a25-3af1-47ac-a333-eb3b33806846",
        "meta": {
          "profile": [
            "http://hl7.eu/fhir/laboratory/StructureDefinition/Observation-resultslab-eu-lab"
          ]
        },
        "performer": [
          {
            "display": "The Central European Lab"
          }
        ],
        "category": [
          {
            "coding": [
              {
                "system": "http://terminology.hl7.org/CodeSystem/observation-category",
                "code": "laboratory"
              }
            ]
          }
        ],
        "code": {
          "coding": [
            {
              "code": "5797-6",
              "system": "http://loinc.org",
              "display": "Ketones [Mass/volume] in Urine by Test strip"
            }
          ],
          "text": "Ketones [Mass/volume] in Urine by Test strip"
        },
        "valueQuantity": {
          "system": "http://unitsofmeasure.org",
          "value": 17,
          "unit": "mg/dL",
          "code": "mg/dL"
        },
        "referenceRange": [
          {
            "low": {
              "value": 0,
              "code": "mg/dL",
              "system": "http://unitsofmeasure.org"
            }
          },
          {
            "high": {
              "value": 20,
              "code": "mg/dL",
              "system": "http://unitsofmeasure.org"
            }
          }
        ],
        "text": {
          "status": "generated",
          "div": "<div xmlns=\"http://www.w3.org/1999/xhtml\"><table class=\"hl7__eu__lab__report\"><tr><th>Test</th><th>22-Feb-2018</th><th>Reference&#xA0;Range</th><th>Unit</th></tr><tr><td>Ketones [Mass/volume] in Urine by Test strip</td><td>17.0</td><td>0 - 20</td><td></td><td>mg/dL</td></tr></table></div>"
        },
        "status": "final",
        "subject": {
          "reference": "urn:uuid:4089d26d-5515-44ee-8208-76dd84509057",
          "display": "Marthe Gallet"
        },
        "effectiveDateTime": "2018-02-22T19:05:43Z",
        "specimen": {
          "reference": "urn:uuid:b05c94bc-2cd2-4b4a-a222-98d94273e615"
        }
      }
    },
    {
      "fullUrl": "urn:uuid:d2335544-74b2-4dfd-abe7-f5e14de31ea4",
      "resource": {
        "resourceType": "Observation",
        "id": "d2335544-74b2-4dfd-abe7-f5e14de31ea4",
        "meta": {
          "profile": [
            "http://hl7.eu/fhir/laboratory/StructureDefinition/Observation-resultslab-eu-lab"
          ]
        },
        "performer": [
          {
            "display": "The Central European Lab"
          }
        ],
        "category": [
          {
            "coding": [
              {
                "system": "http://terminology.hl7.org/CodeSystem/observation-category",
                "code": "laboratory"
              }
            ]
          }
        ],
        "code": {
          "coding": [
            {
              "code": "2514-8",
              "system": "http://loinc.org",
              "display": "Ketones [Presence] in Urine by Test strip"
            }
          ],
          "text": "Ketones [Presence] in Urine by Test strip"
        },
        "text": {
          "status": "generated",
          "div": "<div xmlns=\"http://www.w3.org/1999/xhtml\"><table class=\"hl7__eu__lab__report\"><tr><th>Test</th><th>22-Feb-2018</th><th>Reference&#xA0;Range</th><th>Unit</th></tr><tr><td>Ketones [Presence] in Urine by Test strip</td></tr></table></div>"
        },
        "status": "final",
        "subject": {
          "reference": "urn:uuid:4089d26d-5515-44ee-8208-76dd84509057",
          "display": "Marthe Gallet"
        },
        "effectiveDateTime": "2018-02-22T19:05:43Z",
        "specimen": {
          "reference": "urn:uuid:b05c94bc-2cd2-4b4a-a222-98d94273e615"
        }
      }
    },
    {
      "fullUrl": "urn:uuid:9fe61d1e-ea19-4adf-b13c-64a744310fe4",
      "resource": {
        "resourceType": "Observation",
        "id": "9fe61d1e-ea19-4adf-b13c-64a744310fe4",
        "meta": {
          "profile": [
            "http://hl7.eu/fhir/laboratory/StructureDefinition/Observation-resultslab-eu-lab"
          ]
        },
        "performer": [
          {
            "display": "The Central European Lab"
          }
        ],
        "category": [
          {
            "coding": [
              {
                "system": "http://terminology.hl7.org/CodeSystem/observation-category",
                "code": "laboratory"
              }
            ]
          }
        ],
        "code": {
          "coding": [
            {
              "code": "5811-5",
              "system": "http://loinc.org",
              "display": "Specific gravity of Urine by Test strip"
            }
          ],
          "text": "Specific gravity of Urine by Test strip"
        },
        "valueQuantity": {
          "system": "http://unitsofmeasure.org",
          "value": 1,
          "unit": "{nominal}",
          "code": "{nominal}"
        },
        "referenceRange": [
          {
            "low": {
              "value": 1.01,
              "code": "g/mL",
              "system": "http://unitsofmeasure.org"
            }
          },
          {
            "high": {
              "value": 1.03,
              "code": "g/mL",
              "system": "http://unitsofmeasure.org"
            }
          }
        ],
        "interpretation": [
          {
            "coding": [
              {
                "code": "L",
                "system": "http://terminology.hl7.org/CodeSystem/v3-ObservationInterpretation",
                "display": "Low"
              }
            ]
          }
        ],
        "text": {
          "status": "generated",
          "div": "<div xmlns=\"http://www.w3.org/1999/xhtml\"><table class=\"hl7__eu__lab__report\"><tr><th>Test</th><th>22-Feb-2018</th><th>Reference&#xA0;Range</th><th>Unit</th></tr><tr><td>Specific gravity of Urine by Test strip</td><td>1.0</td><td>1.01 - 1.03</td><td>L</td><td>{nominal}</td></tr></table></div>"
        },
        "status": "final",
        "subject": {
          "reference": "urn:uuid:4089d26d-5515-44ee-8208-76dd84509057",
          "display": "Marthe Gallet"
        },
        "effectiveDateTime": "2018-02-22T19:05:43Z",
        "specimen": {
          "reference": "urn:uuid:b05c94bc-2cd2-4b4a-a222-98d94273e615"
        }
      }
    },
    {
      "fullUrl": "urn:uuid:09d6688d-fc03-4e49-b696-67f7a4069618",
      "resource": {
        "resourceType": "Observation",
        "id": "09d6688d-fc03-4e49-b696-67f7a4069618",
        "meta": {
          "profile": [
            "http://hl7.eu/fhir/laboratory/StructureDefinition/Observation-resultslab-eu-lab"
          ]
        },
        "performer": [
          {
            "display": "The Central European Lab"
          }
        ],
        "category": [
          {
            "coding": [
              {
                "system": "http://terminology.hl7.org/CodeSystem/observation-category",
                "code": "laboratory"
              }
            ]
          }
        ],
        "code": {
          "coding": [
            {
              "code": "5803-2",
              "system": "http://loinc.org",
              "display": "pH of Urine by Test strip"
            }
          ],
          "text": "pH of Urine by Test strip"
        },
        "valueQuantity": {
          "system": "http://unitsofmeasure.org",
          "value": 6.8,
          "unit": "pH",
          "code": "pH"
        },
        "referenceRange": [
          {
            "low": {
              "value": 4.6,
              "code": "pH",
              "system": "http://unitsofmeasure.org"
            }
          },
          {
            "high": {
              "value": 7,
              "code": "pH",
              "system": "http://unitsofmeasure.org"
            }
          }
        ],
        "text": {
          "status": "generated",
          "div": "<div xmlns=\"http://www.w3.org/1999/xhtml\"><table class=\"hl7__eu__lab__report\"><tr><th>Test</th><th>22-Feb-2018</th><th>Reference&#xA0;Range</th><th>Unit</th></tr><tr><td>pH of Urine by Test strip</td><td>6.8</td><td>4.6 - 7</td><td></td><td>pH</td></tr></table></div>"
        },
        "status": "final",
        "subject": {
          "reference": "urn:uuid:4089d26d-5515-44ee-8208-76dd84509057",
          "display": "Marthe Gallet"
        },
        "effectiveDateTime": "2018-02-22T19:05:43Z",
        "specimen": {
          "reference": "urn:uuid:b05c94bc-2cd2-4b4a-a222-98d94273e615"
        }
      }
    },
    {
      "fullUrl": "urn:uuid:ace6e068-7311-4385-aa78-bf8c47a8cf8d",
      "resource": {
        "resourceType": "Observation",
        "id": "ace6e068-7311-4385-aa78-bf8c47a8cf8d",
        "meta": {
          "profile": [
            "http://hl7.eu/fhir/laboratory/StructureDefinition/Observation-resultslab-eu-lab"
          ]
        },
        "performer": [
          {
            "display": "The Central European Lab"
          }
        ],
        "category": [
          {
            "coding": [
              {
                "system": "http://terminology.hl7.org/CodeSystem/observation-category",
                "code": "laboratory"
              }
            ]
          }
        ],
        "code": {
          "coding": [
            {
              "code": "5804-0",
              "system": "http://loinc.org",
              "display": "Protein [Mass/volume] in Urine by Test strip"
            }
          ],
          "text": "Protein [Mass/volume] in Urine by Test strip"
        },
        "valueQuantity": {
          "system": "http://unitsofmeasure.org",
          "value": 113.5,
          "unit": "mg/dL",
          "code": "mg/dL"
        },
        "referenceRange": [
          {
            "low": {
              "value": 0,
              "code": "mg/dL",
              "system": "http://unitsofmeasure.org"
            }
          },
          {
            "high": {
              "value": 15,
              "code": "mg/dL",
              "system": "http://unitsofmeasure.org"
            }
          }
        ],
        "interpretation": [
          {
            "coding": [
              {
                "code": "H",
                "system": "http://terminology.hl7.org/CodeSystem/v3-ObservationInterpretation",
                "display": "High"
              }
            ]
          }
        ],
        "text": {
          "status": "generated",
          "div": "<div xmlns=\"http://www.w3.org/1999/xhtml\"><table class=\"hl7__eu__lab__report\"><tr><th>Test</th><th>22-Feb-2018</th><th>Reference&#xA0;Range</th><th>Unit</th></tr><tr><td>Protein [Mass/volume] in Urine by Test strip</td><td>113.5</td><td>0 - 15</td><td>H</td><td>mg/dL</td></tr></table></div>"
        },
        "status": "final",
        "subject": {
          "reference": "urn:uuid:4089d26d-5515-44ee-8208-76dd84509057",
          "display": "Marthe Gallet"
        },
        "effectiveDateTime": "2018-02-22T19:05:43Z",
        "specimen": {
          "reference": "urn:uuid:b05c94bc-2cd2-4b4a-a222-98d94273e615"
        }
      }
    },
    {
      "fullUrl": "urn:uuid:d2b9b548-e7e2-41f1-bfa0-6a1005d38d2d",
      "resource": {
        "resourceType": "Observation",
        "id": "d2b9b548-e7e2-41f1-bfa0-6a1005d38d2d",
        "meta": {
          "profile": [
            "http://hl7.eu/fhir/laboratory/StructureDefinition/Observation-resultslab-eu-lab"
          ]
        },
        "performer": [
          {
            "display": "The Central European Lab"
          }
        ],
        "category": [
          {
            "coding": [
              {
                "system": "http://terminology.hl7.org/CodeSystem/observation-category",
                "code": "laboratory"
              }
            ]
          }
        ],
        "code": {
          "coding": [
            {
              "code": "20454-5",
              "system": "http://loinc.org",
              "display": "Protein [Presence] in Urine by Test strip"
            }
          ],
          "text": "Protein [Presence] in Urine by Test strip"
        },
        "text": {
          "status": "generated",
          "div": "<div xmlns=\"http://www.w3.org/1999/xhtml\"><table class=\"hl7__eu__lab__report\"><tr><th>Test</th><th>22-Feb-2018</th><th>Reference&#xA0;Range</th><th>Unit</th></tr><tr><td>Protein [Presence] in Urine by Test strip</td></tr></table></div>"
        },
        "status": "final",
        "subject": {
          "reference": "urn:uuid:4089d26d-5515-44ee-8208-76dd84509057",
          "display": "Marthe Gallet"
        },
        "effectiveDateTime": "2018-02-22T19:05:43Z",
        "specimen": {
          "reference": "urn:uuid:b05c94bc-2cd2-4b4a-a222-98d94273e615"
        }
      }
    },
    {
      "fullUrl": "urn:uuid:9e76f406-336a-4081-aba1-c71d956609c4",
      "resource": {
        "resourceType": "Observation",
        "id": "9e76f406-336a-4081-aba1-c71d956609c4",
        "meta": {
          "profile": [
            "http://hl7.eu/fhir/laboratory/StructureDefinition/Observation-resultslab-eu-lab"
          ]
        },
        "performer": [
          {
            "display": "The Central European Lab"
          }
        ],
        "category": [
          {
            "coding": [
              {
                "system": "http://terminology.hl7.org/CodeSystem/observation-category",
                "code": "laboratory"
              }
            ]
          }
        ],
        "code": {
          "coding": [
            {
              "code": "5802-4",
              "system": "http://loinc.org",
              "display": "Nitrite [Presence] in Urine by Test strip"
            }
          ],
          "text": "Nitrite [Presence] in Urine by Test strip"
        },
        "text": {
          "status": "generated",
          "div": "<div xmlns=\"http://www.w3.org/1999/xhtml\"><table class=\"hl7__eu__lab__report\"><tr><th>Test</th><th>22-Feb-2018</th><th>Reference&#xA0;Range</th><th>Unit</th></tr><tr><td>Nitrite [Presence] in Urine by Test strip</td></tr></table></div>"
        },
        "status": "final",
        "subject": {
          "reference": "urn:uuid:4089d26d-5515-44ee-8208-76dd84509057",
          "display": "Marthe Gallet"
        },
        "effectiveDateTime": "2018-02-22T19:05:43Z",
        "specimen": {
          "reference": "urn:uuid:b05c94bc-2cd2-4b4a-a222-98d94273e615"
        }
      }
    },
    {
      "fullUrl": "urn:uuid:ed178649-123d-4efd-a32b-e0038f614096",
      "resource": {
        "resourceType": "Observation",
        "id": "ed178649-123d-4efd-a32b-e0038f614096",
        "meta": {
          "profile": [
            "http://hl7.eu/fhir/laboratory/StructureDefinition/Observation-resultslab-eu-lab"
          ]
        },
        "performer": [
          {
            "display": "The Central European Lab"
          }
        ],
        "category": [
          {
            "coding": [
              {
                "system": "http://terminology.hl7.org/CodeSystem/observation-category",
                "code": "laboratory"
              }
            ]
          }
        ],
        "code": {
          "coding": [
            {
              "code": "5794-3",
              "system": "http://loinc.org",
              "display": "Hemoglobin [Presence] in Urine by Test strip"
            }
          ],
          "text": "Hemoglobin [Presence] in Urine by Test strip"
        },
        "text": {
          "status": "generated",
          "div": "<div xmlns=\"http://www.w3.org/1999/xhtml\"><table class=\"hl7__eu__lab__report\"><tr><th>Test</th><th>22-Feb-2018</th><th>Reference&#xA0;Range</th><th>Unit</th></tr><tr><td>Hemoglobin [Presence] in Urine by Test strip</td></tr></table></div>"
        },
        "status": "final",
        "subject": {
          "reference": "urn:uuid:4089d26d-5515-44ee-8208-76dd84509057",
          "display": "Marthe Gallet"
        },
        "effectiveDateTime": "2018-02-22T19:05:43Z",
        "specimen": {
          "reference": "urn:uuid:b05c94bc-2cd2-4b4a-a222-98d94273e615"
        }
      }
    },
    {
      "fullUrl": "urn:uuid:d5f6b187-24df-4cdf-a4f6-f0132e8b4be9",
      "resource": {
        "resourceType": "Observation",
        "id": "d5f6b187-24df-4cdf-a4f6-f0132e8b4be9",
        "meta": {
          "profile": [
            "http://hl7.eu/fhir/laboratory/StructureDefinition/Observation-resultslab-eu-lab"
          ]
        },
        "performer": [
          {
            "display": "The Central European Lab"
          }
        ],
        "category": [
          {
            "coding": [
              {
                "system": "http://terminology.hl7.org/CodeSystem/observation-category",
                "code": "laboratory"
              }
            ]
          }
        ],
        "code": {
          "coding": [
            {
              "code": "5799-2",
              "system": "http://loinc.org",
              "display": "Leukocyte esterase [Presence] in Urine by Test strip"
            }
          ],
          "text": "Leukocyte esterase [Presence] in Urine by Test strip"
        },
        "text": {
          "status": "generated",
          "div": "<div xmlns=\"http://www.w3.org/1999/xhtml\"><table class=\"hl7__eu__lab__report\"><tr><th>Test</th><th>22-Feb-2018</th><th>Reference&#xA0;Range</th><th>Unit</th></tr><tr><td>Leukocyte esterase [Presence] in Urine by Test strip</td></tr></table></div>"
        },
        "status": "final",
        "subject": {
          "reference": "urn:uuid:4089d26d-5515-44ee-8208-76dd84509057",
          "display": "Marthe Gallet"
        },
        "effectiveDateTime": "2018-02-22T19:05:43Z",
        "specimen": {
          "reference": "urn:uuid:b05c94bc-2cd2-4b4a-a222-98d94273e615"
        }
      }
    },
    {
      "fullUrl": "urn:uuid:d3ce4be4-a7a2-4158-9627-72b3b006d72e",
      "resource": {
        "resourceType": "Observation",
        "id": "d3ce4be4-a7a2-4158-9627-72b3b006d72e",
        "meta": {
          "profile": [
            "http://hl7.eu/fhir/laboratory/StructureDefinition/Observation-resultslab-eu-lab"
          ]
        },
        "performer": [
          {
            "display": "The Central European Lab"
          }
        ],
        "category": [
          {
            "coding": [
              {
                "system": "http://terminology.hl7.org/CodeSystem/observation-category",
                "code": "laboratory"
              }
            ]
          }
        ],
        "code": {
          "coding": [
            {
              "code": "6690-2",
              "system": "http://loinc.org",
              "display": "Leukocytes [#/volume] in Blood by Automated count"
            }
          ],
          "text": "Leukocytes [#/volume] in Blood by Automated count"
        },
        "valueQuantity": {
          "system": "http://unitsofmeasure.org",
          "value": 6.6,
          "unit": "10*3/uL",
          "code": "10*3/uL"
        },
        "referenceRange": [
          {
            "low": {
              "value": 3.6,
              "code": "10*3/uL",
              "system": "http://unitsofmeasure.org"
            }
          },
          {
            "high": {
              "value": 10.5,
              "code": "10*3/uL",
              "system": "http://unitsofmeasure.org"
            }
          }
        ],
        "text": {
          "status": "generated",
          "div": "<div xmlns=\"http://www.w3.org/1999/xhtml\"><table class=\"hl7__eu__lab__report\"><tr><th>Test</th><th>22-Feb-2018</th><th>Reference&#xA0;Range</th><th>Unit</th></tr><tr><td>Leukocytes [#/volume] in Blood by Automated count</td><td>6.6</td><td>3.6 - 10.5</td><td></td><td>10*3/uL</td></tr></table></div>"
        },
        "status": "final",
        "subject": {
          "reference": "urn:uuid:4089d26d-5515-44ee-8208-76dd84509057",
          "display": "Marthe Gallet"
        },
        "effectiveDateTime": "2018-02-22T19:05:43Z",
        "specimen": {
          "reference": "urn:uuid:34e39c8e-e228-4d02-89b9-30dbe7cec58e"
        }
      }
    },
    {
      "fullUrl": "urn:uuid:f5897b5f-1723-4e64-b2c7-d86a0dff60e3",
      "resource": {
        "resourceType": "Observation",
        "id": "f5897b5f-1723-4e64-b2c7-d86a0dff60e3",
        "meta": {
          "profile": [
            "http://hl7.eu/fhir/laboratory/StructureDefinition/Observation-resultslab-eu-lab"
          ]
        },
        "performer": [
          {
            "display": "The Central European Lab"
          }
        ],
        "category": [
          {
            "coding": [
              {
                "system": "http://terminology.hl7.org/CodeSystem/observation-category",
                "code": "laboratory"
              }
            ]
          }
        ],
        "code": {
          "coding": [
            {
              "code": "789-8",
              "system": "http://loinc.org",
              "display": "Erythrocytes [#/volume] in Blood by Automated count"
            }
          ],
          "text": "Erythrocytes [#/volume] in Blood by Automated count"
        },
        "valueQuantity": {
          "system": "http://unitsofmeasure.org",
          "value": 4.9,
          "unit": "10*6/uL",
          "code": "10*6/uL"
        },
        "referenceRange": [
          {
            "low": {
              "value": 4.1,
              "code": "10*6/uL",
              "system": "http://unitsofmeasure.org"
            }
          },
          {
            "high": {
              "value": 5.7,
              "code": "10*6/uL",
              "system": "http://unitsofmeasure.org"
            }
          }
        ],
        "text": {
          "status": "generated",
          "div": "<div xmlns=\"http://www.w3.org/1999/xhtml\"><table class=\"hl7__eu__lab__report\"><tr><th>Test</th><th>22-Feb-2018</th><th>Reference&#xA0;Range</th><th>Unit</th></tr><tr><td>Erythrocytes [#/volume] in Blood by Automated count</td><td>4.9</td><td>4.1 - 5.7</td><td></td><td>10*6/uL</td></tr></table></div>"
        },
        "status": "final",
        "subject": {
          "reference": "urn:uuid:4089d26d-5515-44ee-8208-76dd84509057",
          "display": "Marthe Gallet"
        },
        "effectiveDateTime": "2018-02-22T19:05:43Z",
        "specimen": {
          "reference": "urn:uuid:34e39c8e-e228-4d02-89b9-30dbe7cec58e"
        }
      }
    },
    {
      "fullUrl": "urn:uuid:ac3fc239-0136-4bab-8840-5da6956d828a",
      "resource": {
        "resourceType": "Observation",
        "id": "ac3fc239-0136-4bab-8840-5da6956d828a",
        "meta": {
          "profile": [
            "http://hl7.eu/fhir/laboratory/StructureDefinition/Observation-resultslab-eu-lab"
          ]
        },
        "performer": [
          {
            "display": "The Central European Lab"
          }
        ],
        "category": [
          {
            "coding": [
              {
                "system": "http://terminology.hl7.org/CodeSystem/observation-category",
                "code": "laboratory"
              }
            ]
          }
        ],
        "code": {
          "coding": [
            {
              "code": "718-7",
              "system": "http://loinc.org",
              "display": "Hemoglobin [Mass/volume] in Blood"
            }
          ],
          "text": "Hemoglobin [Mass/volume] in Blood"
        },
        "valueQuantity": {
          "system": "http://unitsofmeasure.org",
          "value": 12.2,
          "unit": "g/dL",
          "code": "g/dL"
        },
        "referenceRange": [
          {
            "low": {
              "value": 12,
              "code": "g/dL",
              "system": "http://unitsofmeasure.org"
            }
          },
          {
            "high": {
              "value": 15.5,
              "code": "g/dL",
              "system": "http://unitsofmeasure.org"
            }
          }
        ],
        "text": {
          "status": "generated",
          "div": "<div xmlns=\"http://www.w3.org/1999/xhtml\"><table class=\"hl7__eu__lab__report\"><tr><th>Test</th><th>22-Feb-2018</th><th>Reference&#xA0;Range</th><th>Unit</th></tr><tr><td>Hemoglobin [Mass/volume] in Blood</td><td>12.2</td><td>12 - 15.5</td><td></td><td>g/dL</td></tr></table></div>"
        },
        "status": "final",
        "subject": {
          "reference": "urn:uuid:4089d26d-5515-44ee-8208-76dd84509057",
          "display": "Marthe Gallet"
        },
        "effectiveDateTime": "2018-02-22T19:05:43Z",
        "specimen": {
          "reference": "urn:uuid:34e39c8e-e228-4d02-89b9-30dbe7cec58e"
        }
      }
    },
    {
      "fullUrl": "urn:uuid:4e80abd0-04fd-4171-9989-12211c391674",
      "resource": {
        "resourceType": "Observation",
        "id": "4e80abd0-04fd-4171-9989-12211c391674",
        "meta": {
          "profile": [
            "http://hl7.eu/fhir/laboratory/StructureDefinition/Observation-resultslab-eu-lab"
          ]
        },
        "performer": [
          {
            "display": "The Central European Lab"
          }
        ],
        "category": [
          {
            "coding": [
              {
                "system": "http://terminology.hl7.org/CodeSystem/observation-category",
                "code": "laboratory"
              }
            ]
          }
        ],
        "code": {
          "coding": [
            {
              "code": "4544-3",
              "system": "http://loinc.org",
              "display": "Hematocrit [Volume Fraction] of Blood by Automated count"
            }
          ],
          "text": "Hematocrit [Volume Fraction] of Blood by Automated count"
        },
        "valueQuantity": {
          "system": "http://unitsofmeasure.org",
          "value": 37.4,
          "unit": "%",
          "code": "%"
        },
        "referenceRange": [
          {
            "low": {
              "value": 37.5,
              "code": "%",
              "system": "http://unitsofmeasure.org"
            }
          },
          {
            "high": {
              "value": 44.3,
              "code": "%",
              "system": "http://unitsofmeasure.org"
            }
          }
        ],
        "interpretation": [
          {
            "coding": [
              {
                "code": "L",
                "system": "http://terminology.hl7.org/CodeSystem/v3-ObservationInterpretation",
                "display": "Low"
              }
            ]
          }
        ],
        "text": {
          "status": "generated",
          "div": "<div xmlns=\"http://www.w3.org/1999/xhtml\"><table class=\"hl7__eu__lab__report\"><tr><th>Test</th><th>22-Feb-2018</th><th>Reference&#xA0;Range</th><th>Unit</th></tr><tr><td>Hematocrit [Volume Fraction] of Blood by Automated count</td><td>37.4</td><td>37.5 - 44.3</td><td>L</td><td>%</td></tr></table></div>"
        },
        "status": "final",
        "subject": {
          "reference": "urn:uuid:4089d26d-5515-44ee-8208-76dd84509057",
          "display": "Marthe Gallet"
        },
        "effectiveDateTime": "2018-02-22T19:05:43Z",
        "specimen": {
          "reference": "urn:uuid:34e39c8e-e228-4d02-89b9-30dbe7cec58e"
        }
      }
    },
    {
      "fullUrl": "urn:uuid:27282e29-a74e-4ae9-ad5c-0e661cabb7a4",
      "resource": {
        "resourceType": "Observation",
        "id": "27282e29-a74e-4ae9-ad5c-0e661cabb7a4",
        "meta": {
          "profile": [
            "http://hl7.eu/fhir/laboratory/StructureDefinition/Observation-resultslab-eu-lab"
          ]
        },
        "performer": [
          {
            "display": "The Central European Lab"
          }
        ],
        "category": [
          {
            "coding": [
              {
                "system": "http://terminology.hl7.org/CodeSystem/observation-category",
                "code": "laboratory"
              }
            ]
          }
        ],
        "code": {
          "coding": [
            {
              "code": "787-2",
              "system": "http://loinc.org",
              "display": "MCV [Entitic volume] by Automated count"
            }
          ],
          "text": "MCV [Entitic volume] by Automated count"
        },
        "valueQuantity": {
          "system": "http://unitsofmeasure.org",
          "value": 89,
          "unit": "fL",
          "code": "fL"
        },
        "referenceRange": [
          {
            "low": {
              "value": 78,
              "code": "fL",
              "system": "http://unitsofmeasure.org"
            }
          },
          {
            "high": {
              "value": 98,
              "code": "fL",
              "system": "http://unitsofmeasure.org"
            }
          }
        ],
        "text": {
          "status": "generated",
          "div": "<div xmlns=\"http://www.w3.org/1999/xhtml\"><table class=\"hl7__eu__lab__report\"><tr><th>Test</th><th>22-Feb-2018</th><th>Reference&#xA0;Range</th><th>Unit</th></tr><tr><td>MCV [Entitic volume] by Automated count</td><td>89.0</td><td>78 - 98</td><td></td><td>fL</td></tr></table></div>"
        },
        "status": "final",
        "subject": {
          "reference": "urn:uuid:4089d26d-5515-44ee-8208-76dd84509057",
          "display": "Marthe Gallet"
        },
        "effectiveDateTime": "2018-02-22T19:05:43Z",
        "specimen": {
          "reference": "urn:uuid:34e39c8e-e228-4d02-89b9-30dbe7cec58e"
        }
      }
    },
    {
      "fullUrl": "urn:uuid:828f2b0b-b223-4785-b42d-ad719cd02390",
      "resource": {
        "resourceType": "Observation",
        "id": "828f2b0b-b223-4785-b42d-ad719cd02390",
        "meta": {
          "profile": [
            "http://hl7.eu/fhir/laboratory/StructureDefinition/Observation-resultslab-eu-lab"
          ]
        },
        "performer": [
          {
            "display": "The Central European Lab"
          }
        ],
        "category": [
          {
            "coding": [
              {
                "system": "http://terminology.hl7.org/CodeSystem/observation-category",
                "code": "laboratory"
              }
            ]
          }
        ],
        "code": {
          "coding": [
            {
              "code": "785-6",
              "system": "http://loinc.org",
              "display": "MCH [Entitic mass] by Automated count"
            }
          ],
          "text": "MCH [Entitic mass] by Automated count"
        },
        "valueQuantity": {
          "system": "http://unitsofmeasure.org",
          "value": 30.1,
          "unit": "pg",
          "code": "pg"
        },
        "referenceRange": [
          {
            "low": {
              "value": 27,
              "code": "pg",
              "system": "http://unitsofmeasure.org"
            }
          },
          {
            "high": {
              "value": 34,
              "code": "pg",
              "system": "http://unitsofmeasure.org"
            }
          }
        ],
        "text": {
          "status": "generated",
          "div": "<div xmlns=\"http://www.w3.org/1999/xhtml\"><table class=\"hl7__eu__lab__report\"><tr><th>Test</th><th>22-Feb-2018</th><th>Reference&#xA0;Range</th><th>Unit</th></tr><tr><td>MCH [Entitic mass] by Automated count</td><td>30.1</td><td>27 - 34</td><td></td><td>pg</td></tr></table></div>"
        },
        "status": "final",
        "subject": {
          "reference": "urn:uuid:4089d26d-5515-44ee-8208-76dd84509057",
          "display": "Marthe Gallet"
        },
        "effectiveDateTime": "2018-02-22T19:05:43Z",
        "specimen": {
          "reference": "urn:uuid:34e39c8e-e228-4d02-89b9-30dbe7cec58e"
        }
      }
    },
    {
      "fullUrl": "urn:uuid:204efaec-8db3-4969-850c-d5246850ddcb",
      "resource": {
        "resourceType": "Observation",
        "id": "204efaec-8db3-4969-850c-d5246850ddcb",
        "meta": {
          "profile": [
            "http://hl7.eu/fhir/laboratory/StructureDefinition/Observation-resultslab-eu-lab"
          ]
        },
        "performer": [
          {
            "display": "The Central European Lab"
          }
        ],
        "category": [
          {
            "coding": [
              {
                "system": "http://terminology.hl7.org/CodeSystem/observation-category",
                "code": "laboratory"
              }
            ]
          }
        ],
        "code": {
          "coding": [
            {
              "code": "786-4",
              "system": "http://loinc.org",
              "display": "MCHC [Mass/volume] by Automated count"
            }
          ],
          "text": "MCHC [Mass/volume] by Automated count"
        },
        "valueQuantity": {
          "system": "http://unitsofmeasure.org",
          "value": 33.8,
          "unit": "g/dL",
          "code": "g/dL"
        },
        "referenceRange": [
          {
            "low": {
              "value": 31,
              "code": "g/dL",
              "system": "http://unitsofmeasure.org"
            }
          },
          {
            "high": {
              "value": 35,
              "code": "g/dL",
              "system": "http://unitsofmeasure.org"
            }
          }
        ],
        "text": {
          "status": "generated",
          "div": "<div xmlns=\"http://www.w3.org/1999/xhtml\"><table class=\"hl7__eu__lab__report\"><tr><th>Test</th><th>22-Feb-2018</th><th>Reference&#xA0;Range</th><th>Unit</th></tr><tr><td>MCHC [Mass/volume] by Automated count</td><td>33.8</td><td>31 - 35</td><td></td><td>g/dL</td></tr></table></div>"
        },
        "status": "final",
        "subject": {
          "reference": "urn:uuid:4089d26d-5515-44ee-8208-76dd84509057",
          "display": "Marthe Gallet"
        },
        "effectiveDateTime": "2018-02-22T19:05:43Z",
        "specimen": {
          "reference": "urn:uuid:34e39c8e-e228-4d02-89b9-30dbe7cec58e"
        }
      }
    },
    {
      "fullUrl": "urn:uuid:88f09ade-9ca3-429e-8ef7-e2cf98cb6144",
      "resource": {
        "resourceType": "Observation",
        "id": "88f09ade-9ca3-429e-8ef7-e2cf98cb6144",
        "meta": {
          "profile": [
            "http://hl7.eu/fhir/laboratory/StructureDefinition/Observation-resultslab-eu-lab"
          ]
        },
        "performer": [
          {
            "display": "The Central European Lab"
          }
        ],
        "category": [
          {
            "coding": [
              {
                "system": "http://terminology.hl7.org/CodeSystem/observation-category",
                "code": "laboratory"
              }
            ]
          }
        ],
        "code": {
          "coding": [
            {
              "code": "21000-5",
              "system": "http://loinc.org",
              "display": "Erythrocyte distribution width [Entitic volume] by Automated count"
            }
          ],
          "text": "Erythrocyte distribution width [Entitic volume] by Automated count"
        },
        "valueQuantity": {
          "system": "http://unitsofmeasure.org",
          "value": 45.8,
          "unit": "fL",
          "code": "fL"
        },
        "referenceRange": [
          {
            "low": {
              "value": 36,
              "code": "fL",
              "system": "http://unitsofmeasure.org"
            }
          },
          {
            "high": {
              "value": 56,
              "code": "fL",
              "system": "http://unitsofmeasure.org"
            }
          }
        ],
        "text": {
          "status": "generated",
          "div": "<div xmlns=\"http://www.w3.org/1999/xhtml\"><table class=\"hl7__eu__lab__report\"><tr><th>Test</th><th>22-Feb-2018</th><th>Reference&#xA0;Range</th><th>Unit</th></tr><tr><td>Erythrocyte distribution width [Entitic volume] by Automated count</td><td>45.8</td><td>36 - 56</td><td></td><td>fL</td></tr></table></div>"
        },
        "status": "final",
        "subject": {
          "reference": "urn:uuid:4089d26d-5515-44ee-8208-76dd84509057",
          "display": "Marthe Gallet"
        },
        "effectiveDateTime": "2018-02-22T19:05:43Z",
        "specimen": {
          "reference": "urn:uuid:34e39c8e-e228-4d02-89b9-30dbe7cec58e"
        }
      }
    },
    {
      "fullUrl": "urn:uuid:2391f703-8c21-4459-b6d9-48dceb3dd95c",
      "resource": {
        "resourceType": "Observation",
        "id": "2391f703-8c21-4459-b6d9-48dceb3dd95c",
        "meta": {
          "profile": [
            "http://hl7.eu/fhir/laboratory/StructureDefinition/Observation-resultslab-eu-lab"
          ]
        },
        "performer": [
          {
            "display": "The Central European Lab"
          }
        ],
        "category": [
          {
            "coding": [
              {
                "system": "http://terminology.hl7.org/CodeSystem/observation-category",
                "code": "laboratory"
              }
            ]
          }
        ],
        "code": {
          "coding": [
            {
              "code": "777-3",
              "system": "http://loinc.org",
              "display": "Platelets [#/volume] in Blood by Automated count"
            }
          ],
          "text": "Platelets [#/volume] in Blood by Automated count"
        },
        "valueQuantity": {
          "system": "http://unitsofmeasure.org",
          "value": 302.5,
          "unit": "10*3/uL",
          "code": "10*3/uL"
        },
        "referenceRange": [
          {
            "low": {
              "value": 150,
              "code": "10*3/uL",
              "system": "http://unitsofmeasure.org"
            }
          },
          {
            "high": {
              "value": 450,
              "code": "10*3/uL",
              "system": "http://unitsofmeasure.org"
            }
          }
        ],
        "text": {
          "status": "generated",
          "div": "<div xmlns=\"http://www.w3.org/1999/xhtml\"><table class=\"hl7__eu__lab__report\"><tr><th>Test</th><th>22-Feb-2018</th><th>Reference&#xA0;Range</th><th>Unit</th></tr><tr><td>Platelets [#/volume] in Blood by Automated count</td><td>302.5</td><td>150 - 450</td><td></td><td>10*3/uL</td></tr></table></div>"
        },
        "status": "final",
        "subject": {
          "reference": "urn:uuid:4089d26d-5515-44ee-8208-76dd84509057",
          "display": "Marthe Gallet"
        },
        "effectiveDateTime": "2018-02-22T19:05:43Z",
        "specimen": {
          "reference": "urn:uuid:34e39c8e-e228-4d02-89b9-30dbe7cec58e"
        }
      }
    },
    {
      "fullUrl": "urn:uuid:d2b00234-f3b1-4486-8b5c-4e3c09deae54",
      "resource": {
        "resourceType": "Observation",
        "id": "d2b00234-f3b1-4486-8b5c-4e3c09deae54",
        "meta": {
          "profile": [
            "http://hl7.eu/fhir/laboratory/StructureDefinition/Observation-resultslab-eu-lab"
          ]
        },
        "performer": [
          {
            "display": "The Central European Lab"
          }
        ],
        "category": [
          {
            "coding": [
              {
                "system": "http://terminology.hl7.org/CodeSystem/observation-category",
                "code": "laboratory"
              }
            ]
          }
        ],
        "code": {
          "coding": [
            {
              "code": "32207-3",
              "system": "http://loinc.org",
              "display": "Platelet distribution width [Entitic volume] in Blood by Automated count"
            }
          ],
          "text": "Platelet distribution width [Entitic volume] in Blood by Automated count"
        },
        "valueQuantity": {
          "system": "http://unitsofmeasure.org",
          "value": 298.5,
          "unit": "fL",
          "code": "fL"
        },
        "referenceRange": [
          {
            "low": {
              "value": 13.4,
              "code": "fL",
              "system": "http://unitsofmeasure.org"
            }
          },
          {
            "high": {
              "value": 17.4,
              "code": "fL",
              "system": "http://unitsofmeasure.org"
            }
          }
        ],
        "interpretation": [
          {
            "coding": [
              {
                "code": "H",
                "system": "http://terminology.hl7.org/CodeSystem/v3-ObservationInterpretation",
                "display": "High"
              }
            ]
          }
        ],
        "text": {
          "status": "generated",
          "div": "<div xmlns=\"http://www.w3.org/1999/xhtml\"><table class=\"hl7__eu__lab__report\"><tr><th>Test</th><th>22-Feb-2018</th><th>Reference&#xA0;Range</th><th>Unit</th></tr><tr><td>Platelet distribution width [Entitic volume] in Blood by Automated count</td><td>298.5</td><td>13.4 - 17.4</td><td>H</td><td>fL</td></tr></table></div>"
        },
        "status": "final",
        "subject": {
          "reference": "urn:uuid:4089d26d-5515-44ee-8208-76dd84509057",
          "display": "Marthe Gallet"
        },
        "effectiveDateTime": "2018-02-22T19:05:43Z",
        "specimen": {
          "reference": "urn:uuid:34e39c8e-e228-4d02-89b9-30dbe7cec58e"
        }
      }
    },
    {
      "fullUrl": "urn:uuid:f6609cbf-02ec-4fe1-a46a-19d0d12e8d7a",
      "resource": {
        "resourceType": "Observation",
        "id": "f6609cbf-02ec-4fe1-a46a-19d0d12e8d7a",
        "meta": {
          "profile": [
            "http://hl7.eu/fhir/laboratory/StructureDefinition/Observation-resultslab-eu-lab"
          ]
        },
        "performer": [
          {
            "display": "The Central European Lab"
          }
        ],
        "category": [
          {
            "coding": [
              {
                "system": "http://terminology.hl7.org/CodeSystem/observation-category",
                "code": "laboratory"
              }
            ]
          }
        ],
        "code": {
          "coding": [
            {
              "code": "32623-1",
              "system": "http://loinc.org",
              "display": "Platelet mean volume [Entitic volume] in Blood by Automated count"
            }
          ],
          "text": "Platelet mean volume [Entitic volume] in Blood by Automated count"
        },
        "valueQuantity": {
          "system": "http://unitsofmeasure.org",
          "value": 11.9,
          "unit": "fL",
          "code": "fL"
        },
        "referenceRange": [
          {
            "low": {
              "value": 9.7,
              "code": "fL",
              "system": "http://unitsofmeasure.org"
            }
          },
          {
            "high": {
              "value": 13.5,
              "code": "fL",
              "system": "http://unitsofmeasure.org"
            }
          }
        ],
        "text": {
          "status": "generated",
          "div": "<div xmlns=\"http://www.w3.org/1999/xhtml\"><table class=\"hl7__eu__lab__report\"><tr><th>Test</th><th>22-Feb-2018</th><th>Reference&#xA0;Range</th><th>Unit</th></tr><tr><td>Platelet mean volume [Entitic volume] in Blood by Automated count</td><td>11.9</td><td>9.7 - 13.5</td><td></td><td>fL</td></tr></table></div>"
        },
        "status": "final",
        "subject": {
          "reference": "urn:uuid:4089d26d-5515-44ee-8208-76dd84509057",
          "display": "Marthe Gallet"
        },
        "effectiveDateTime": "2018-02-22T19:05:43Z",
        "specimen": {
          "reference": "urn:uuid:34e39c8e-e228-4d02-89b9-30dbe7cec58e"
        }
      }
    },
    {
      "fullUrl": "urn:uuid:3167ef96-f183-4a3f-9d97-e2d7a5a42c97",
      "resource": {
        "resourceType": "Device",
        "id": "3167ef96-f183-4a3f-9d97-e2d7a5a42c97",
        "deviceName": [
          {
            "name": "SYNDERAI Synthetic Generator",
            "type": "manufacturer-name"
          }
        ],
        "version": [
          {
            "value": "5.0"
          }
        ],
        "text": {
          "status": "generated",
          "div": "<div xmlns=\"http://www.w3.org/1999/xhtml\">SYNDERAI Synthetic Generator v5.0</div>"
        },
        "status": "active\"",
        "distinctIdentifier": "synderai-generator-50",
        "manufacturer": "SYNDERAI Project"
      }
    },
    {
      "fullUrl": "urn:uuid:f26570b6-0cb3-4aec-88c3-0f78324c357a",
      "resource": {
        "resourceType": "Provenance",
        "id": "f26570b6-0cb3-4aec-88c3-0f78324c357a",
        "target": [
          {
            "reference": "Patient/4089d26d-5515-44ee-8208-76dd84509057"
          },
          {
            "reference": "Bundle/700885db-5d6e-44bd-8b84-035952a95282"
          },
          {
            "reference": "Composition/9a18a4e8-3000-4f66-8327-450353e3052e"
          },
          {
            "reference": "PractitionerRole/285b8026-92c4-495a-89bd-24d0efbc55d4"
          },
          {
            "reference": "Practitioner/2b6a547e-1bae-47c6-a553-2e7936666f15"
          },
          {
            "reference": "PractitionerRole/40ac4d2a-578b-496b-8455-0dea8ac17821"
          },
          {
            "reference": "Organization/e0917b39-5781-4c57-aab6-340ffa77f7e6"
          }
        ],
        "activity": {
          "text": "Synthetic Example Data Generation"
        },
        "policy": [
          "https://synderai.net/synderai-synthetic-data-policy"
        ],
        "agent": [
          {
            "type": {
              "text": "author"
            },
            "who": {
              "reference": "Device/3167ef96-f183-4a3f-9d97-e2d7a5a42c97"
            }
          }
        ],
        "reason": [
          {
            "text": "Interoperability Testing and Training (non-clinical use)"
          }
        ],
        "text": {
          "status": "generated",
          "div": "<div xmlns=\"http://www.w3.org/1999/xhtml\">Provenance for SYNDERAI Synthetic Example Data Resource</div>"
        },
        "recorded": "2018-02-22T20:05:43Z"
      }
    },
    {
      "fullUrl": "urn:uuid:285b8026-92c4-495a-89bd-24d0efbc55d4",
      "resource": {
        "resourceType": "PractitionerRole",
        "id": "285b8026-92c4-495a-89bd-24d0efbc55d4",
        "meta": {
          "profile": [
            "http://hl7.eu/fhir/base/StructureDefinition/practitionerRole-eu"
          ]
        },
        "text": {
          "status": "generated",
          "div": "<div xmlns=\"http://www.w3.org/1999/xhtml\">Laboratory Role Id: 285b8026-92c4-495a-89bd-24d0efbc55d4</div>"
        },
        "practitioner": {
          "reference": "urn:uuid:2b6a547e-1bae-47c6-a553-2e7936666f15"
        }
      }
    },
    {
      "fullUrl": "urn:uuid:2b6a547e-1bae-47c6-a553-2e7936666f15",
      "resource": {
        "resourceType": "Practitioner",
        "id": "2b6a547e-1bae-47c6-a553-2e7936666f15",
        "meta": {
          "profile": [
            "http://hl7.eu/fhir/base/StructureDefinition/practitioner-eu"
          ]
        },
        "identifier": [
          {
            "assigner": {
              "display": "HL7 Europe"
            },
            "system": "urn:oid:2.16.840.1.113883.2.51.999",
            "value": "e0b2d209-cf21-410d-9a3e-a44929ed9f2a"
          }
        ],
        "name": [
          {
            "prefix": [
              "dr"
            ],
            "given": [
              "Ex"
            ],
            "family": "Ample"
          }
        ],
        "address": [
          {
            "line": [
              "Laboratoire Central Européenne",
              "Boulevard du Jardin Botanique 32"
            ],
            "postalCode": "1000",
            "city": "Brussels",
            "country": "Belgium"
          }
        ],
        "text": {
          "status": "generated",
          "div": "<div xmlns=\"http://www.w3.org/1999/xhtml\">Laboratory: Laboratoire Central Européenne, 1000 Brussels, Belgium</div>"
        }
      }
    }
  ],
  "type": "document",
  "timestamp": "2018-02-22T20:05:43Z"
}
