<Bundle xmlns="http://hl7.org/fhir">
   <id value="bc1a1f04-d247-48b1-953e-4c31cddfc2fa"/>
   <meta>
      <profile value="http://hl7.eu/fhir/laboratory/StructureDefinition/Bundle-eu-lab"/>
   </meta>
   <identifier>
      <system value="urn:oid:2.16.840.1.113883.2.51.999"/>
      <value value="a78d7154-19a7-4bb0-a833-0387c2975ec8"/>
      <assigner>
         <display value="HL7 Europe"/>
      </assigner>
   </identifier>
   <type value="document"/>
   <timestamp value="2020-07-17T14:02:45Z"/>
   <entry>
      <fullUrl value="urn:uuid:1d8bb03d-0a39-49e7-b57b-16009047f9b7"/>
      <resource>
         <Composition>
            <id value="1d8bb03d-0a39-49e7-b57b-16009047f9b7"/>
            <meta>
               <profile value="http://hl7.eu/fhir/laboratory/StructureDefinition/Composition-eu-lab"/>
            </meta>
            <identifier>
               <system value="urn:oid:2.16.840.1.113883.2.51.999"/>
               <value value="34c43a5b-ded6-48cd-81cb-e0928d32c1f3"/>
               <assigner>
                  <display value="HL7 Europe"/>
               </assigner>
            </identifier>
            <status value="final"/>
            <type>
               <coding>
                  <system value="http://loinc.org"/>
                  <code value="11502-2"/>
                  <display value="Laboratory report"/>
               </coding>
               <text value="Laboratory Report"/>
            </type>
            <category>
               <coding>
                  <system value="http://loinc.org"/>
                  <code value="26436-6"/>
                  <display value="Laboratory studies (set)"/>
               </coding>
            </category>
            <subject>
               <reference value="urn:uuid:13ec20fd-0339-4bf8-9c15-4bd2d8e63dc8"/>
               <display value="Hynek Kubíčková"/>
            </subject>
            <date value="2020-07-17T14:02:45Z"/>
            <author>
               <reference value="urn:uuid:871729a6-7161-4f91-b331-778ce76c84d5"/>
            </author>
            <title value="Laboratory Report"/>
            <confidentiality value="N"/>
            <section>
               <title value="Laboratory Report"/>
               <code>
                  <coding>
                     <system value="http://loinc.org"/>
                     <code value="26436-6"/>
                     <display value="Laboratory studies (set)"/>
                  </coding>
                  <text value="Laboratory studies"/>
               </code>
               <section>
                  <title value="Chemistry"/>
                  <code>
                     <coding>
                        <system value="http://loinc.org"/>
                        <code value="$18719-5"/>
                        <display value="Chemistry studies (set)"/>
                     </coding>
                     <text value="Chemistry"/>
                  </code>
                  <text>
                     <status value="generated"/>
                     <div xmlns="http://www.w3.org/1999/xhtml">
                        <h3>Chemistry</h3>
                        <table class="hl7__eu__lab__report">
                           <thead>
                              <tr>
                                 <th>Test</th>
                                 <th>17-JUL-2020</th>
                                 <th>Reference Range</th>
                                 <th>Unit</th>
                              </tr>
                           </thead>
                           <tbody>
                              <tr>
                                 <td>Oxygen saturation in Arterial blood</td>
                                 <td>
                                    <strong>84.8 L</strong>
                                 </td>
                                 <td>95 - 100</td>
                                 <td>%</td>
                              </tr>
                           </tbody>
                        </table>
                     </div>
                  </text>
                  <entry>
                     <reference value="urn:uuid:7686c153-ac7b-486f-ad18-e5f85e045a9d"/>
                  </entry>
               </section>
            </section>
            <section>
               <title value="Annotation comment"/>
               <code>
                  <coding>
                     <system value="http://loinc.org"/>
                     <code value="48767-8"/>
                     <display value="Annotation comment"/>
                  </coding>
               </code>
               <text>
                  <status value="generated"/>
                  <div xmlns="http://www.w3.org/1999/xhtml">
                     <h3>Annotation</h3>
                     <table class="hl7__eu__lab__report">
                        <tr>
                           <th>Conclusion and Recommendations based on this report and previous findings known to us</th>
                        </tr>
                        <tr>
                           <td>The patient shows significantly decreased arterial oxygen saturation (84.8%, below the normal range of 95-100%), indicating hypoxemia. This finding warrants urgent clinical evaluation to identify and address potential respiratory or cardiovascular causes. Immediate medical attention is recommended.</td>
                        </tr>
                     </table>
                  </div>
               </text>
            </section>
         </Composition>
      </resource>
   </entry>
   <entry>
      <fullUrl value="urn:uuid:e4b99daa-ffed-4add-9329-88369d92f094"/>
      <resource>
         <DiagnosticReport>
            <id value="e4b99daa-ffed-4add-9329-88369d92f094"/>
            <meta>
               <profile value="http://hl7.eu/fhir/laboratory/StructureDefinition/DiagnosticReport-eu-lab"/>
            </meta>
            <extension url="http://hl7.org/fhir/5.0/StructureDefinition/extension-DiagnosticReport.composition">
               <valueReference>
                  <reference value="urn:uuid:34c43a5b-ded6-48cd-81cb-e0928d32c1f3"/>
               </valueReference>
            </extension>
            <identifier>
               <system value="urn:oid:2.16.840.1.113883.2.51.999"/>
               <value value="2233512b-49a3-42d2-b98f-a1e2b3d7e6c1"/>
               <assigner>
                  <display value="HL7 Europe"/>
               </assigner>
            </identifier>
            <status value="registered"/>
            <category>
               <coding>
                  <system value="http://loinc.org"/>
                  <code value="26436-6"/>
                  <display value="Laboratory studies (set)"/>
               </coding>
            </category>
            <code>
               <coding>
                  <system value="http://loinc.org"/>
                  <code value="11502-2"/>
                  <display value="Laboratory report"/>
               </coding>
            </code>
            <subject>
               <reference value="urn:uuid:13ec20fd-0339-4bf8-9c15-4bd2d8e63dc8"/>
               <display value="Hynek Kubíčková"/>
            </subject>
            <specimen>
               <reference value="urn:uuid:e5b59dd4-1d4f-4bba-bc58-a8a7369db3c8"/>
            </specimen>
            <result>
               <reference value="urn:uuid:7686c153-ac7b-486f-ad18-e5f85e045a9d"/>
            </result>
         </DiagnosticReport>
      </resource>
   </entry>
   <entry>
      <fullUrl value="urn:uuid:13ec20fd-0339-4bf8-9c15-4bd2d8e63dc8"/>
      <resource>
         <Patient>
            <id value="13ec20fd-0339-4bf8-9c15-4bd2d8e63dc8"/>
            <meta>
               <profile value="http://hl7.eu/fhir/base/StructureDefinition/patient-eu-core"/>
               <security>
                  <system value="http://terminology.hl7.org/CodeSystem/v3-ActReason"/>
                  <code value="HTEST"/>
               </security>
               <security>
                  <system value="http://terminology.hl7.org/CodeSystem/v3-ActReason"/>
                  <code value="TRAIN"/>
               </security>
               <tag>
                  <system value="https://synderai.net/fhir/CodeSystem/tags"/>
                  <code value="synthetic"/>
                  <display value="SYNDERAI Synthetic data"/>
               </tag>
            </meta>
            <text>
               <status value="generated"/>
               <div xmlns="http://www.w3.org/1999/xhtml">
                  <table class="hl7__ips">
                     <tr>
                        <td>Hynek Kubíčková</td>
                        <td>male</td>
                        <td>24-Jun-2005</td>
                     </tr>
                  </table>
               </div>
            </text>
            <extension url="http://hl7.org/fhir/StructureDefinition/patient-nationality">
               <valueCodeableConcept>
                  <coding>
                     <system value="http://hl7.org/fhir/ValueSet/country"/>
                     <code value="CZ"/>
                  </coding>
               </valueCodeableConcept>
            </extension>
            <identifier>
               <type>
                  <coding>
                     <system value="http://terminology.hl7.org/CodeSystem/v2-0203"/>
                     <code value="PT"/>
                  </coding>
               </type>
               <system value="http://ec.europa.eu/identifier/eci"/>
               <value value="9771-756399-9"/>
            </identifier>
            <identifier>
               <type>
                  <coding>
                     <system value="http://terminology.hl7.org/CodeSystem/v2-0203"/>
                     <code value="MR"/>
                  </coding>
               </type>
               <system value="http://local.setting.eu/identifier"/>
               <value value="0a9c3ea6-b526-4dcc-cde1-545cdfca14b2"/>
            </identifier>
            <name>
               <family value="Kubíčková"/>
            </name>
            <name>
               <given value="Hynek"/>
            </name>
            <name>
               <text value="Hynek Kubíčková"/>
            </name>
            <telecom>
               <system value="phone"/>
               <value value="+420 605 458 784"/>
            </telecom>
            <gender value="male"/>
            <birthDate value="2005-06-24"/>
            <address>
               <use value="home"/>
               <type value="physical"/>
               <line value="Vraňanská 9"/>
               <city value="Frýdlant nad Ostravicí"/>
               <postalCode value="739 11"/>
               <country value="Czechia"/>
            </address>
         </Patient>
      </resource>
   </entry>
   <entry>
      <fullUrl value="urn:uuid:f0822895-5ad3-4698-a69e-14dee7906caf"/>
      <resource>
         <ServiceRequest>
            <id value="f0822895-5ad3-4698-a69e-14dee7906caf"/>
            <meta>
               <profile value="http://hl7.eu/fhir/laboratory/StructureDefinition/ServiceRequest-eu-lab"/>
            </meta>
            <identifier>
               <system value="http://example.org"/>
               <value value="ee06cc8b-8ac0-4d9f-98a7-7a2cdc831405"/>
            </identifier>
            <status value="active"/>
            <intent value="order"/>
            <code>
               <coding>
                  <system value="http://snomed.info/sct"/>
                  <code value="108252007"/>
                  <display value="Laboratory procedure"/>
               </coding>
            </code>
            <subject>
               <reference value="urn:uuid:13ec20fd-0339-4bf8-9c15-4bd2d8e63dc8"/>
               <display value="Hynek Kubíčková"/>
            </subject>
            <requester>
               <reference value="urn:uuid:b689468f-e1aa-47eb-a67c-8605cc3c05be"/>
            </requester>
            <specimen>
               <reference value="urn:uuid:e5b59dd4-1d4f-4bba-bc58-a8a7369db3c8"/>
            </specimen>
         </ServiceRequest>
      </resource>
   </entry>
   <entry>
      <fullUrl value="urn:uuid:b689468f-e1aa-47eb-a67c-8605cc3c05be"/>
      <resource>
         <PractitionerRole>
            <id value="b689468f-e1aa-47eb-a67c-8605cc3c05be"/>
            <meta>
               <profile value="http://hl7.eu/fhir/base/StructureDefinition/practitionerRole-eu"/>
            </meta>
            <text>
               <status value="generated"/>
               <div xmlns="http://www.w3.org/1999/xhtml">Provider Role Id: b689468f-e1aa-47eb-a67c-8605cc3c05be</div>
            </text>
            <organization>
               <reference value="urn:uuid:ec526d88-f051-4299-873f-ff8c17def553"/>
            </organization>
         </PractitionerRole>
      </resource>
   </entry>
   <entry>
      <fullUrl value="urn:uuid:ec526d88-f051-4299-873f-ff8c17def553"/>
      <resource>
         <Organization>
            <id value="ec526d88-f051-4299-873f-ff8c17def553"/>
            <meta>
               <profile value="http://hl7.eu/fhir/base/StructureDefinition/organization-eu"/>
            </meta>
            <text>
               <status value="generated"/>
               <div xmlns="http://www.w3.org/1999/xhtml">Provider Organization: Beskydské rehabilitační centrum</div>
            </text>
            <identifier>
               <system value="urn:oid:2.16.840.1.113883.2.51.999"/>
               <value value="1527e723-e397-40ea-9ca3-fbb79938ddf5"/>
               <assigner>
                  <display value="HL7 Europe"/>
               </assigner>
            </identifier>
            <name value="Beskydské rehabilitační centrum"/>
            <address>
               <city value="Čeladná"/>
               <postalCode value="739 12"/>
               <country value="Czechia"/>
            </address>
         </Organization>
      </resource>
   </entry>
   <entry>
      <fullUrl value="urn:uuid:e5b59dd4-1d4f-4bba-bc58-a8a7369db3c8"/>
      <resource>
         <Specimen>
            <id value="e5b59dd4-1d4f-4bba-bc58-a8a7369db3c8"/>
            <meta>
               <profile value="http://hl7.eu/fhir/laboratory/StructureDefinition/Specimen-eu-lab"/>
            </meta>
            <text>
               <status value="generated"/>
               <div xmlns="http://www.w3.org/1999/xhtml">
                  <table class="hl7__eu__lab__report">
                     <tr>
                        <th>Specimen</th>
                        <th>Collection Date</th>
                     </tr>
                     <tr>
                        <td>Arterial blood specimen</td>
                        <td>
                           <span class="nb">17-Jul-2020</span>
                        </td>
                     </tr>
                  </table>
               </div>
            </text>
            <type>
               <coding>
                  <system value="http://snomed.info/sct"/>
                  <code value="122552005"/>
                  <display value="Arterial blood specimen"/>
               </coding>
            </type>
            <collection>
               <collectedDateTime value="2020-07-17"/>
            </collection>
         </Specimen>
      </resource>
   </entry>
   <entry>
      <fullUrl value="urn:uuid:7686c153-ac7b-486f-ad18-e5f85e045a9d"/>
      <resource>
         <Observation>
            <id value="7686c153-ac7b-486f-ad18-e5f85e045a9d"/>
            <meta>
               <profile value="http://hl7.eu/fhir/laboratory/StructureDefinition/Observation-resultslab-eu-lab"/>
            </meta>
            <text>
               <status value="generated"/>
               <div xmlns="http://www.w3.org/1999/xhtml">
                  <table class="hl7__eu__lab__report">
                     <tr>
                        <th>Test</th>
                        <th>17-Jul-2020</th>
                        <th>Reference Range</th>
                        <th>Unit</th>
                     </tr>
                     <tr>
                        <td>Oxygen saturation in Arterial blood</td>
                        <td>84.8</td>
                        <td>95 - 100</td>
                        <td>L</td>
                        <td>%</td>
                     </tr>
                  </table>
               </div>
            </text>
            <status value="final"/>
            <category>
               <coding>
                  <system value="http://terminology.hl7.org/CodeSystem/observation-category"/>
                  <code value="laboratory"/>
               </coding>
            </category>
            <code>
               <coding>
                  <system value="http://loinc.org"/>
                  <code value="2708-6"/>
                  <display value="Oxygen saturation in Arterial blood"/>
               </coding>
               <text value="Oxygen saturation in Arterial blood"/>
            </code>
            <subject>
               <reference value="urn:uuid:13ec20fd-0339-4bf8-9c15-4bd2d8e63dc8"/>
               <display value="Hynek Kubíčková"/>
            </subject>
            <effectiveDateTime value="2020-07-17T12:02:45Z"/>
            <performer>
               <display value="The Central European Lab"/>
            </performer>
            <valueQuantity>
               <value value="84.8"/>
               <unit value="%"/>
               <system value="http://unitsofmeasure.org"/>
               <code value="%"/>
            </valueQuantity>
            <interpretation>
               <coding>
                  <system value="http://terminology.hl7.org/CodeSystem/v3-ObservationInterpretation"/>
                  <code value="L"/>
                  <display value="Low"/>
               </coding>
            </interpretation>
            <specimen>
               <reference value="urn:uuid:e5b59dd4-1d4f-4bba-bc58-a8a7369db3c8"/>
            </specimen>
            <referenceRange>
               <low>
                  <value value="95"/>
                  <system value="http://unitsofmeasure.org"/>
                  <code value="%"/>
               </low>
            </referenceRange>
            <referenceRange>
               <high>
                  <value value="100"/>
                  <system value="http://unitsofmeasure.org"/>
                  <code value="%"/>
               </high>
            </referenceRange>
         </Observation>
      </resource>
   </entry>
   <entry>
      <fullUrl value="urn:uuid:514d97d0-a4ff-487b-839d-04f3fa33f16f"/>
      <resource>
         <Device>
            <id value="514d97d0-a4ff-487b-839d-04f3fa33f16f"/>
            <text>
               <status value="generated"/>
               <div xmlns="http://www.w3.org/1999/xhtml">SYNDERAI Synthetic Generator v5.0</div>
            </text>
            <status value="active&#34;"/>
            <distinctIdentifier value="synderai-generator-50"/>
            <manufacturer value="SYNDERAI Project"/>
            <deviceName>
               <name value="SYNDERAI Synthetic Generator"/>
               <type value="manufacturer-name"/>
            </deviceName>
            <version>
               <value value="5.0"/>
            </version>
         </Device>
      </resource>
   </entry>
   <entry>
      <fullUrl value="urn:uuid:41f43a78-f583-421d-9782-1d5291c5448a"/>
      <resource>
         <Provenance>
            <id value="41f43a78-f583-421d-9782-1d5291c5448a"/>
            <text>
               <status value="generated"/>
               <div xmlns="http://www.w3.org/1999/xhtml">Provenance for SYNDERAI Synthetic Example Data Resource</div>
            </text>
            <target>
               <reference value="Patient/13ec20fd-0339-4bf8-9c15-4bd2d8e63dc8"/>
            </target>
            <target>
               <reference value="Bundle/bc1a1f04-d247-48b1-953e-4c31cddfc2fa"/>
            </target>
            <target>
               <reference value="Composition/1d8bb03d-0a39-49e7-b57b-16009047f9b7"/>
            </target>
            <target>
               <reference value="PractitionerRole/871729a6-7161-4f91-b331-778ce76c84d5"/>
            </target>
            <target>
               <reference value="Practitioner/64b3fadb-de2f-4dc6-bb31-0860258f9699"/>
            </target>
            <target>
               <reference value="PractitionerRole/b689468f-e1aa-47eb-a67c-8605cc3c05be"/>
            </target>
            <target>
               <reference value="Organization/ec526d88-f051-4299-873f-ff8c17def553"/>
            </target>
            <recorded value="2020-07-17T14:02:45Z"/>
            <policy value="https://synderai.net/synderai-synthetic-data-policy"/>
            <reason>
               <text value="Interoperability Testing and Training (non-clinical use)"/>
            </reason>
            <activity>
               <text value="Synthetic Example Data Generation"/>
            </activity>
            <agent>
               <type>
                  <text value="author"/>
               </type>
               <who>
                  <reference value="Device/514d97d0-a4ff-487b-839d-04f3fa33f16f"/>
               </who>
            </agent>
         </Provenance>
      </resource>
   </entry>
   <entry>
      <fullUrl value="urn:uuid:871729a6-7161-4f91-b331-778ce76c84d5"/>
      <resource>
         <PractitionerRole>
            <id value="871729a6-7161-4f91-b331-778ce76c84d5"/>
            <meta>
               <profile value="http://hl7.eu/fhir/base/StructureDefinition/practitionerRole-eu"/>
            </meta>
            <text>
               <status value="generated"/>
               <div xmlns="http://www.w3.org/1999/xhtml">Laboratory Role Id: 871729a6-7161-4f91-b331-778ce76c84d5</div>
            </text>
            <practitioner>
               <reference value="urn:uuid:64b3fadb-de2f-4dc6-bb31-0860258f9699"/>
            </practitioner>
         </PractitionerRole>
      </resource>
   </entry>
   <entry>
      <fullUrl value="urn:uuid:64b3fadb-de2f-4dc6-bb31-0860258f9699"/>
      <resource>
         <Practitioner>
            <id value="64b3fadb-de2f-4dc6-bb31-0860258f9699"/>
            <meta>
               <profile value="http://hl7.eu/fhir/base/StructureDefinition/practitioner-eu"/>
            </meta>
            <text>
               <status value="generated"/>
               <div xmlns="http://www.w3.org/1999/xhtml">Laboratory: Laboratoire Central Européenne, 1000 Brussels, Belgium</div>
            </text>
            <identifier>
               <system value="urn:oid:2.16.840.1.113883.2.51.999"/>
               <value value="c9e16dfb-7705-4a55-8d95-2c2a6fa308ee"/>
               <assigner>
                  <display value="HL7 Europe"/>
               </assigner>
            </identifier>
            <name>
               <family value="Ample"/>
               <given value="Ex"/>
               <prefix value="dr"/>
            </name>
            <address>
               <line value="Laboratoire Central Européenne"/>
               <line value="Boulevard du Jardin Botanique 32"/>
               <city value="Brussels"/>
               <postalCode value="1000"/>
               <country value="Belgium"/>
            </address>
         </Practitioner>
      </resource>
   </entry>
</Bundle>