{
  "resourceType": "Bundle",
  "id": "96a8c52b-e046-41b2-8a31-e42fd63cdda8",
  "meta": {
    "profile": [
      "http://hl7.eu/fhir/laboratory/StructureDefinition/Bundle-eu-lab"
    ]
  },
  "identifier": {
    "assigner": {
      "display": "HL7 Europe"
    },
    "system": "urn:oid:2.16.840.1.113883.2.51.999",
    "value": "2e100a3d-527d-4c14-8acd-3e1d65ae4015"
  },
  "entry": [
    {
      "fullUrl": "urn:uuid:aa8e2a03-25f2-41df-9f44-b64f58e97970",
      "resource": {
        "resourceType": "Composition",
        "id": "aa8e2a03-25f2-41df-9f44-b64f58e97970",
        "meta": {
          "profile": [
            "http://hl7.eu/fhir/laboratory/StructureDefinition/Composition-eu-lab"
          ]
        },
        "identifier": {
          "assigner": {
            "display": "HL7 Europe"
          },
          "system": "urn:oid:2.16.840.1.113883.2.51.999",
          "value": "b173cf4b-7338-4d87-a024-f7c5a14478cf"
        },
        "author": [
          {
            "reference": "urn:uuid:a79fedc8-fc69-4155-9936-fcf0b1513883"
          }
        ],
        "category": [
          {
            "coding": [
              {
                "code": "26436-6",
                "system": "http://loinc.org",
                "display": "Laboratory studies (set)"
              }
            ]
          }
        ],
        "type": {
          "coding": [
            {
              "code": "11502-2",
              "system": "http://loinc.org",
              "display": "Laboratory report"
            }
          ],
          "text": "Laboratory Report"
        },
        "section": [
          {
            "code": {
              "coding": [
                {
                  "code": "26436-6",
                  "system": "http://loinc.org",
                  "display": "Laboratory studies (set)"
                }
              ],
              "text": "Laboratory studies"
            },
            "section": [
              {
                "code": {
                  "coding": [
                    {
                      "code": "$18719-5",
                      "system": "http://loinc.org",
                      "display": "Chemistry studies (set)"
                    }
                  ],
                  "text": "Chemistry"
                },
                "entry": [
                  {
                    "reference": "urn:uuid:9bda7c63-5602-405b-ac3b-521c326a48a9"
                  },
                  {
                    "reference": "urn:uuid:445a6282-6d81-4e63-9e31-b735b2f34bed"
                  },
                  {
                    "reference": "urn:uuid:a01d5ffe-9e39-4650-a809-07698b29d36a"
                  },
                  {
                    "reference": "urn:uuid:8b781916-ea02-4317-b251-b34f39fd5985"
                  },
                  {
                    "reference": "urn:uuid:4433ed90-727e-48d0-b353-2f03af815ac5"
                  },
                  {
                    "reference": "urn:uuid:346cbf70-83e0-4d9e-b1d1-e13d4dff577d"
                  },
                  {
                    "reference": "urn:uuid:f37217d4-84b4-4314-b908-31dc4f9b2cc9"
                  },
                  {
                    "reference": "urn:uuid:da321006-4eb0-43dd-b413-ebea6420a3d2"
                  },
                  {
                    "reference": "urn:uuid:db77ce20-0666-4631-be9e-554eb23ee228"
                  },
                  {
                    "reference": "urn:uuid:83b6085d-c349-4a0b-8eba-07705cdba2e9"
                  },
                  {
                    "reference": "urn:uuid:8836e01e-40f5-4473-9466-8f294af9078f"
                  },
                  {
                    "reference": "urn:uuid:a1118621-0fc6-4fd1-90e2-a56d8b990510"
                  },
                  {
                    "reference": "urn:uuid:4a569f0a-c00d-4eb6-a100-d6a995547caf"
                  }
                ],
                "text": {
                  "status": "generated",
                  "div": "<div xmlns=\"http://www.w3.org/1999/xhtml\"><h3>Chemistry</h3><table class=\"hl7__eu__lab__report\"><thead><tr><th>Test</th><th>20-JUL-2019</th><th>Reference&#xA0;Range</th><th>Unit</th></tr></thead><tbody><tr><td>Hemoglobin A1c/Hemoglobin.total in Blood</td><td>6.1</td><td>4.3 - 6.4</td><td>%</td></tr><tr><td>Glucose [Mass/volume] in Blood</td><td>98.3</td><td>70 - 140</td><td>mg/dL</td></tr><tr><td>Urea nitrogen [Mass/volume] in Blood</td><td>7.6</td><td>7 - 20</td><td>mg/dL</td></tr><tr><td>Creatinine [Mass/volume] in Blood</td><td><strong>1.4 H</strong></td><td>0.6 - 1.3</td><td>mg/dL</td></tr><tr><td>Calcium [Mass/volume] in Blood</td><td>8.7</td><td>8.5 - 10.5</td><td>mg/dL</td></tr><tr><td>Sodium [Moles/volume] in Blood</td><td>141.1</td><td>135 - 145</td><td>mmol/L</td></tr><tr><td>Potassium [Moles/volume] in Blood</td><td>5.2</td><td>3.5 - 5.3</td><td>mmol/L</td></tr><tr><td>Chloride [Moles/volume] in Blood</td><td>103.4</td><td>98 - 110</td><td>mmol/L</td></tr><tr><td>Carbon dioxide, total [Moles/volume] in Blood</td><td><strong>21.1 L</strong></td><td>22 - 29</td><td>mmol/L</td></tr><tr><td>Cholesterol [Mass/volume] in Serum or Plasma</td><td>177.5</td><td>125 - 200</td><td>mg/dL</td></tr><tr><td>Triglyceride [Mass/volume] in Serum or Plasma</td><td>143.1</td><td>0 - 150</td><td>mg/dL</td></tr><tr><td>Cholesterol in LDL [Mass/volume] in Serum or Plasma by Direct assay</td><td>96.9</td><td>0 - 130</td><td>mg/dL</td></tr><tr><td>Cholesterol in HDL [Mass/volume] in Serum or Plasma</td><td>52.1</td><td>40 - 60</td><td>mg/dL</td></tr></tbody></table></div>"
                },
                "title": "Chemistry"
              }
            ],
            "title": "Laboratory Report"
          },
          {
            "text": {
              "status": "generated",
              "div": "<div xmlns=\"http://www.w3.org/1999/xhtml\"><h3>Annotation</h3><table class=\"hl7__eu__lab__report\"><tr><th>Conclusion and Recommendations based on this report and previous findings known to us</th></tr><tr><td>Most parameters are within normal limits. Mildly elevated creatinine may indicate early renal impairment or dehydration; consider follow-up and assessment of renal function. Slightly low total CO₂ could suggest mild metabolic acidosis or compensation; clinical correlation is advised. Glucose control (HbA1c) is at the upper normal limit, so monitoring for diabetes risk is recommended. Lipid profile is satisfactory.</td></tr></table></div>"
            },
            "code": {
              "coding": [
                {
                  "system": "http://loinc.org",
                  "code": "48767-8",
                  "display": "Annotation comment"
                }
              ]
            },
            "title": "Annotation comment"
          }
        ],
        "status": "final",
        "subject": {
          "reference": "urn:uuid:6385253c-d700-4736-af8f-75ddc37887e3",
          "display": "Andrzej Frydrychowicz"
        },
        "date": "2019-07-20T23:33:04Z",
        "title": "Laboratory Report",
        "confidentiality": "N"
      }
    },
    {
      "fullUrl": "urn:uuid:c18074a8-d699-4762-9b42-39d91dbaf378",
      "resource": {
        "resourceType": "DiagnosticReport",
        "id": "c18074a8-d699-4762-9b42-39d91dbaf378",
        "meta": {
          "profile": [
            "http://hl7.eu/fhir/laboratory/StructureDefinition/DiagnosticReport-eu-lab"
          ]
        },
        "identifier": [
          {
            "assigner": {
              "display": "HL7 Europe"
            },
            "system": "urn:oid:2.16.840.1.113883.2.51.999",
            "value": "db4c92ac-3d54-4e0d-8aa2-cd88d7a62dce"
          }
        ],
        "extension": [
          {
            "url": "http://hl7.org/fhir/5.0/StructureDefinition/extension-DiagnosticReport.composition",
            "valueReference": {
              "reference": "urn:uuid:b173cf4b-7338-4d87-a024-f7c5a14478cf"
            }
          }
        ],
        "category": [
          {
            "coding": [
              {
                "code": "26436-6",
                "system": "http://loinc.org",
                "display": "Laboratory studies (set)"
              }
            ]
          }
        ],
        "specimen": [
          {
            "reference": "urn:uuid:f5dfe193-413b-4d66-bb08-f41e31fb833c"
          },
          {
            "reference": "urn:uuid:01e61419-8f54-4b71-900a-a5be63fc21b3"
          }
        ],
        "result": [
          {
            "reference": "urn:uuid:9bda7c63-5602-405b-ac3b-521c326a48a9"
          },
          {
            "reference": "urn:uuid:445a6282-6d81-4e63-9e31-b735b2f34bed"
          },
          {
            "reference": "urn:uuid:a01d5ffe-9e39-4650-a809-07698b29d36a"
          },
          {
            "reference": "urn:uuid:8b781916-ea02-4317-b251-b34f39fd5985"
          },
          {
            "reference": "urn:uuid:4433ed90-727e-48d0-b353-2f03af815ac5"
          },
          {
            "reference": "urn:uuid:346cbf70-83e0-4d9e-b1d1-e13d4dff577d"
          },
          {
            "reference": "urn:uuid:f37217d4-84b4-4314-b908-31dc4f9b2cc9"
          },
          {
            "reference": "urn:uuid:da321006-4eb0-43dd-b413-ebea6420a3d2"
          },
          {
            "reference": "urn:uuid:db77ce20-0666-4631-be9e-554eb23ee228"
          },
          {
            "reference": "urn:uuid:83b6085d-c349-4a0b-8eba-07705cdba2e9"
          },
          {
            "reference": "urn:uuid:8836e01e-40f5-4473-9466-8f294af9078f"
          },
          {
            "reference": "urn:uuid:a1118621-0fc6-4fd1-90e2-a56d8b990510"
          },
          {
            "reference": "urn:uuid:4a569f0a-c00d-4eb6-a100-d6a995547caf"
          }
        ],
        "status": "registered",
        "code": {
          "coding": [
            {
              "code": "11502-2",
              "system": "http://loinc.org",
              "display": "Laboratory report"
            }
          ]
        },
        "subject": {
          "reference": "urn:uuid:6385253c-d700-4736-af8f-75ddc37887e3",
          "display": "Andrzej Frydrychowicz"
        }
      }
    },
    {
      "fullUrl": "urn:uuid:6385253c-d700-4736-af8f-75ddc37887e3",
      "resource": {
        "resourceType": "Patient",
        "id": "6385253c-d700-4736-af8f-75ddc37887e3",
        "meta": {
          "security": [
            {
              "system": "http://terminology.hl7.org/CodeSystem/v3-ActReason",
              "code": "HTEST"
            },
            {
              "system": "http://terminology.hl7.org/CodeSystem/v3-ActReason",
              "code": "TRAIN"
            }
          ],
          "tag": [
            {
              "system": "https://synderai.net/fhir/CodeSystem/tags",
              "code": "synthetic",
              "display": "SYNDERAI Synthetic data"
            }
          ],
          "profile": [
            "http://hl7.eu/fhir/base/StructureDefinition/patient-eu-core"
          ]
        },
        "identifier": [
          {
            "type": {
              "coding": [
                {
                  "code": "PT",
                  "system": "http://terminology.hl7.org/CodeSystem/v2-0203"
                }
              ]
            },
            "system": "http://ec.europa.eu/identifier/eci",
            "value": "7036-931598-4"
          },
          {
            "type": {
              "coding": [
                {
                  "code": "MR",
                  "system": "http://terminology.hl7.org/CodeSystem/v2-0203"
                }
              ]
            },
            "system": "http://local.setting.eu/identifier",
            "value": "c84bd820-cdcf-9bc1-d9ba-aa083a5eb400"
          }
        ],
        "name": [
          {
            "family": "Frydrychowicz"
          },
          {
            "given": [
              "Andrzej"
            ]
          },
          {
            "text": "Andrzej Frydrychowicz"
          }
        ],
        "address": [
          {
            "line": [
              "aleja Tulipanowa 94"
            ],
            "use": "home",
            "type": "physical",
            "postalCode": "21-040",
            "city": "Świdnik",
            "country": "Poland"
          }
        ],
        "telecom": [
          {
            "system": "phone",
            "value": "516 092 560"
          }
        ],
        "extension": [
          {
            "url": "http://hl7.org/fhir/StructureDefinition/patient-nationality",
            "valueCodeableConcept": {
              "coding": [
                {
                  "code": "PL",
                  "system": "http://hl7.org/fhir/ValueSet/country"
                }
              ]
            }
          }
        ],
        "text": {
          "status": "generated",
          "div": "<div xmlns=\"http://www.w3.org/1999/xhtml\"><table class=\"hl7__ips\"><tr><td>Andrzej Frydrychowicz</td><td>male</td><td>12-Apr-1974</td></tr></table></div>"
        },
        "gender": "male",
        "birthDate": "1974-04-12"
      }
    },
    {
      "fullUrl": "urn:uuid:03a2c941-85fb-42ef-a93c-14fe65df3e63",
      "resource": {
        "resourceType": "ServiceRequest",
        "id": "03a2c941-85fb-42ef-a93c-14fe65df3e63",
        "meta": {
          "profile": [
            "http://hl7.eu/fhir/laboratory/StructureDefinition/ServiceRequest-eu-lab"
          ]
        },
        "identifier": [
          {
            "system": "http://example.org",
            "value": "fc0659db-5c8a-4007-98a7-29b9aa63e0f3"
          }
        ],
        "specimen": [
          {
            "reference": "urn:uuid:f5dfe193-413b-4d66-bb08-f41e31fb833c"
          },
          {
            "reference": "urn:uuid:01e61419-8f54-4b71-900a-a5be63fc21b3"
          }
        ],
        "reasonCode": [
          {
            "coding": [
              {
                "code": "414545008",
                "system": "http://snomed.info/sct",
                "display": "Ischemic heart disease"
              }
            ]
          },
          {
            "coding": [
              {
                "code": "239873007",
                "system": "http://snomed.info/sct",
                "display": "Osteoarthritis of knee"
              }
            ]
          },
          {
            "coding": [
              {
                "code": "15777000",
                "system": "http://snomed.info/sct",
                "display": "Prediabetes"
              }
            ]
          },
          {
            "coding": [
              {
                "code": "271737000",
                "system": "http://snomed.info/sct",
                "display": "Anemia"
              }
            ]
          }
        ],
        "status": "active",
        "intent": "order",
        "code": {
          "coding": [
            {
              "code": "108252007",
              "system": "http://snomed.info/sct",
              "display": "Laboratory procedure"
            }
          ]
        },
        "subject": {
          "reference": "urn:uuid:6385253c-d700-4736-af8f-75ddc37887e3",
          "display": "Andrzej Frydrychowicz"
        },
        "requester": {
          "reference": "urn:uuid:2ae30542-6fe3-42c0-9738-934beaeb8d66"
        }
      }
    },
    {
      "fullUrl": "urn:uuid:2ae30542-6fe3-42c0-9738-934beaeb8d66",
      "resource": {
        "resourceType": "PractitionerRole",
        "id": "2ae30542-6fe3-42c0-9738-934beaeb8d66",
        "meta": {
          "profile": [
            "http://hl7.eu/fhir/base/StructureDefinition/practitionerRole-eu"
          ]
        },
        "text": {
          "status": "generated",
          "div": "<div xmlns=\"http://www.w3.org/1999/xhtml\">Provider Role Id: 2ae30542-6fe3-42c0-9738-934beaeb8d66</div>"
        },
        "organization": {
          "reference": "urn:uuid:ba041253-4f26-4fe4-9f16-08dd1438f722"
        }
      }
    },
    {
      "fullUrl": "urn:uuid:ba041253-4f26-4fe4-9f16-08dd1438f722",
      "resource": {
        "resourceType": "Organization",
        "id": "ba041253-4f26-4fe4-9f16-08dd1438f722",
        "meta": {
          "profile": [
            "http://hl7.eu/fhir/base/StructureDefinition/organization-eu"
          ]
        },
        "identifier": [
          {
            "assigner": {
              "display": "HL7 Europe"
            },
            "system": "urn:oid:2.16.840.1.113883.2.51.999",
            "value": "e4a2b019-5669-4b33-bdc6-6b2bd65ab860"
          }
        ],
        "address": [
          {
            "line": [
              "Aleja Lotników Polskich 82"
            ],
            "city": "Świdnik",
            "postalCode": "21-040",
            "country": "Poland"
          }
        ],
        "text": {
          "status": "generated",
          "div": "<div xmlns=\"http://www.w3.org/1999/xhtml\">Provider Organization: Lubelskie Centrum Diagnostyczne</div>"
        },
        "name": "Lubelskie Centrum Diagnostyczne"
      }
    },
    {
      "fullUrl": "urn:uuid:f5dfe193-413b-4d66-bb08-f41e31fb833c",
      "resource": {
        "resourceType": "Specimen",
        "id": "f5dfe193-413b-4d66-bb08-f41e31fb833c",
        "meta": {
          "profile": [
            "http://hl7.eu/fhir/laboratory/StructureDefinition/Specimen-eu-lab"
          ]
        },
        "collection": {
          "collectedDateTime": "2019-07-20"
        },
        "text": {
          "status": "generated",
          "div": "<div xmlns=\"http://www.w3.org/1999/xhtml\"><table class=\"hl7__eu__lab__report\"><tr><th>Specimen</th><th>Collection Date</th></tr><tr><td>Whole blood specimen (specimen)</td><td><span class=\"nb\">20-Jul-2019</span></td></tr></table></div>"
        },
        "type": {
          "coding": [
            {
              "code": "258580003",
              "system": "http://snomed.info/sct",
              "display": "Whole blood specimen (specimen)"
            }
          ]
        }
      }
    },
    {
      "fullUrl": "urn:uuid:01e61419-8f54-4b71-900a-a5be63fc21b3",
      "resource": {
        "resourceType": "Specimen",
        "id": "01e61419-8f54-4b71-900a-a5be63fc21b3",
        "meta": {
          "profile": [
            "http://hl7.eu/fhir/laboratory/StructureDefinition/Specimen-eu-lab"
          ]
        },
        "collection": {
          "collectedDateTime": "2019-07-20"
        },
        "text": {
          "status": "generated",
          "div": "<div xmlns=\"http://www.w3.org/1999/xhtml\"><table class=\"hl7__eu__lab__report\"><tr><th>Specimen</th><th>Collection Date</th></tr><tr><td>Acellular blood (serum or plasma) specimen</td><td><span class=\"nb\">20-Jul-2019</span></td></tr></table></div>"
        },
        "type": {
          "coding": [
            {
              "code": "122592007",
              "system": "http://snomed.info/sct",
              "display": "Acellular blood (serum or plasma) specimen"
            }
          ]
        }
      }
    },
    {
      "fullUrl": "urn:uuid:9bda7c63-5602-405b-ac3b-521c326a48a9",
      "resource": {
        "resourceType": "Observation",
        "id": "9bda7c63-5602-405b-ac3b-521c326a48a9",
        "meta": {
          "profile": [
            "http://hl7.eu/fhir/laboratory/StructureDefinition/Observation-resultslab-eu-lab"
          ]
        },
        "performer": [
          {
            "display": "The Central European Lab"
          }
        ],
        "category": [
          {
            "coding": [
              {
                "system": "http://terminology.hl7.org/CodeSystem/observation-category",
                "code": "laboratory"
              }
            ]
          }
        ],
        "code": {
          "coding": [
            {
              "code": "4548-4",
              "system": "http://loinc.org",
              "display": "Hemoglobin A1c/Hemoglobin.total in Blood"
            }
          ],
          "text": "Hemoglobin A1c/Hemoglobin.total in Blood"
        },
        "valueQuantity": {
          "system": "http://unitsofmeasure.org",
          "value": 6.1,
          "unit": "%",
          "code": "%"
        },
        "referenceRange": [
          {
            "low": {
              "value": 4.3,
              "code": "%",
              "system": "http://unitsofmeasure.org"
            }
          },
          {
            "high": {
              "value": 6.4,
              "code": "%",
              "system": "http://unitsofmeasure.org"
            }
          }
        ],
        "text": {
          "status": "generated",
          "div": "<div xmlns=\"http://www.w3.org/1999/xhtml\"><table class=\"hl7__eu__lab__report\"><tr><th>Test</th><th>20-Jul-2019</th><th>Reference&#xA0;Range</th><th>Unit</th></tr><tr><td>Hemoglobin A1c/Hemoglobin.total in Blood</td><td>6.1</td><td>4.3 - 6.4</td><td></td><td>%</td></tr></table></div>"
        },
        "status": "final",
        "subject": {
          "reference": "urn:uuid:6385253c-d700-4736-af8f-75ddc37887e3",
          "display": "Andrzej Frydrychowicz"
        },
        "effectiveDateTime": "2019-07-20T21:33:04Z",
        "specimen": {
          "reference": "urn:uuid:f5dfe193-413b-4d66-bb08-f41e31fb833c"
        }
      }
    },
    {
      "fullUrl": "urn:uuid:445a6282-6d81-4e63-9e31-b735b2f34bed",
      "resource": {
        "resourceType": "Observation",
        "id": "445a6282-6d81-4e63-9e31-b735b2f34bed",
        "meta": {
          "profile": [
            "http://hl7.eu/fhir/laboratory/StructureDefinition/Observation-resultslab-eu-lab"
          ]
        },
        "performer": [
          {
            "display": "The Central European Lab"
          }
        ],
        "category": [
          {
            "coding": [
              {
                "system": "http://terminology.hl7.org/CodeSystem/observation-category",
                "code": "laboratory"
              }
            ]
          }
        ],
        "code": {
          "coding": [
            {
              "code": "2339-0",
              "system": "http://loinc.org",
              "display": "Glucose [Mass/volume] in Blood"
            }
          ],
          "text": "Glucose [Mass/volume] in Blood"
        },
        "valueQuantity": {
          "system": "http://unitsofmeasure.org",
          "value": 98.3,
          "unit": "mg/dL",
          "code": "mg/dL"
        },
        "referenceRange": [
          {
            "low": {
              "value": 70,
              "code": "mg/dL",
              "system": "http://unitsofmeasure.org"
            }
          },
          {
            "high": {
              "value": 140,
              "code": "mg/dL",
              "system": "http://unitsofmeasure.org"
            }
          }
        ],
        "text": {
          "status": "generated",
          "div": "<div xmlns=\"http://www.w3.org/1999/xhtml\"><table class=\"hl7__eu__lab__report\"><tr><th>Test</th><th>20-Jul-2019</th><th>Reference&#xA0;Range</th><th>Unit</th></tr><tr><td>Glucose [Mass/volume] in Blood</td><td>98.3</td><td>70 - 140</td><td></td><td>mg/dL</td></tr></table></div>"
        },
        "status": "final",
        "subject": {
          "reference": "urn:uuid:6385253c-d700-4736-af8f-75ddc37887e3",
          "display": "Andrzej Frydrychowicz"
        },
        "effectiveDateTime": "2019-07-20T21:33:04Z",
        "specimen": {
          "reference": "urn:uuid:f5dfe193-413b-4d66-bb08-f41e31fb833c"
        }
      }
    },
    {
      "fullUrl": "urn:uuid:a01d5ffe-9e39-4650-a809-07698b29d36a",
      "resource": {
        "resourceType": "Observation",
        "id": "a01d5ffe-9e39-4650-a809-07698b29d36a",
        "meta": {
          "profile": [
            "http://hl7.eu/fhir/laboratory/StructureDefinition/Observation-resultslab-eu-lab"
          ]
        },
        "performer": [
          {
            "display": "The Central European Lab"
          }
        ],
        "category": [
          {
            "coding": [
              {
                "system": "http://terminology.hl7.org/CodeSystem/observation-category",
                "code": "laboratory"
              }
            ]
          }
        ],
        "code": {
          "coding": [
            {
              "code": "6299-2",
              "system": "http://loinc.org",
              "display": "Urea nitrogen [Mass/volume] in Blood"
            }
          ],
          "text": "Urea nitrogen [Mass/volume] in Blood"
        },
        "valueQuantity": {
          "system": "http://unitsofmeasure.org",
          "value": 7.6,
          "unit": "mg/dL",
          "code": "mg/dL"
        },
        "referenceRange": [
          {
            "low": {
              "value": 7,
              "code": "mg/dL",
              "system": "http://unitsofmeasure.org"
            }
          },
          {
            "high": {
              "value": 20,
              "code": "mg/dL",
              "system": "http://unitsofmeasure.org"
            }
          }
        ],
        "text": {
          "status": "generated",
          "div": "<div xmlns=\"http://www.w3.org/1999/xhtml\"><table class=\"hl7__eu__lab__report\"><tr><th>Test</th><th>20-Jul-2019</th><th>Reference&#xA0;Range</th><th>Unit</th></tr><tr><td>Urea nitrogen [Mass/volume] in Blood</td><td>7.6</td><td>7 - 20</td><td></td><td>mg/dL</td></tr></table></div>"
        },
        "status": "final",
        "subject": {
          "reference": "urn:uuid:6385253c-d700-4736-af8f-75ddc37887e3",
          "display": "Andrzej Frydrychowicz"
        },
        "effectiveDateTime": "2019-07-20T21:33:04Z",
        "specimen": {
          "reference": "urn:uuid:f5dfe193-413b-4d66-bb08-f41e31fb833c"
        }
      }
    },
    {
      "fullUrl": "urn:uuid:8b781916-ea02-4317-b251-b34f39fd5985",
      "resource": {
        "resourceType": "Observation",
        "id": "8b781916-ea02-4317-b251-b34f39fd5985",
        "meta": {
          "profile": [
            "http://hl7.eu/fhir/laboratory/StructureDefinition/Observation-resultslab-eu-lab"
          ]
        },
        "performer": [
          {
            "display": "The Central European Lab"
          }
        ],
        "category": [
          {
            "coding": [
              {
                "system": "http://terminology.hl7.org/CodeSystem/observation-category",
                "code": "laboratory"
              }
            ]
          }
        ],
        "code": {
          "coding": [
            {
              "code": "38483-4",
              "system": "http://loinc.org",
              "display": "Creatinine [Mass/volume] in Blood"
            }
          ],
          "text": "Creatinine [Mass/volume] in Blood"
        },
        "valueQuantity": {
          "system": "http://unitsofmeasure.org",
          "value": 1.4,
          "unit": "mg/dL",
          "code": "mg/dL"
        },
        "referenceRange": [
          {
            "low": {
              "value": 0.6,
              "code": "mg/dL",
              "system": "http://unitsofmeasure.org"
            }
          },
          {
            "high": {
              "value": 1.3,
              "code": "mg/dL",
              "system": "http://unitsofmeasure.org"
            }
          }
        ],
        "interpretation": [
          {
            "coding": [
              {
                "code": "H",
                "system": "http://terminology.hl7.org/CodeSystem/v3-ObservationInterpretation",
                "display": "High"
              }
            ]
          }
        ],
        "text": {
          "status": "generated",
          "div": "<div xmlns=\"http://www.w3.org/1999/xhtml\"><table class=\"hl7__eu__lab__report\"><tr><th>Test</th><th>20-Jul-2019</th><th>Reference&#xA0;Range</th><th>Unit</th></tr><tr><td>Creatinine [Mass/volume] in Blood</td><td>1.4</td><td>0.6 - 1.3</td><td>H</td><td>mg/dL</td></tr></table></div>"
        },
        "status": "final",
        "subject": {
          "reference": "urn:uuid:6385253c-d700-4736-af8f-75ddc37887e3",
          "display": "Andrzej Frydrychowicz"
        },
        "effectiveDateTime": "2019-07-20T21:33:04Z",
        "specimen": {
          "reference": "urn:uuid:f5dfe193-413b-4d66-bb08-f41e31fb833c"
        }
      }
    },
    {
      "fullUrl": "urn:uuid:4433ed90-727e-48d0-b353-2f03af815ac5",
      "resource": {
        "resourceType": "Observation",
        "id": "4433ed90-727e-48d0-b353-2f03af815ac5",
        "meta": {
          "profile": [
            "http://hl7.eu/fhir/laboratory/StructureDefinition/Observation-resultslab-eu-lab"
          ]
        },
        "performer": [
          {
            "display": "The Central European Lab"
          }
        ],
        "category": [
          {
            "coding": [
              {
                "system": "http://terminology.hl7.org/CodeSystem/observation-category",
                "code": "laboratory"
              }
            ]
          }
        ],
        "code": {
          "coding": [
            {
              "code": "49765-1",
              "system": "http://loinc.org",
              "display": "Calcium [Mass/volume] in Blood"
            }
          ],
          "text": "Calcium [Mass/volume] in Blood"
        },
        "valueQuantity": {
          "system": "http://unitsofmeasure.org",
          "value": 8.7,
          "unit": "mg/dL",
          "code": "mg/dL"
        },
        "referenceRange": [
          {
            "low": {
              "value": 8.5,
              "code": "mg/dL",
              "system": "http://unitsofmeasure.org"
            }
          },
          {
            "high": {
              "value": 10.5,
              "code": "mg/dL",
              "system": "http://unitsofmeasure.org"
            }
          }
        ],
        "text": {
          "status": "generated",
          "div": "<div xmlns=\"http://www.w3.org/1999/xhtml\"><table class=\"hl7__eu__lab__report\"><tr><th>Test</th><th>20-Jul-2019</th><th>Reference&#xA0;Range</th><th>Unit</th></tr><tr><td>Calcium [Mass/volume] in Blood</td><td>8.7</td><td>8.5 - 10.5</td><td></td><td>mg/dL</td></tr></table></div>"
        },
        "status": "final",
        "subject": {
          "reference": "urn:uuid:6385253c-d700-4736-af8f-75ddc37887e3",
          "display": "Andrzej Frydrychowicz"
        },
        "effectiveDateTime": "2019-07-20T21:33:04Z",
        "specimen": {
          "reference": "urn:uuid:f5dfe193-413b-4d66-bb08-f41e31fb833c"
        }
      }
    },
    {
      "fullUrl": "urn:uuid:346cbf70-83e0-4d9e-b1d1-e13d4dff577d",
      "resource": {
        "resourceType": "Observation",
        "id": "346cbf70-83e0-4d9e-b1d1-e13d4dff577d",
        "meta": {
          "profile": [
            "http://hl7.eu/fhir/laboratory/StructureDefinition/Observation-resultslab-eu-lab"
          ]
        },
        "performer": [
          {
            "display": "The Central European Lab"
          }
        ],
        "category": [
          {
            "coding": [
              {
                "system": "http://terminology.hl7.org/CodeSystem/observation-category",
                "code": "laboratory"
              }
            ]
          }
        ],
        "code": {
          "coding": [
            {
              "code": "2947-0",
              "system": "http://loinc.org",
              "display": "Sodium [Moles/volume] in Blood"
            }
          ],
          "text": "Sodium [Moles/volume] in Blood"
        },
        "valueQuantity": {
          "system": "http://unitsofmeasure.org",
          "value": 141.1,
          "unit": "mmol/L",
          "code": "mmol/L"
        },
        "referenceRange": [
          {
            "low": {
              "value": 135,
              "code": "mmol/L",
              "system": "http://unitsofmeasure.org"
            }
          },
          {
            "high": {
              "value": 145,
              "code": "mmol/L",
              "system": "http://unitsofmeasure.org"
            }
          }
        ],
        "text": {
          "status": "generated",
          "div": "<div xmlns=\"http://www.w3.org/1999/xhtml\"><table class=\"hl7__eu__lab__report\"><tr><th>Test</th><th>20-Jul-2019</th><th>Reference&#xA0;Range</th><th>Unit</th></tr><tr><td>Sodium [Moles/volume] in Blood</td><td>141.1</td><td>135 - 145</td><td></td><td>mmol/L</td></tr></table></div>"
        },
        "status": "final",
        "subject": {
          "reference": "urn:uuid:6385253c-d700-4736-af8f-75ddc37887e3",
          "display": "Andrzej Frydrychowicz"
        },
        "effectiveDateTime": "2019-07-20T21:33:04Z",
        "specimen": {
          "reference": "urn:uuid:f5dfe193-413b-4d66-bb08-f41e31fb833c"
        }
      }
    },
    {
      "fullUrl": "urn:uuid:f37217d4-84b4-4314-b908-31dc4f9b2cc9",
      "resource": {
        "resourceType": "Observation",
        "id": "f37217d4-84b4-4314-b908-31dc4f9b2cc9",
        "meta": {
          "profile": [
            "http://hl7.eu/fhir/laboratory/StructureDefinition/Observation-resultslab-eu-lab"
          ]
        },
        "performer": [
          {
            "display": "The Central European Lab"
          }
        ],
        "category": [
          {
            "coding": [
              {
                "system": "http://terminology.hl7.org/CodeSystem/observation-category",
                "code": "laboratory"
              }
            ]
          }
        ],
        "code": {
          "coding": [
            {
              "code": "6298-4",
              "system": "http://loinc.org",
              "display": "Potassium [Moles/volume] in Blood"
            }
          ],
          "text": "Potassium [Moles/volume] in Blood"
        },
        "valueQuantity": {
          "system": "http://unitsofmeasure.org",
          "value": 5.2,
          "unit": "mmol/L",
          "code": "mmol/L"
        },
        "referenceRange": [
          {
            "low": {
              "value": 3.5,
              "code": "mmol/L",
              "system": "http://unitsofmeasure.org"
            }
          },
          {
            "high": {
              "value": 5.3,
              "code": "mmol/L",
              "system": "http://unitsofmeasure.org"
            }
          }
        ],
        "text": {
          "status": "generated",
          "div": "<div xmlns=\"http://www.w3.org/1999/xhtml\"><table class=\"hl7__eu__lab__report\"><tr><th>Test</th><th>20-Jul-2019</th><th>Reference&#xA0;Range</th><th>Unit</th></tr><tr><td>Potassium [Moles/volume] in Blood</td><td>5.2</td><td>3.5 - 5.3</td><td></td><td>mmol/L</td></tr></table></div>"
        },
        "status": "final",
        "subject": {
          "reference": "urn:uuid:6385253c-d700-4736-af8f-75ddc37887e3",
          "display": "Andrzej Frydrychowicz"
        },
        "effectiveDateTime": "2019-07-20T21:33:04Z",
        "specimen": {
          "reference": "urn:uuid:f5dfe193-413b-4d66-bb08-f41e31fb833c"
        }
      }
    },
    {
      "fullUrl": "urn:uuid:da321006-4eb0-43dd-b413-ebea6420a3d2",
      "resource": {
        "resourceType": "Observation",
        "id": "da321006-4eb0-43dd-b413-ebea6420a3d2",
        "meta": {
          "profile": [
            "http://hl7.eu/fhir/laboratory/StructureDefinition/Observation-resultslab-eu-lab"
          ]
        },
        "performer": [
          {
            "display": "The Central European Lab"
          }
        ],
        "category": [
          {
            "coding": [
              {
                "system": "http://terminology.hl7.org/CodeSystem/observation-category",
                "code": "laboratory"
              }
            ]
          }
        ],
        "code": {
          "coding": [
            {
              "code": "2069-3",
              "system": "http://loinc.org",
              "display": "Chloride [Moles/volume] in Blood"
            }
          ],
          "text": "Chloride [Moles/volume] in Blood"
        },
        "valueQuantity": {
          "system": "http://unitsofmeasure.org",
          "value": 103.4,
          "unit": "mmol/L",
          "code": "mmol/L"
        },
        "referenceRange": [
          {
            "low": {
              "value": 98,
              "code": "mmol/L",
              "system": "http://unitsofmeasure.org"
            }
          },
          {
            "high": {
              "value": 110,
              "code": "mmol/L",
              "system": "http://unitsofmeasure.org"
            }
          }
        ],
        "text": {
          "status": "generated",
          "div": "<div xmlns=\"http://www.w3.org/1999/xhtml\"><table class=\"hl7__eu__lab__report\"><tr><th>Test</th><th>20-Jul-2019</th><th>Reference&#xA0;Range</th><th>Unit</th></tr><tr><td>Chloride [Moles/volume] in Blood</td><td>103.4</td><td>98 - 110</td><td></td><td>mmol/L</td></tr></table></div>"
        },
        "status": "final",
        "subject": {
          "reference": "urn:uuid:6385253c-d700-4736-af8f-75ddc37887e3",
          "display": "Andrzej Frydrychowicz"
        },
        "effectiveDateTime": "2019-07-20T21:33:04Z",
        "specimen": {
          "reference": "urn:uuid:f5dfe193-413b-4d66-bb08-f41e31fb833c"
        }
      }
    },
    {
      "fullUrl": "urn:uuid:db77ce20-0666-4631-be9e-554eb23ee228",
      "resource": {
        "resourceType": "Observation",
        "id": "db77ce20-0666-4631-be9e-554eb23ee228",
        "meta": {
          "profile": [
            "http://hl7.eu/fhir/laboratory/StructureDefinition/Observation-resultslab-eu-lab"
          ]
        },
        "performer": [
          {
            "display": "The Central European Lab"
          }
        ],
        "category": [
          {
            "coding": [
              {
                "system": "http://terminology.hl7.org/CodeSystem/observation-category",
                "code": "laboratory"
              }
            ]
          }
        ],
        "code": {
          "coding": [
            {
              "code": "20565-8",
              "system": "http://loinc.org",
              "display": "Carbon dioxide, total [Moles/volume] in Blood"
            }
          ],
          "text": "Carbon dioxide, total [Moles/volume] in Blood"
        },
        "valueQuantity": {
          "system": "http://unitsofmeasure.org",
          "value": 21.1,
          "unit": "mmol/L",
          "code": "mmol/L"
        },
        "referenceRange": [
          {
            "low": {
              "value": 22,
              "code": "mmol/L",
              "system": "http://unitsofmeasure.org"
            }
          },
          {
            "high": {
              "value": 29,
              "code": "mmol/L",
              "system": "http://unitsofmeasure.org"
            }
          }
        ],
        "interpretation": [
          {
            "coding": [
              {
                "code": "L",
                "system": "http://terminology.hl7.org/CodeSystem/v3-ObservationInterpretation",
                "display": "Low"
              }
            ]
          }
        ],
        "text": {
          "status": "generated",
          "div": "<div xmlns=\"http://www.w3.org/1999/xhtml\"><table class=\"hl7__eu__lab__report\"><tr><th>Test</th><th>20-Jul-2019</th><th>Reference&#xA0;Range</th><th>Unit</th></tr><tr><td>Carbon dioxide, total [Moles/volume] in Blood</td><td>21.1</td><td>22 - 29</td><td>L</td><td>mmol/L</td></tr></table></div>"
        },
        "status": "final",
        "subject": {
          "reference": "urn:uuid:6385253c-d700-4736-af8f-75ddc37887e3",
          "display": "Andrzej Frydrychowicz"
        },
        "effectiveDateTime": "2019-07-20T21:33:04Z",
        "specimen": {
          "reference": "urn:uuid:f5dfe193-413b-4d66-bb08-f41e31fb833c"
        }
      }
    },
    {
      "fullUrl": "urn:uuid:83b6085d-c349-4a0b-8eba-07705cdba2e9",
      "resource": {
        "resourceType": "Observation",
        "id": "83b6085d-c349-4a0b-8eba-07705cdba2e9",
        "meta": {
          "profile": [
            "http://hl7.eu/fhir/laboratory/StructureDefinition/Observation-resultslab-eu-lab"
          ]
        },
        "performer": [
          {
            "display": "The Central European Lab"
          }
        ],
        "category": [
          {
            "coding": [
              {
                "system": "http://terminology.hl7.org/CodeSystem/observation-category",
                "code": "laboratory"
              }
            ]
          }
        ],
        "code": {
          "coding": [
            {
              "code": "2093-3",
              "system": "http://loinc.org",
              "display": "Cholesterol [Mass/volume] in Serum or Plasma"
            }
          ],
          "text": "Cholesterol [Mass/volume] in Serum or Plasma"
        },
        "valueQuantity": {
          "system": "http://unitsofmeasure.org",
          "value": 177.5,
          "unit": "mg/dL",
          "code": "mg/dL"
        },
        "referenceRange": [
          {
            "low": {
              "value": 125,
              "code": "mg/dL",
              "system": "http://unitsofmeasure.org"
            }
          },
          {
            "high": {
              "value": 200,
              "code": "mg/dL",
              "system": "http://unitsofmeasure.org"
            }
          }
        ],
        "text": {
          "status": "generated",
          "div": "<div xmlns=\"http://www.w3.org/1999/xhtml\"><table class=\"hl7__eu__lab__report\"><tr><th>Test</th><th>20-Jul-2019</th><th>Reference&#xA0;Range</th><th>Unit</th></tr><tr><td>Cholesterol [Mass/volume] in Serum or Plasma</td><td>177.5</td><td>125 - 200</td><td></td><td>mg/dL</td></tr></table></div>"
        },
        "status": "final",
        "subject": {
          "reference": "urn:uuid:6385253c-d700-4736-af8f-75ddc37887e3",
          "display": "Andrzej Frydrychowicz"
        },
        "effectiveDateTime": "2019-07-20T21:33:04Z",
        "specimen": {
          "reference": "urn:uuid:01e61419-8f54-4b71-900a-a5be63fc21b3"
        }
      }
    },
    {
      "fullUrl": "urn:uuid:8836e01e-40f5-4473-9466-8f294af9078f",
      "resource": {
        "resourceType": "Observation",
        "id": "8836e01e-40f5-4473-9466-8f294af9078f",
        "meta": {
          "profile": [
            "http://hl7.eu/fhir/laboratory/StructureDefinition/Observation-resultslab-eu-lab"
          ]
        },
        "performer": [
          {
            "display": "The Central European Lab"
          }
        ],
        "category": [
          {
            "coding": [
              {
                "system": "http://terminology.hl7.org/CodeSystem/observation-category",
                "code": "laboratory"
              }
            ]
          }
        ],
        "code": {
          "coding": [
            {
              "code": "2571-8",
              "system": "http://loinc.org",
              "display": "Triglyceride [Mass/volume] in Serum or Plasma"
            }
          ],
          "text": "Triglyceride [Mass/volume] in Serum or Plasma"
        },
        "valueQuantity": {
          "system": "http://unitsofmeasure.org",
          "value": 143.1,
          "unit": "mg/dL",
          "code": "mg/dL"
        },
        "referenceRange": [
          {
            "low": {
              "value": 0,
              "code": "mg/dL",
              "system": "http://unitsofmeasure.org"
            }
          },
          {
            "high": {
              "value": 150,
              "code": "mg/dL",
              "system": "http://unitsofmeasure.org"
            }
          }
        ],
        "text": {
          "status": "generated",
          "div": "<div xmlns=\"http://www.w3.org/1999/xhtml\"><table class=\"hl7__eu__lab__report\"><tr><th>Test</th><th>20-Jul-2019</th><th>Reference&#xA0;Range</th><th>Unit</th></tr><tr><td>Triglyceride [Mass/volume] in Serum or Plasma</td><td>143.1</td><td>0 - 150</td><td></td><td>mg/dL</td></tr></table></div>"
        },
        "status": "final",
        "subject": {
          "reference": "urn:uuid:6385253c-d700-4736-af8f-75ddc37887e3",
          "display": "Andrzej Frydrychowicz"
        },
        "effectiveDateTime": "2019-07-20T21:33:04Z",
        "specimen": {
          "reference": "urn:uuid:01e61419-8f54-4b71-900a-a5be63fc21b3"
        }
      }
    },
    {
      "fullUrl": "urn:uuid:a1118621-0fc6-4fd1-90e2-a56d8b990510",
      "resource": {
        "resourceType": "Observation",
        "id": "a1118621-0fc6-4fd1-90e2-a56d8b990510",
        "meta": {
          "profile": [
            "http://hl7.eu/fhir/laboratory/StructureDefinition/Observation-resultslab-eu-lab"
          ]
        },
        "performer": [
          {
            "display": "The Central European Lab"
          }
        ],
        "category": [
          {
            "coding": [
              {
                "system": "http://terminology.hl7.org/CodeSystem/observation-category",
                "code": "laboratory"
              }
            ]
          }
        ],
        "code": {
          "coding": [
            {
              "code": "18262-6",
              "system": "http://loinc.org",
              "display": "Cholesterol in LDL [Mass/volume] in Serum or Plasma by Direct assay"
            }
          ],
          "text": "Cholesterol in LDL [Mass/volume] in Serum or Plasma by Direct assay"
        },
        "valueQuantity": {
          "system": "http://unitsofmeasure.org",
          "value": 96.9,
          "unit": "mg/dL",
          "code": "mg/dL"
        },
        "referenceRange": [
          {
            "low": {
              "value": 0,
              "code": "mg/dL",
              "system": "http://unitsofmeasure.org"
            }
          },
          {
            "high": {
              "value": 130,
              "code": "mg/dL",
              "system": "http://unitsofmeasure.org"
            }
          }
        ],
        "text": {
          "status": "generated",
          "div": "<div xmlns=\"http://www.w3.org/1999/xhtml\"><table class=\"hl7__eu__lab__report\"><tr><th>Test</th><th>20-Jul-2019</th><th>Reference&#xA0;Range</th><th>Unit</th></tr><tr><td>Cholesterol in LDL [Mass/volume] in Serum or Plasma by Direct assay</td><td>96.9</td><td>0 - 130</td><td></td><td>mg/dL</td></tr></table></div>"
        },
        "status": "final",
        "subject": {
          "reference": "urn:uuid:6385253c-d700-4736-af8f-75ddc37887e3",
          "display": "Andrzej Frydrychowicz"
        },
        "effectiveDateTime": "2019-07-20T21:33:04Z",
        "specimen": {
          "reference": "urn:uuid:01e61419-8f54-4b71-900a-a5be63fc21b3"
        }
      }
    },
    {
      "fullUrl": "urn:uuid:4a569f0a-c00d-4eb6-a100-d6a995547caf",
      "resource": {
        "resourceType": "Observation",
        "id": "4a569f0a-c00d-4eb6-a100-d6a995547caf",
        "meta": {
          "profile": [
            "http://hl7.eu/fhir/laboratory/StructureDefinition/Observation-resultslab-eu-lab"
          ]
        },
        "performer": [
          {
            "display": "The Central European Lab"
          }
        ],
        "category": [
          {
            "coding": [
              {
                "system": "http://terminology.hl7.org/CodeSystem/observation-category",
                "code": "laboratory"
              }
            ]
          }
        ],
        "code": {
          "coding": [
            {
              "code": "2085-9",
              "system": "http://loinc.org",
              "display": "Cholesterol in HDL [Mass/volume] in Serum or Plasma"
            }
          ],
          "text": "Cholesterol in HDL [Mass/volume] in Serum or Plasma"
        },
        "valueQuantity": {
          "system": "http://unitsofmeasure.org",
          "value": 52.1,
          "unit": "mg/dL",
          "code": "mg/dL"
        },
        "referenceRange": [
          {
            "low": {
              "value": 40,
              "code": "mg/dL",
              "system": "http://unitsofmeasure.org"
            }
          },
          {
            "high": {
              "value": 60,
              "code": "mg/dL",
              "system": "http://unitsofmeasure.org"
            }
          }
        ],
        "text": {
          "status": "generated",
          "div": "<div xmlns=\"http://www.w3.org/1999/xhtml\"><table class=\"hl7__eu__lab__report\"><tr><th>Test</th><th>20-Jul-2019</th><th>Reference&#xA0;Range</th><th>Unit</th></tr><tr><td>Cholesterol in HDL [Mass/volume] in Serum or Plasma</td><td>52.1</td><td>40 - 60</td><td></td><td>mg/dL</td></tr></table></div>"
        },
        "status": "final",
        "subject": {
          "reference": "urn:uuid:6385253c-d700-4736-af8f-75ddc37887e3",
          "display": "Andrzej Frydrychowicz"
        },
        "effectiveDateTime": "2019-07-20T21:33:04Z",
        "specimen": {
          "reference": "urn:uuid:01e61419-8f54-4b71-900a-a5be63fc21b3"
        }
      }
    },
    {
      "fullUrl": "urn:uuid:9adf5d20-d589-42ce-94f9-9c58d46a9945",
      "resource": {
        "resourceType": "Device",
        "id": "9adf5d20-d589-42ce-94f9-9c58d46a9945",
        "deviceName": [
          {
            "name": "SYNDERAI Synthetic Generator",
            "type": "manufacturer-name"
          }
        ],
        "version": [
          {
            "value": "5.0"
          }
        ],
        "text": {
          "status": "generated",
          "div": "<div xmlns=\"http://www.w3.org/1999/xhtml\">SYNDERAI Synthetic Generator v5.0</div>"
        },
        "status": "active\"",
        "distinctIdentifier": "synderai-generator-50",
        "manufacturer": "SYNDERAI Project"
      }
    },
    {
      "fullUrl": "urn:uuid:37dca068-84bf-4677-9385-5d9866bfb594",
      "resource": {
        "resourceType": "Provenance",
        "id": "37dca068-84bf-4677-9385-5d9866bfb594",
        "target": [
          {
            "reference": "Patient/6385253c-d700-4736-af8f-75ddc37887e3"
          },
          {
            "reference": "Bundle/96a8c52b-e046-41b2-8a31-e42fd63cdda8"
          },
          {
            "reference": "Composition/aa8e2a03-25f2-41df-9f44-b64f58e97970"
          },
          {
            "reference": "PractitionerRole/a79fedc8-fc69-4155-9936-fcf0b1513883"
          },
          {
            "reference": "Practitioner/36fb36c7-1689-4bb4-9576-9f5eaada9f35"
          },
          {
            "reference": "PractitionerRole/2ae30542-6fe3-42c0-9738-934beaeb8d66"
          },
          {
            "reference": "Organization/ba041253-4f26-4fe4-9f16-08dd1438f722"
          }
        ],
        "activity": {
          "text": "Synthetic Example Data Generation"
        },
        "policy": [
          "https://synderai.net/synderai-synthetic-data-policy"
        ],
        "agent": [
          {
            "type": {
              "text": "author"
            },
            "who": {
              "reference": "Device/9adf5d20-d589-42ce-94f9-9c58d46a9945"
            }
          }
        ],
        "reason": [
          {
            "text": "Interoperability Testing and Training (non-clinical use)"
          }
        ],
        "text": {
          "status": "generated",
          "div": "<div xmlns=\"http://www.w3.org/1999/xhtml\">Provenance for SYNDERAI Synthetic Example Data Resource</div>"
        },
        "recorded": "2019-07-20T23:33:04Z"
      }
    },
    {
      "fullUrl": "urn:uuid:a79fedc8-fc69-4155-9936-fcf0b1513883",
      "resource": {
        "resourceType": "PractitionerRole",
        "id": "a79fedc8-fc69-4155-9936-fcf0b1513883",
        "meta": {
          "profile": [
            "http://hl7.eu/fhir/base/StructureDefinition/practitionerRole-eu"
          ]
        },
        "text": {
          "status": "generated",
          "div": "<div xmlns=\"http://www.w3.org/1999/xhtml\">Laboratory Role Id: a79fedc8-fc69-4155-9936-fcf0b1513883</div>"
        },
        "practitioner": {
          "reference": "urn:uuid:36fb36c7-1689-4bb4-9576-9f5eaada9f35"
        }
      }
    },
    {
      "fullUrl": "urn:uuid:36fb36c7-1689-4bb4-9576-9f5eaada9f35",
      "resource": {
        "resourceType": "Practitioner",
        "id": "36fb36c7-1689-4bb4-9576-9f5eaada9f35",
        "meta": {
          "profile": [
            "http://hl7.eu/fhir/base/StructureDefinition/practitioner-eu"
          ]
        },
        "identifier": [
          {
            "assigner": {
              "display": "HL7 Europe"
            },
            "system": "urn:oid:2.16.840.1.113883.2.51.999",
            "value": "e8c2b282-4871-4aab-87a3-a47d0fc9580e"
          }
        ],
        "name": [
          {
            "prefix": [
              "dr"
            ],
            "given": [
              "Ex"
            ],
            "family": "Ample"
          }
        ],
        "address": [
          {
            "line": [
              "Laboratoire Central Européenne",
              "Boulevard du Jardin Botanique 32"
            ],
            "postalCode": "1000",
            "city": "Brussels",
            "country": "Belgium"
          }
        ],
        "text": {
          "status": "generated",
          "div": "<div xmlns=\"http://www.w3.org/1999/xhtml\">Laboratory: Laboratoire Central Européenne, 1000 Brussels, Belgium</div>"
        }
      }
    }
  ],
  "type": "document",
  "timestamp": "2019-07-20T23:33:04Z"
}
