{
  "resourceType": "Bundle",
  "id": "25716b13-208a-4bf3-8935-c38787a0ae64",
  "meta": {
    "profile": [
      "http://hl7.eu/fhir/laboratory/StructureDefinition/Bundle-eu-lab"
    ]
  },
  "identifier": {
    "assigner": {
      "display": "HL7 Europe"
    },
    "system": "urn:oid:2.16.840.1.113883.2.51.999",
    "value": "f1f5ffcf-d128-4e93-ab9b-c100e6529b4e"
  },
  "entry": [
    {
      "fullUrl": "urn:uuid:c8e4d42f-641c-42f2-b6d5-a93416d83c7b",
      "resource": {
        "resourceType": "Composition",
        "id": "c8e4d42f-641c-42f2-b6d5-a93416d83c7b",
        "meta": {
          "profile": [
            "http://hl7.eu/fhir/laboratory/StructureDefinition/Composition-eu-lab"
          ]
        },
        "identifier": {
          "assigner": {
            "display": "HL7 Europe"
          },
          "system": "urn:oid:2.16.840.1.113883.2.51.999",
          "value": "76052faf-40e9-4c18-a65a-562f044433d1"
        },
        "author": [
          {
            "reference": "urn:uuid:f60297d1-f13e-4cb8-80e3-261238430af4"
          }
        ],
        "category": [
          {
            "coding": [
              {
                "code": "26436-6",
                "system": "http://loinc.org",
                "display": "Laboratory studies (set)"
              }
            ]
          }
        ],
        "type": {
          "coding": [
            {
              "code": "11502-2",
              "system": "http://loinc.org",
              "display": "Laboratory report"
            }
          ],
          "text": "Laboratory Report"
        },
        "section": [
          {
            "code": {
              "coding": [
                {
                  "code": "26436-6",
                  "system": "http://loinc.org",
                  "display": "Laboratory studies (set)"
                }
              ],
              "text": "Laboratory studies"
            },
            "section": [
              {
                "code": {
                  "coding": [
                    {
                      "code": "$18719-5",
                      "system": "http://loinc.org",
                      "display": "Chemistry studies (set)"
                    }
                  ],
                  "text": "Chemistry"
                },
                "entry": [
                  {
                    "reference": "urn:uuid:00d1d6a9-5707-49f4-8ada-55c2c4ee3086"
                  },
                  {
                    "reference": "urn:uuid:3ce30cf1-b02d-4131-a494-15d4c64c1061"
                  },
                  {
                    "reference": "urn:uuid:63f9e326-de17-4ca5-8f45-6f3c22cd73ae"
                  },
                  {
                    "reference": "urn:uuid:3f38e3ec-610c-422b-ac6d-5ee944935b32"
                  },
                  {
                    "reference": "urn:uuid:78cf6b9f-967b-48d5-868c-5dff5be387e2"
                  },
                  {
                    "reference": "urn:uuid:2a1b60e6-3301-4b68-9b68-e442011a796a"
                  },
                  {
                    "reference": "urn:uuid:b3ae1ee2-8c2e-47e6-bd98-377897ee0ac6"
                  },
                  {
                    "reference": "urn:uuid:a9082afb-203a-4200-a80d-1d5f8e71def5"
                  },
                  {
                    "reference": "urn:uuid:d8b2c397-f816-447c-9edb-be53968b8acf"
                  },
                  {
                    "reference": "urn:uuid:d16cce18-cc57-4755-a0c4-233a7db66ee4"
                  },
                  {
                    "reference": "urn:uuid:f488d1e7-ec71-44ca-ab6f-4b94e9b109a0"
                  },
                  {
                    "reference": "urn:uuid:98178d40-a61a-4a38-b2bb-5271943a9327"
                  },
                  {
                    "reference": "urn:uuid:166fba6e-e70d-4a23-934a-559074b6bcd8"
                  },
                  {
                    "reference": "urn:uuid:90dcbedd-123e-4274-9154-81f9a3ea0d06"
                  }
                ],
                "text": {
                  "status": "generated",
                  "div": "<div xmlns=\"http://www.w3.org/1999/xhtml\"><h3>Chemistry</h3><table class=\"hl7__eu__lab__report\"><thead><tr><th>Test</th><th>13-JUL-2018</th><th>Reference&#xA0;Range</th><th>Unit</th></tr></thead><tbody><tr><td>Hemoglobin A1c/Hemoglobin.total in Blood</td><td><strong>7.0 H</strong></td><td>4 - 6</td><td>%</td></tr><tr><td>Glucose [Mass/volume] in Blood</td><td>111.4</td><td>70 - 140</td><td>mg/dL</td></tr><tr><td>Urea nitrogen [Mass/volume] in Blood</td><td>12.0</td><td>7 - 25</td><td>mg/dL</td></tr><tr><td>Creatinine [Mass/volume] in Blood</td><td>0.7</td><td>0.6 - 1.1</td><td>mg/dL</td></tr><tr><td>Calcium [Mass/volume] in Blood</td><td>8.9</td><td>8.5 - 10.4</td><td>mg/dL</td></tr><tr><td>Sodium [Moles/volume] in Blood</td><td>143.7</td><td>135 - 145</td><td>mmol/L</td></tr><tr><td>Potassium [Moles/volume] in Blood</td><td>5.0</td><td>3.5 - 5.1</td><td>mmol/L</td></tr><tr><td>Chloride [Moles/volume] in Blood</td><td>101.1</td><td>98 - 107</td><td>mmol/L</td></tr><tr><td>Carbon dioxide, total [Moles/volume] in Blood</td><td>22.1</td><td>22 - 29</td><td>mmol/L</td></tr><tr><td>Cholesterol [Mass/volume] in Serum or Plasma</td><td><strong>207.3 H</strong></td><td>125 - 200</td><td>mg/dL</td></tr><tr><td>Triglyceride [Mass/volume] in Serum or Plasma</td><td><strong>189.6 H</strong></td><td>35 - 150</td><td>mg/dL</td></tr><tr><td>Cholesterol in LDL [Mass/volume] in Serum or Plasma by Direct assay</td><td>111.8</td><td>0 - 130</td><td>mg/dL</td></tr><tr><td>Cholesterol in HDL [Mass/volume] in Serum or Plasma</td><td>57.7</td><td>40 - 100</td><td>mg/dL</td></tr><tr><td>Microalbumin/Creatinine [Mass Ratio] in Urine</td><td>5.7</td><td>0 - 30</td><td>mg/g</td></tr></tbody></table></div>"
                },
                "title": "Chemistry"
              }
            ],
            "title": "Laboratory Report"
          },
          {
            "text": {
              "status": "generated",
              "div": "<div xmlns=\"http://www.w3.org/1999/xhtml\"><h3>Annotation</h3><table class=\"hl7__eu__lab__report\"><tr><th>Conclusion and Recommendations based on this report and previous findings known to us</th></tr><tr><td>The patient shows elevated HbA1c, indicating suboptimal long-term glycemic control (diabetes). Cholesterol and triglycerides are also elevated, suggesting increased cardiovascular risk. Renal function, electrolytes, and urine microalbumin/creatinine ratio are within normal limits. Recommend optimization of diabetes and lipid management; no current evidence of renal impairment.</td></tr></table></div>"
            },
            "code": {
              "coding": [
                {
                  "system": "http://loinc.org",
                  "code": "48767-8",
                  "display": "Annotation comment"
                }
              ]
            },
            "title": "Annotation comment"
          }
        ],
        "status": "final",
        "subject": {
          "reference": "urn:uuid:48acaf55-1a1a-4f42-8a03-fb6400c4c371",
          "display": "Martine Couturier"
        },
        "date": "2018-07-13T22:13:15Z",
        "title": "Laboratory Report",
        "confidentiality": "N"
      }
    },
    {
      "fullUrl": "urn:uuid:db86c37f-6850-4229-9cb8-75a6abfc1da3",
      "resource": {
        "resourceType": "DiagnosticReport",
        "id": "db86c37f-6850-4229-9cb8-75a6abfc1da3",
        "meta": {
          "profile": [
            "http://hl7.eu/fhir/laboratory/StructureDefinition/DiagnosticReport-eu-lab"
          ]
        },
        "identifier": [
          {
            "assigner": {
              "display": "HL7 Europe"
            },
            "system": "urn:oid:2.16.840.1.113883.2.51.999",
            "value": "576c49f3-c05c-4f73-99ca-fac8f499362d"
          }
        ],
        "extension": [
          {
            "url": "http://hl7.org/fhir/5.0/StructureDefinition/extension-DiagnosticReport.composition",
            "valueReference": {
              "reference": "urn:uuid:76052faf-40e9-4c18-a65a-562f044433d1"
            }
          }
        ],
        "category": [
          {
            "coding": [
              {
                "code": "26436-6",
                "system": "http://loinc.org",
                "display": "Laboratory studies (set)"
              }
            ]
          }
        ],
        "specimen": [
          {
            "reference": "urn:uuid:f29bb783-19bf-4408-93b9-7536c3ef17dc"
          },
          {
            "reference": "urn:uuid:9c95b225-306a-435b-aebd-f3faec38aefc"
          },
          {
            "reference": "urn:uuid:6f2471a8-48e6-4b9a-af73-ee45aa5b1acf"
          }
        ],
        "result": [
          {
            "reference": "urn:uuid:00d1d6a9-5707-49f4-8ada-55c2c4ee3086"
          },
          {
            "reference": "urn:uuid:3ce30cf1-b02d-4131-a494-15d4c64c1061"
          },
          {
            "reference": "urn:uuid:63f9e326-de17-4ca5-8f45-6f3c22cd73ae"
          },
          {
            "reference": "urn:uuid:3f38e3ec-610c-422b-ac6d-5ee944935b32"
          },
          {
            "reference": "urn:uuid:78cf6b9f-967b-48d5-868c-5dff5be387e2"
          },
          {
            "reference": "urn:uuid:2a1b60e6-3301-4b68-9b68-e442011a796a"
          },
          {
            "reference": "urn:uuid:b3ae1ee2-8c2e-47e6-bd98-377897ee0ac6"
          },
          {
            "reference": "urn:uuid:a9082afb-203a-4200-a80d-1d5f8e71def5"
          },
          {
            "reference": "urn:uuid:d8b2c397-f816-447c-9edb-be53968b8acf"
          },
          {
            "reference": "urn:uuid:d16cce18-cc57-4755-a0c4-233a7db66ee4"
          },
          {
            "reference": "urn:uuid:f488d1e7-ec71-44ca-ab6f-4b94e9b109a0"
          },
          {
            "reference": "urn:uuid:98178d40-a61a-4a38-b2bb-5271943a9327"
          },
          {
            "reference": "urn:uuid:166fba6e-e70d-4a23-934a-559074b6bcd8"
          },
          {
            "reference": "urn:uuid:90dcbedd-123e-4274-9154-81f9a3ea0d06"
          }
        ],
        "status": "registered",
        "code": {
          "coding": [
            {
              "code": "11502-2",
              "system": "http://loinc.org",
              "display": "Laboratory report"
            }
          ]
        },
        "subject": {
          "reference": "urn:uuid:48acaf55-1a1a-4f42-8a03-fb6400c4c371",
          "display": "Martine Couturier"
        }
      }
    },
    {
      "fullUrl": "urn:uuid:48acaf55-1a1a-4f42-8a03-fb6400c4c371",
      "resource": {
        "resourceType": "Patient",
        "id": "48acaf55-1a1a-4f42-8a03-fb6400c4c371",
        "meta": {
          "security": [
            {
              "system": "http://terminology.hl7.org/CodeSystem/v3-ActReason",
              "code": "HTEST"
            },
            {
              "system": "http://terminology.hl7.org/CodeSystem/v3-ActReason",
              "code": "TRAIN"
            }
          ],
          "tag": [
            {
              "system": "https://synderai.net/fhir/CodeSystem/tags",
              "code": "synthetic",
              "display": "SYNDERAI Synthetic data"
            }
          ],
          "profile": [
            "http://hl7.eu/fhir/base/StructureDefinition/patient-eu-core"
          ]
        },
        "identifier": [
          {
            "type": {
              "coding": [
                {
                  "code": "PT",
                  "system": "http://terminology.hl7.org/CodeSystem/v2-0203"
                }
              ]
            },
            "system": "http://ec.europa.eu/identifier/eci",
            "value": "6614-983327-0"
          },
          {
            "type": {
              "coding": [
                {
                  "code": "MR",
                  "system": "http://terminology.hl7.org/CodeSystem/v2-0203"
                }
              ]
            },
            "system": "http://local.setting.eu/identifier",
            "value": "decdc04d-a1c8-929f-4aad-63136dd70efd"
          }
        ],
        "name": [
          {
            "family": "Couturier"
          },
          {
            "given": [
              "Martine"
            ]
          },
          {
            "text": "Martine Couturier"
          }
        ],
        "address": [
          {
            "line": [
              "458, rue de Bègue"
            ],
            "use": "home",
            "type": "physical",
            "postalCode": "03110",
            "city": "Boutin",
            "country": "France"
          }
        ],
        "telecom": [
          {
            "system": "phone",
            "value": "+33 4 11 66 35 81"
          }
        ],
        "extension": [
          {
            "url": "http://hl7.org/fhir/StructureDefinition/patient-nationality",
            "valueCodeableConcept": {
              "coding": [
                {
                  "code": "FR",
                  "system": "http://hl7.org/fhir/ValueSet/country"
                }
              ]
            }
          }
        ],
        "text": {
          "status": "generated",
          "div": "<div xmlns=\"http://www.w3.org/1999/xhtml\"><table class=\"hl7__ips\"><tr><td>Martine Couturier</td><td>female</td><td>13-Nov-1961</td></tr></table></div>"
        },
        "gender": "female",
        "birthDate": "1961-11-13"
      }
    },
    {
      "fullUrl": "urn:uuid:683613fd-a3cc-4c06-a6cf-017ade3f153d",
      "resource": {
        "resourceType": "ServiceRequest",
        "id": "683613fd-a3cc-4c06-a6cf-017ade3f153d",
        "meta": {
          "profile": [
            "http://hl7.eu/fhir/laboratory/StructureDefinition/ServiceRequest-eu-lab"
          ]
        },
        "identifier": [
          {
            "system": "http://example.org",
            "value": "93797564-f5b1-4047-b78b-014871ec80e6"
          }
        ],
        "specimen": [
          {
            "reference": "urn:uuid:f29bb783-19bf-4408-93b9-7536c3ef17dc"
          },
          {
            "reference": "urn:uuid:9c95b225-306a-435b-aebd-f3faec38aefc"
          },
          {
            "reference": "urn:uuid:6f2471a8-48e6-4b9a-af73-ee45aa5b1acf"
          }
        ],
        "reasonCode": [
          {
            "coding": [
              {
                "code": "368581000119106",
                "system": "http://snomed.info/sct",
                "display": "Neuropathy due to type 2 diabetes mellitus"
              }
            ]
          },
          {
            "coding": [
              {
                "code": "302870006",
                "system": "http://snomed.info/sct",
                "display": "Hypertriglyceridemia"
              }
            ]
          },
          {
            "coding": [
              {
                "code": "44054006",
                "system": "http://snomed.info/sct",
                "display": "Type 2 diabetes mellitus"
              }
            ]
          },
          {
            "coding": [
              {
                "code": "237602007",
                "system": "http://snomed.info/sct",
                "display": "Metabolic syndrome X"
              }
            ]
          },
          {
            "coding": [
              {
                "code": "271737000",
                "system": "http://snomed.info/sct",
                "display": "Anemia"
              }
            ]
          },
          {
            "coding": [
              {
                "code": "15777000",
                "system": "http://snomed.info/sct",
                "display": "Prediabetes"
              }
            ]
          }
        ],
        "status": "active",
        "intent": "order",
        "code": {
          "coding": [
            {
              "code": "108252007",
              "system": "http://snomed.info/sct",
              "display": "Laboratory procedure"
            }
          ]
        },
        "subject": {
          "reference": "urn:uuid:48acaf55-1a1a-4f42-8a03-fb6400c4c371",
          "display": "Martine Couturier"
        },
        "requester": {
          "reference": "urn:uuid:03bafcc3-ae94-411c-84b2-69709d29b31b"
        }
      }
    },
    {
      "fullUrl": "urn:uuid:03bafcc3-ae94-411c-84b2-69709d29b31b",
      "resource": {
        "resourceType": "PractitionerRole",
        "id": "03bafcc3-ae94-411c-84b2-69709d29b31b",
        "meta": {
          "profile": [
            "http://hl7.eu/fhir/base/StructureDefinition/practitionerRole-eu"
          ]
        },
        "text": {
          "status": "generated",
          "div": "<div xmlns=\"http://www.w3.org/1999/xhtml\">Provider Role Id: 03bafcc3-ae94-411c-84b2-69709d29b31b</div>"
        },
        "organization": {
          "reference": "urn:uuid:f015efdc-48a9-4154-a1e4-818de491220b"
        }
      }
    },
    {
      "fullUrl": "urn:uuid:f015efdc-48a9-4154-a1e4-818de491220b",
      "resource": {
        "resourceType": "Organization",
        "id": "f015efdc-48a9-4154-a1e4-818de491220b",
        "meta": {
          "profile": [
            "http://hl7.eu/fhir/base/StructureDefinition/organization-eu"
          ]
        },
        "identifier": [
          {
            "assigner": {
              "display": "HL7 Europe"
            },
            "system": "urn:oid:2.16.840.1.113883.2.51.999",
            "value": "29e9bef9-d782-4d2a-90e9-4438a77a1657"
          }
        ],
        "address": [
          {
            "line": [
              "Boulevard Denière 1"
            ],
            "city": "Vichy",
            "postalCode": "03200",
            "country": "France"
          }
        ],
        "text": {
          "status": "generated",
          "div": "<div xmlns=\"http://www.w3.org/1999/xhtml\">Provider Organization: Centre hospitalier Jacques Lacarin</div>"
        },
        "name": "Centre hospitalier Jacques Lacarin"
      }
    },
    {
      "fullUrl": "urn:uuid:f29bb783-19bf-4408-93b9-7536c3ef17dc",
      "resource": {
        "resourceType": "Specimen",
        "id": "f29bb783-19bf-4408-93b9-7536c3ef17dc",
        "meta": {
          "profile": [
            "http://hl7.eu/fhir/laboratory/StructureDefinition/Specimen-eu-lab"
          ]
        },
        "collection": {
          "collectedDateTime": "2018-07-13"
        },
        "text": {
          "status": "generated",
          "div": "<div xmlns=\"http://www.w3.org/1999/xhtml\"><table class=\"hl7__eu__lab__report\"><tr><th>Specimen</th><th>Collection Date</th></tr><tr><td>Whole blood specimen (specimen)</td><td><span class=\"nb\">13-Jul-2018</span></td></tr></table></div>"
        },
        "type": {
          "coding": [
            {
              "code": "258580003",
              "system": "http://snomed.info/sct",
              "display": "Whole blood specimen (specimen)"
            }
          ]
        }
      }
    },
    {
      "fullUrl": "urn:uuid:9c95b225-306a-435b-aebd-f3faec38aefc",
      "resource": {
        "resourceType": "Specimen",
        "id": "9c95b225-306a-435b-aebd-f3faec38aefc",
        "meta": {
          "profile": [
            "http://hl7.eu/fhir/laboratory/StructureDefinition/Specimen-eu-lab"
          ]
        },
        "collection": {
          "collectedDateTime": "2018-07-13"
        },
        "text": {
          "status": "generated",
          "div": "<div xmlns=\"http://www.w3.org/1999/xhtml\"><table class=\"hl7__eu__lab__report\"><tr><th>Specimen</th><th>Collection Date</th></tr><tr><td>Acellular blood (serum or plasma) specimen</td><td><span class=\"nb\">13-Jul-2018</span></td></tr></table></div>"
        },
        "type": {
          "coding": [
            {
              "code": "122592007",
              "system": "http://snomed.info/sct",
              "display": "Acellular blood (serum or plasma) specimen"
            }
          ]
        }
      }
    },
    {
      "fullUrl": "urn:uuid:6f2471a8-48e6-4b9a-af73-ee45aa5b1acf",
      "resource": {
        "resourceType": "Specimen",
        "id": "6f2471a8-48e6-4b9a-af73-ee45aa5b1acf",
        "meta": {
          "profile": [
            "http://hl7.eu/fhir/laboratory/StructureDefinition/Specimen-eu-lab"
          ]
        },
        "collection": {
          "collectedDateTime": "2018-07-13"
        },
        "text": {
          "status": "generated",
          "div": "<div xmlns=\"http://www.w3.org/1999/xhtml\"><table class=\"hl7__eu__lab__report\"><tr><th>Specimen</th><th>Collection Date</th></tr><tr><td>Urine specimen</td><td><span class=\"nb\">13-Jul-2018</span></td></tr></table></div>"
        },
        "type": {
          "coding": [
            {
              "code": "122575003",
              "system": "http://snomed.info/sct",
              "display": "Urine specimen"
            }
          ]
        }
      }
    },
    {
      "fullUrl": "urn:uuid:00d1d6a9-5707-49f4-8ada-55c2c4ee3086",
      "resource": {
        "resourceType": "Observation",
        "id": "00d1d6a9-5707-49f4-8ada-55c2c4ee3086",
        "meta": {
          "profile": [
            "http://hl7.eu/fhir/laboratory/StructureDefinition/Observation-resultslab-eu-lab"
          ]
        },
        "performer": [
          {
            "display": "The Central European Lab"
          }
        ],
        "category": [
          {
            "coding": [
              {
                "system": "http://terminology.hl7.org/CodeSystem/observation-category",
                "code": "laboratory"
              }
            ]
          }
        ],
        "code": {
          "coding": [
            {
              "code": "4548-4",
              "system": "http://loinc.org",
              "display": "Hemoglobin A1c/Hemoglobin.total in Blood"
            }
          ],
          "text": "Hemoglobin A1c/Hemoglobin.total in Blood"
        },
        "valueQuantity": {
          "system": "http://unitsofmeasure.org",
          "value": 7,
          "unit": "%",
          "code": "%"
        },
        "referenceRange": [
          {
            "low": {
              "value": 4,
              "code": "%",
              "system": "http://unitsofmeasure.org"
            }
          },
          {
            "high": {
              "value": 6,
              "code": "%",
              "system": "http://unitsofmeasure.org"
            }
          }
        ],
        "interpretation": [
          {
            "coding": [
              {
                "code": "H",
                "system": "http://terminology.hl7.org/CodeSystem/v3-ObservationInterpretation",
                "display": "High"
              }
            ]
          }
        ],
        "text": {
          "status": "generated",
          "div": "<div xmlns=\"http://www.w3.org/1999/xhtml\"><table class=\"hl7__eu__lab__report\"><tr><th>Test</th><th>13-Jul-2018</th><th>Reference&#xA0;Range</th><th>Unit</th></tr><tr><td>Hemoglobin A1c/Hemoglobin.total in Blood</td><td>7.0</td><td>4 - 6</td><td>H</td><td>%</td></tr></table></div>"
        },
        "status": "final",
        "subject": {
          "reference": "urn:uuid:48acaf55-1a1a-4f42-8a03-fb6400c4c371",
          "display": "Martine Couturier"
        },
        "effectiveDateTime": "2018-07-13T20:13:15Z",
        "specimen": {
          "reference": "urn:uuid:f29bb783-19bf-4408-93b9-7536c3ef17dc"
        }
      }
    },
    {
      "fullUrl": "urn:uuid:3ce30cf1-b02d-4131-a494-15d4c64c1061",
      "resource": {
        "resourceType": "Observation",
        "id": "3ce30cf1-b02d-4131-a494-15d4c64c1061",
        "meta": {
          "profile": [
            "http://hl7.eu/fhir/laboratory/StructureDefinition/Observation-resultslab-eu-lab"
          ]
        },
        "performer": [
          {
            "display": "The Central European Lab"
          }
        ],
        "category": [
          {
            "coding": [
              {
                "system": "http://terminology.hl7.org/CodeSystem/observation-category",
                "code": "laboratory"
              }
            ]
          }
        ],
        "code": {
          "coding": [
            {
              "code": "2339-0",
              "system": "http://loinc.org",
              "display": "Glucose [Mass/volume] in Blood"
            }
          ],
          "text": "Glucose [Mass/volume] in Blood"
        },
        "valueQuantity": {
          "system": "http://unitsofmeasure.org",
          "value": 111.4,
          "unit": "mg/dL",
          "code": "mg/dL"
        },
        "referenceRange": [
          {
            "low": {
              "value": 70,
              "code": "mg/dL",
              "system": "http://unitsofmeasure.org"
            }
          },
          {
            "high": {
              "value": 140,
              "code": "mg/dL",
              "system": "http://unitsofmeasure.org"
            }
          }
        ],
        "text": {
          "status": "generated",
          "div": "<div xmlns=\"http://www.w3.org/1999/xhtml\"><table class=\"hl7__eu__lab__report\"><tr><th>Test</th><th>13-Jul-2018</th><th>Reference&#xA0;Range</th><th>Unit</th></tr><tr><td>Glucose [Mass/volume] in Blood</td><td>111.4</td><td>70 - 140</td><td></td><td>mg/dL</td></tr></table></div>"
        },
        "status": "final",
        "subject": {
          "reference": "urn:uuid:48acaf55-1a1a-4f42-8a03-fb6400c4c371",
          "display": "Martine Couturier"
        },
        "effectiveDateTime": "2018-07-13T20:13:15Z",
        "specimen": {
          "reference": "urn:uuid:f29bb783-19bf-4408-93b9-7536c3ef17dc"
        }
      }
    },
    {
      "fullUrl": "urn:uuid:63f9e326-de17-4ca5-8f45-6f3c22cd73ae",
      "resource": {
        "resourceType": "Observation",
        "id": "63f9e326-de17-4ca5-8f45-6f3c22cd73ae",
        "meta": {
          "profile": [
            "http://hl7.eu/fhir/laboratory/StructureDefinition/Observation-resultslab-eu-lab"
          ]
        },
        "performer": [
          {
            "display": "The Central European Lab"
          }
        ],
        "category": [
          {
            "coding": [
              {
                "system": "http://terminology.hl7.org/CodeSystem/observation-category",
                "code": "laboratory"
              }
            ]
          }
        ],
        "code": {
          "coding": [
            {
              "code": "6299-2",
              "system": "http://loinc.org",
              "display": "Urea nitrogen [Mass/volume] in Blood"
            }
          ],
          "text": "Urea nitrogen [Mass/volume] in Blood"
        },
        "valueQuantity": {
          "system": "http://unitsofmeasure.org",
          "value": 12,
          "unit": "mg/dL",
          "code": "mg/dL"
        },
        "referenceRange": [
          {
            "low": {
              "value": 7,
              "code": "mg/dL",
              "system": "http://unitsofmeasure.org"
            }
          },
          {
            "high": {
              "value": 25,
              "code": "mg/dL",
              "system": "http://unitsofmeasure.org"
            }
          }
        ],
        "text": {
          "status": "generated",
          "div": "<div xmlns=\"http://www.w3.org/1999/xhtml\"><table class=\"hl7__eu__lab__report\"><tr><th>Test</th><th>13-Jul-2018</th><th>Reference&#xA0;Range</th><th>Unit</th></tr><tr><td>Urea nitrogen [Mass/volume] in Blood</td><td>12.0</td><td>7 - 25</td><td></td><td>mg/dL</td></tr></table></div>"
        },
        "status": "final",
        "subject": {
          "reference": "urn:uuid:48acaf55-1a1a-4f42-8a03-fb6400c4c371",
          "display": "Martine Couturier"
        },
        "effectiveDateTime": "2018-07-13T20:13:15Z",
        "specimen": {
          "reference": "urn:uuid:f29bb783-19bf-4408-93b9-7536c3ef17dc"
        }
      }
    },
    {
      "fullUrl": "urn:uuid:3f38e3ec-610c-422b-ac6d-5ee944935b32",
      "resource": {
        "resourceType": "Observation",
        "id": "3f38e3ec-610c-422b-ac6d-5ee944935b32",
        "meta": {
          "profile": [
            "http://hl7.eu/fhir/laboratory/StructureDefinition/Observation-resultslab-eu-lab"
          ]
        },
        "performer": [
          {
            "display": "The Central European Lab"
          }
        ],
        "category": [
          {
            "coding": [
              {
                "system": "http://terminology.hl7.org/CodeSystem/observation-category",
                "code": "laboratory"
              }
            ]
          }
        ],
        "code": {
          "coding": [
            {
              "code": "38483-4",
              "system": "http://loinc.org",
              "display": "Creatinine [Mass/volume] in Blood"
            }
          ],
          "text": "Creatinine [Mass/volume] in Blood"
        },
        "valueQuantity": {
          "system": "http://unitsofmeasure.org",
          "value": 0.7,
          "unit": "mg/dL",
          "code": "mg/dL"
        },
        "referenceRange": [
          {
            "low": {
              "value": 0.6,
              "code": "mg/dL",
              "system": "http://unitsofmeasure.org"
            }
          },
          {
            "high": {
              "value": 1.1,
              "code": "mg/dL",
              "system": "http://unitsofmeasure.org"
            }
          }
        ],
        "text": {
          "status": "generated",
          "div": "<div xmlns=\"http://www.w3.org/1999/xhtml\"><table class=\"hl7__eu__lab__report\"><tr><th>Test</th><th>13-Jul-2018</th><th>Reference&#xA0;Range</th><th>Unit</th></tr><tr><td>Creatinine [Mass/volume] in Blood</td><td>0.7</td><td>0.6 - 1.1</td><td></td><td>mg/dL</td></tr></table></div>"
        },
        "status": "final",
        "subject": {
          "reference": "urn:uuid:48acaf55-1a1a-4f42-8a03-fb6400c4c371",
          "display": "Martine Couturier"
        },
        "effectiveDateTime": "2018-07-13T20:13:15Z",
        "specimen": {
          "reference": "urn:uuid:f29bb783-19bf-4408-93b9-7536c3ef17dc"
        }
      }
    },
    {
      "fullUrl": "urn:uuid:78cf6b9f-967b-48d5-868c-5dff5be387e2",
      "resource": {
        "resourceType": "Observation",
        "id": "78cf6b9f-967b-48d5-868c-5dff5be387e2",
        "meta": {
          "profile": [
            "http://hl7.eu/fhir/laboratory/StructureDefinition/Observation-resultslab-eu-lab"
          ]
        },
        "performer": [
          {
            "display": "The Central European Lab"
          }
        ],
        "category": [
          {
            "coding": [
              {
                "system": "http://terminology.hl7.org/CodeSystem/observation-category",
                "code": "laboratory"
              }
            ]
          }
        ],
        "code": {
          "coding": [
            {
              "code": "49765-1",
              "system": "http://loinc.org",
              "display": "Calcium [Mass/volume] in Blood"
            }
          ],
          "text": "Calcium [Mass/volume] in Blood"
        },
        "valueQuantity": {
          "system": "http://unitsofmeasure.org",
          "value": 8.9,
          "unit": "mg/dL",
          "code": "mg/dL"
        },
        "referenceRange": [
          {
            "low": {
              "value": 8.5,
              "code": "mg/dL",
              "system": "http://unitsofmeasure.org"
            }
          },
          {
            "high": {
              "value": 10.4,
              "code": "mg/dL",
              "system": "http://unitsofmeasure.org"
            }
          }
        ],
        "text": {
          "status": "generated",
          "div": "<div xmlns=\"http://www.w3.org/1999/xhtml\"><table class=\"hl7__eu__lab__report\"><tr><th>Test</th><th>13-Jul-2018</th><th>Reference&#xA0;Range</th><th>Unit</th></tr><tr><td>Calcium [Mass/volume] in Blood</td><td>8.9</td><td>8.5 - 10.4</td><td></td><td>mg/dL</td></tr></table></div>"
        },
        "status": "final",
        "subject": {
          "reference": "urn:uuid:48acaf55-1a1a-4f42-8a03-fb6400c4c371",
          "display": "Martine Couturier"
        },
        "effectiveDateTime": "2018-07-13T20:13:15Z",
        "specimen": {
          "reference": "urn:uuid:f29bb783-19bf-4408-93b9-7536c3ef17dc"
        }
      }
    },
    {
      "fullUrl": "urn:uuid:2a1b60e6-3301-4b68-9b68-e442011a796a",
      "resource": {
        "resourceType": "Observation",
        "id": "2a1b60e6-3301-4b68-9b68-e442011a796a",
        "meta": {
          "profile": [
            "http://hl7.eu/fhir/laboratory/StructureDefinition/Observation-resultslab-eu-lab"
          ]
        },
        "performer": [
          {
            "display": "The Central European Lab"
          }
        ],
        "category": [
          {
            "coding": [
              {
                "system": "http://terminology.hl7.org/CodeSystem/observation-category",
                "code": "laboratory"
              }
            ]
          }
        ],
        "code": {
          "coding": [
            {
              "code": "2947-0",
              "system": "http://loinc.org",
              "display": "Sodium [Moles/volume] in Blood"
            }
          ],
          "text": "Sodium [Moles/volume] in Blood"
        },
        "valueQuantity": {
          "system": "http://unitsofmeasure.org",
          "value": 143.7,
          "unit": "mmol/L",
          "code": "mmol/L"
        },
        "referenceRange": [
          {
            "low": {
              "value": 135,
              "code": "mmol/L",
              "system": "http://unitsofmeasure.org"
            }
          },
          {
            "high": {
              "value": 145,
              "code": "mmol/L",
              "system": "http://unitsofmeasure.org"
            }
          }
        ],
        "text": {
          "status": "generated",
          "div": "<div xmlns=\"http://www.w3.org/1999/xhtml\"><table class=\"hl7__eu__lab__report\"><tr><th>Test</th><th>13-Jul-2018</th><th>Reference&#xA0;Range</th><th>Unit</th></tr><tr><td>Sodium [Moles/volume] in Blood</td><td>143.7</td><td>135 - 145</td><td></td><td>mmol/L</td></tr></table></div>"
        },
        "status": "final",
        "subject": {
          "reference": "urn:uuid:48acaf55-1a1a-4f42-8a03-fb6400c4c371",
          "display": "Martine Couturier"
        },
        "effectiveDateTime": "2018-07-13T20:13:15Z",
        "specimen": {
          "reference": "urn:uuid:f29bb783-19bf-4408-93b9-7536c3ef17dc"
        }
      }
    },
    {
      "fullUrl": "urn:uuid:b3ae1ee2-8c2e-47e6-bd98-377897ee0ac6",
      "resource": {
        "resourceType": "Observation",
        "id": "b3ae1ee2-8c2e-47e6-bd98-377897ee0ac6",
        "meta": {
          "profile": [
            "http://hl7.eu/fhir/laboratory/StructureDefinition/Observation-resultslab-eu-lab"
          ]
        },
        "performer": [
          {
            "display": "The Central European Lab"
          }
        ],
        "category": [
          {
            "coding": [
              {
                "system": "http://terminology.hl7.org/CodeSystem/observation-category",
                "code": "laboratory"
              }
            ]
          }
        ],
        "code": {
          "coding": [
            {
              "code": "6298-4",
              "system": "http://loinc.org",
              "display": "Potassium [Moles/volume] in Blood"
            }
          ],
          "text": "Potassium [Moles/volume] in Blood"
        },
        "valueQuantity": {
          "system": "http://unitsofmeasure.org",
          "value": 5,
          "unit": "mmol/L",
          "code": "mmol/L"
        },
        "referenceRange": [
          {
            "low": {
              "value": 3.5,
              "code": "mmol/L",
              "system": "http://unitsofmeasure.org"
            }
          },
          {
            "high": {
              "value": 5.1,
              "code": "mmol/L",
              "system": "http://unitsofmeasure.org"
            }
          }
        ],
        "text": {
          "status": "generated",
          "div": "<div xmlns=\"http://www.w3.org/1999/xhtml\"><table class=\"hl7__eu__lab__report\"><tr><th>Test</th><th>13-Jul-2018</th><th>Reference&#xA0;Range</th><th>Unit</th></tr><tr><td>Potassium [Moles/volume] in Blood</td><td>5.0</td><td>3.5 - 5.1</td><td></td><td>mmol/L</td></tr></table></div>"
        },
        "status": "final",
        "subject": {
          "reference": "urn:uuid:48acaf55-1a1a-4f42-8a03-fb6400c4c371",
          "display": "Martine Couturier"
        },
        "effectiveDateTime": "2018-07-13T20:13:15Z",
        "specimen": {
          "reference": "urn:uuid:f29bb783-19bf-4408-93b9-7536c3ef17dc"
        }
      }
    },
    {
      "fullUrl": "urn:uuid:a9082afb-203a-4200-a80d-1d5f8e71def5",
      "resource": {
        "resourceType": "Observation",
        "id": "a9082afb-203a-4200-a80d-1d5f8e71def5",
        "meta": {
          "profile": [
            "http://hl7.eu/fhir/laboratory/StructureDefinition/Observation-resultslab-eu-lab"
          ]
        },
        "performer": [
          {
            "display": "The Central European Lab"
          }
        ],
        "category": [
          {
            "coding": [
              {
                "system": "http://terminology.hl7.org/CodeSystem/observation-category",
                "code": "laboratory"
              }
            ]
          }
        ],
        "code": {
          "coding": [
            {
              "code": "2069-3",
              "system": "http://loinc.org",
              "display": "Chloride [Moles/volume] in Blood"
            }
          ],
          "text": "Chloride [Moles/volume] in Blood"
        },
        "valueQuantity": {
          "system": "http://unitsofmeasure.org",
          "value": 101.1,
          "unit": "mmol/L",
          "code": "mmol/L"
        },
        "referenceRange": [
          {
            "low": {
              "value": 98,
              "code": "mmol/L",
              "system": "http://unitsofmeasure.org"
            }
          },
          {
            "high": {
              "value": 107,
              "code": "mmol/L",
              "system": "http://unitsofmeasure.org"
            }
          }
        ],
        "text": {
          "status": "generated",
          "div": "<div xmlns=\"http://www.w3.org/1999/xhtml\"><table class=\"hl7__eu__lab__report\"><tr><th>Test</th><th>13-Jul-2018</th><th>Reference&#xA0;Range</th><th>Unit</th></tr><tr><td>Chloride [Moles/volume] in Blood</td><td>101.1</td><td>98 - 107</td><td></td><td>mmol/L</td></tr></table></div>"
        },
        "status": "final",
        "subject": {
          "reference": "urn:uuid:48acaf55-1a1a-4f42-8a03-fb6400c4c371",
          "display": "Martine Couturier"
        },
        "effectiveDateTime": "2018-07-13T20:13:15Z",
        "specimen": {
          "reference": "urn:uuid:f29bb783-19bf-4408-93b9-7536c3ef17dc"
        }
      }
    },
    {
      "fullUrl": "urn:uuid:d8b2c397-f816-447c-9edb-be53968b8acf",
      "resource": {
        "resourceType": "Observation",
        "id": "d8b2c397-f816-447c-9edb-be53968b8acf",
        "meta": {
          "profile": [
            "http://hl7.eu/fhir/laboratory/StructureDefinition/Observation-resultslab-eu-lab"
          ]
        },
        "performer": [
          {
            "display": "The Central European Lab"
          }
        ],
        "category": [
          {
            "coding": [
              {
                "system": "http://terminology.hl7.org/CodeSystem/observation-category",
                "code": "laboratory"
              }
            ]
          }
        ],
        "code": {
          "coding": [
            {
              "code": "20565-8",
              "system": "http://loinc.org",
              "display": "Carbon dioxide, total [Moles/volume] in Blood"
            }
          ],
          "text": "Carbon dioxide, total [Moles/volume] in Blood"
        },
        "valueQuantity": {
          "system": "http://unitsofmeasure.org",
          "value": 22.1,
          "unit": "mmol/L",
          "code": "mmol/L"
        },
        "referenceRange": [
          {
            "low": {
              "value": 22,
              "code": "mmol/L",
              "system": "http://unitsofmeasure.org"
            }
          },
          {
            "high": {
              "value": 29,
              "code": "mmol/L",
              "system": "http://unitsofmeasure.org"
            }
          }
        ],
        "text": {
          "status": "generated",
          "div": "<div xmlns=\"http://www.w3.org/1999/xhtml\"><table class=\"hl7__eu__lab__report\"><tr><th>Test</th><th>13-Jul-2018</th><th>Reference&#xA0;Range</th><th>Unit</th></tr><tr><td>Carbon dioxide, total [Moles/volume] in Blood</td><td>22.1</td><td>22 - 29</td><td></td><td>mmol/L</td></tr></table></div>"
        },
        "status": "final",
        "subject": {
          "reference": "urn:uuid:48acaf55-1a1a-4f42-8a03-fb6400c4c371",
          "display": "Martine Couturier"
        },
        "effectiveDateTime": "2018-07-13T20:13:15Z",
        "specimen": {
          "reference": "urn:uuid:f29bb783-19bf-4408-93b9-7536c3ef17dc"
        }
      }
    },
    {
      "fullUrl": "urn:uuid:d16cce18-cc57-4755-a0c4-233a7db66ee4",
      "resource": {
        "resourceType": "Observation",
        "id": "d16cce18-cc57-4755-a0c4-233a7db66ee4",
        "meta": {
          "profile": [
            "http://hl7.eu/fhir/laboratory/StructureDefinition/Observation-resultslab-eu-lab"
          ]
        },
        "performer": [
          {
            "display": "The Central European Lab"
          }
        ],
        "category": [
          {
            "coding": [
              {
                "system": "http://terminology.hl7.org/CodeSystem/observation-category",
                "code": "laboratory"
              }
            ]
          }
        ],
        "code": {
          "coding": [
            {
              "code": "2093-3",
              "system": "http://loinc.org",
              "display": "Cholesterol [Mass/volume] in Serum or Plasma"
            }
          ],
          "text": "Cholesterol [Mass/volume] in Serum or Plasma"
        },
        "valueQuantity": {
          "system": "http://unitsofmeasure.org",
          "value": 207.3,
          "unit": "mg/dL",
          "code": "mg/dL"
        },
        "referenceRange": [
          {
            "low": {
              "value": 125,
              "code": "mg/dL",
              "system": "http://unitsofmeasure.org"
            }
          },
          {
            "high": {
              "value": 200,
              "code": "mg/dL",
              "system": "http://unitsofmeasure.org"
            }
          }
        ],
        "interpretation": [
          {
            "coding": [
              {
                "code": "H",
                "system": "http://terminology.hl7.org/CodeSystem/v3-ObservationInterpretation",
                "display": "High"
              }
            ]
          }
        ],
        "text": {
          "status": "generated",
          "div": "<div xmlns=\"http://www.w3.org/1999/xhtml\"><table class=\"hl7__eu__lab__report\"><tr><th>Test</th><th>13-Jul-2018</th><th>Reference&#xA0;Range</th><th>Unit</th></tr><tr><td>Cholesterol [Mass/volume] in Serum or Plasma</td><td>207.3</td><td>125 - 200</td><td>H</td><td>mg/dL</td></tr></table></div>"
        },
        "status": "final",
        "subject": {
          "reference": "urn:uuid:48acaf55-1a1a-4f42-8a03-fb6400c4c371",
          "display": "Martine Couturier"
        },
        "effectiveDateTime": "2018-07-13T20:13:15Z",
        "specimen": {
          "reference": "urn:uuid:9c95b225-306a-435b-aebd-f3faec38aefc"
        }
      }
    },
    {
      "fullUrl": "urn:uuid:f488d1e7-ec71-44ca-ab6f-4b94e9b109a0",
      "resource": {
        "resourceType": "Observation",
        "id": "f488d1e7-ec71-44ca-ab6f-4b94e9b109a0",
        "meta": {
          "profile": [
            "http://hl7.eu/fhir/laboratory/StructureDefinition/Observation-resultslab-eu-lab"
          ]
        },
        "performer": [
          {
            "display": "The Central European Lab"
          }
        ],
        "category": [
          {
            "coding": [
              {
                "system": "http://terminology.hl7.org/CodeSystem/observation-category",
                "code": "laboratory"
              }
            ]
          }
        ],
        "code": {
          "coding": [
            {
              "code": "2571-8",
              "system": "http://loinc.org",
              "display": "Triglyceride [Mass/volume] in Serum or Plasma"
            }
          ],
          "text": "Triglyceride [Mass/volume] in Serum or Plasma"
        },
        "valueQuantity": {
          "system": "http://unitsofmeasure.org",
          "value": 189.6,
          "unit": "mg/dL",
          "code": "mg/dL"
        },
        "referenceRange": [
          {
            "low": {
              "value": 35,
              "code": "mg/dL",
              "system": "http://unitsofmeasure.org"
            }
          },
          {
            "high": {
              "value": 150,
              "code": "mg/dL",
              "system": "http://unitsofmeasure.org"
            }
          }
        ],
        "interpretation": [
          {
            "coding": [
              {
                "code": "H",
                "system": "http://terminology.hl7.org/CodeSystem/v3-ObservationInterpretation",
                "display": "High"
              }
            ]
          }
        ],
        "text": {
          "status": "generated",
          "div": "<div xmlns=\"http://www.w3.org/1999/xhtml\"><table class=\"hl7__eu__lab__report\"><tr><th>Test</th><th>13-Jul-2018</th><th>Reference&#xA0;Range</th><th>Unit</th></tr><tr><td>Triglyceride [Mass/volume] in Serum or Plasma</td><td>189.6</td><td>35 - 150</td><td>H</td><td>mg/dL</td></tr></table></div>"
        },
        "status": "final",
        "subject": {
          "reference": "urn:uuid:48acaf55-1a1a-4f42-8a03-fb6400c4c371",
          "display": "Martine Couturier"
        },
        "effectiveDateTime": "2018-07-13T20:13:15Z",
        "specimen": {
          "reference": "urn:uuid:9c95b225-306a-435b-aebd-f3faec38aefc"
        }
      }
    },
    {
      "fullUrl": "urn:uuid:98178d40-a61a-4a38-b2bb-5271943a9327",
      "resource": {
        "resourceType": "Observation",
        "id": "98178d40-a61a-4a38-b2bb-5271943a9327",
        "meta": {
          "profile": [
            "http://hl7.eu/fhir/laboratory/StructureDefinition/Observation-resultslab-eu-lab"
          ]
        },
        "performer": [
          {
            "display": "The Central European Lab"
          }
        ],
        "category": [
          {
            "coding": [
              {
                "system": "http://terminology.hl7.org/CodeSystem/observation-category",
                "code": "laboratory"
              }
            ]
          }
        ],
        "code": {
          "coding": [
            {
              "code": "18262-6",
              "system": "http://loinc.org",
              "display": "Cholesterol in LDL [Mass/volume] in Serum or Plasma by Direct assay"
            }
          ],
          "text": "Cholesterol in LDL [Mass/volume] in Serum or Plasma by Direct assay"
        },
        "valueQuantity": {
          "system": "http://unitsofmeasure.org",
          "value": 111.8,
          "unit": "mg/dL",
          "code": "mg/dL"
        },
        "referenceRange": [
          {
            "low": {
              "value": 0,
              "code": "mg/dL",
              "system": "http://unitsofmeasure.org"
            }
          },
          {
            "high": {
              "value": 130,
              "code": "mg/dL",
              "system": "http://unitsofmeasure.org"
            }
          }
        ],
        "text": {
          "status": "generated",
          "div": "<div xmlns=\"http://www.w3.org/1999/xhtml\"><table class=\"hl7__eu__lab__report\"><tr><th>Test</th><th>13-Jul-2018</th><th>Reference&#xA0;Range</th><th>Unit</th></tr><tr><td>Cholesterol in LDL [Mass/volume] in Serum or Plasma by Direct assay</td><td>111.8</td><td>0 - 130</td><td></td><td>mg/dL</td></tr></table></div>"
        },
        "status": "final",
        "subject": {
          "reference": "urn:uuid:48acaf55-1a1a-4f42-8a03-fb6400c4c371",
          "display": "Martine Couturier"
        },
        "effectiveDateTime": "2018-07-13T20:13:15Z",
        "specimen": {
          "reference": "urn:uuid:9c95b225-306a-435b-aebd-f3faec38aefc"
        }
      }
    },
    {
      "fullUrl": "urn:uuid:166fba6e-e70d-4a23-934a-559074b6bcd8",
      "resource": {
        "resourceType": "Observation",
        "id": "166fba6e-e70d-4a23-934a-559074b6bcd8",
        "meta": {
          "profile": [
            "http://hl7.eu/fhir/laboratory/StructureDefinition/Observation-resultslab-eu-lab"
          ]
        },
        "performer": [
          {
            "display": "The Central European Lab"
          }
        ],
        "category": [
          {
            "coding": [
              {
                "system": "http://terminology.hl7.org/CodeSystem/observation-category",
                "code": "laboratory"
              }
            ]
          }
        ],
        "code": {
          "coding": [
            {
              "code": "2085-9",
              "system": "http://loinc.org",
              "display": "Cholesterol in HDL [Mass/volume] in Serum or Plasma"
            }
          ],
          "text": "Cholesterol in HDL [Mass/volume] in Serum or Plasma"
        },
        "valueQuantity": {
          "system": "http://unitsofmeasure.org",
          "value": 57.7,
          "unit": "mg/dL",
          "code": "mg/dL"
        },
        "referenceRange": [
          {
            "low": {
              "value": 40,
              "code": "mg/dL",
              "system": "http://unitsofmeasure.org"
            }
          },
          {
            "high": {
              "value": 100,
              "code": "mg/dL",
              "system": "http://unitsofmeasure.org"
            }
          }
        ],
        "text": {
          "status": "generated",
          "div": "<div xmlns=\"http://www.w3.org/1999/xhtml\"><table class=\"hl7__eu__lab__report\"><tr><th>Test</th><th>13-Jul-2018</th><th>Reference&#xA0;Range</th><th>Unit</th></tr><tr><td>Cholesterol in HDL [Mass/volume] in Serum or Plasma</td><td>57.7</td><td>40 - 100</td><td></td><td>mg/dL</td></tr></table></div>"
        },
        "status": "final",
        "subject": {
          "reference": "urn:uuid:48acaf55-1a1a-4f42-8a03-fb6400c4c371",
          "display": "Martine Couturier"
        },
        "effectiveDateTime": "2018-07-13T20:13:15Z",
        "specimen": {
          "reference": "urn:uuid:9c95b225-306a-435b-aebd-f3faec38aefc"
        }
      }
    },
    {
      "fullUrl": "urn:uuid:90dcbedd-123e-4274-9154-81f9a3ea0d06",
      "resource": {
        "resourceType": "Observation",
        "id": "90dcbedd-123e-4274-9154-81f9a3ea0d06",
        "meta": {
          "profile": [
            "http://hl7.eu/fhir/laboratory/StructureDefinition/Observation-resultslab-eu-lab"
          ]
        },
        "performer": [
          {
            "display": "The Central European Lab"
          }
        ],
        "category": [
          {
            "coding": [
              {
                "system": "http://terminology.hl7.org/CodeSystem/observation-category",
                "code": "laboratory"
              }
            ]
          }
        ],
        "code": {
          "coding": [
            {
              "code": "14959-1",
              "system": "http://loinc.org",
              "display": "Microalbumin/Creatinine [Mass Ratio] in Urine"
            }
          ],
          "text": "Microalbumin/Creatinine [Mass Ratio] in Urine"
        },
        "valueQuantity": {
          "system": "http://unitsofmeasure.org",
          "value": 5.7,
          "unit": "mg/g",
          "code": "mg/g"
        },
        "referenceRange": [
          {
            "low": {
              "value": 0,
              "code": "mg/g",
              "system": "http://unitsofmeasure.org"
            }
          },
          {
            "high": {
              "value": 30,
              "code": "mg/g",
              "system": "http://unitsofmeasure.org"
            }
          }
        ],
        "text": {
          "status": "generated",
          "div": "<div xmlns=\"http://www.w3.org/1999/xhtml\"><table class=\"hl7__eu__lab__report\"><tr><th>Test</th><th>13-Jul-2018</th><th>Reference&#xA0;Range</th><th>Unit</th></tr><tr><td>Microalbumin/Creatinine [Mass Ratio] in Urine</td><td>5.7</td><td>0 - 30</td><td></td><td>mg/g</td></tr></table></div>"
        },
        "status": "final",
        "subject": {
          "reference": "urn:uuid:48acaf55-1a1a-4f42-8a03-fb6400c4c371",
          "display": "Martine Couturier"
        },
        "effectiveDateTime": "2018-07-13T20:13:15Z",
        "specimen": {
          "reference": "urn:uuid:6f2471a8-48e6-4b9a-af73-ee45aa5b1acf"
        }
      }
    },
    {
      "fullUrl": "urn:uuid:cc41fdb6-2945-4765-8521-60a299975780",
      "resource": {
        "resourceType": "Device",
        "id": "cc41fdb6-2945-4765-8521-60a299975780",
        "deviceName": [
          {
            "name": "SYNDERAI Synthetic Generator",
            "type": "manufacturer-name"
          }
        ],
        "version": [
          {
            "value": "5.0"
          }
        ],
        "text": {
          "status": "generated",
          "div": "<div xmlns=\"http://www.w3.org/1999/xhtml\">SYNDERAI Synthetic Generator v5.0</div>"
        },
        "status": "active\"",
        "distinctIdentifier": "synderai-generator-50",
        "manufacturer": "SYNDERAI Project"
      }
    },
    {
      "fullUrl": "urn:uuid:72ca3e28-203a-4922-8cc9-2b9bef685929",
      "resource": {
        "resourceType": "Provenance",
        "id": "72ca3e28-203a-4922-8cc9-2b9bef685929",
        "target": [
          {
            "reference": "Patient/48acaf55-1a1a-4f42-8a03-fb6400c4c371"
          },
          {
            "reference": "Bundle/25716b13-208a-4bf3-8935-c38787a0ae64"
          },
          {
            "reference": "Composition/c8e4d42f-641c-42f2-b6d5-a93416d83c7b"
          },
          {
            "reference": "PractitionerRole/f60297d1-f13e-4cb8-80e3-261238430af4"
          },
          {
            "reference": "Practitioner/90c8c123-2e71-4bd7-8ef0-865941a9e161"
          },
          {
            "reference": "PractitionerRole/03bafcc3-ae94-411c-84b2-69709d29b31b"
          },
          {
            "reference": "Organization/f015efdc-48a9-4154-a1e4-818de491220b"
          }
        ],
        "activity": {
          "text": "Synthetic Example Data Generation"
        },
        "policy": [
          "https://synderai.net/synderai-synthetic-data-policy"
        ],
        "agent": [
          {
            "type": {
              "text": "author"
            },
            "who": {
              "reference": "Device/cc41fdb6-2945-4765-8521-60a299975780"
            }
          }
        ],
        "reason": [
          {
            "text": "Interoperability Testing and Training (non-clinical use)"
          }
        ],
        "text": {
          "status": "generated",
          "div": "<div xmlns=\"http://www.w3.org/1999/xhtml\">Provenance for SYNDERAI Synthetic Example Data Resource</div>"
        },
        "recorded": "2018-07-13T22:13:15Z"
      }
    },
    {
      "fullUrl": "urn:uuid:f60297d1-f13e-4cb8-80e3-261238430af4",
      "resource": {
        "resourceType": "PractitionerRole",
        "id": "f60297d1-f13e-4cb8-80e3-261238430af4",
        "meta": {
          "profile": [
            "http://hl7.eu/fhir/base/StructureDefinition/practitionerRole-eu"
          ]
        },
        "text": {
          "status": "generated",
          "div": "<div xmlns=\"http://www.w3.org/1999/xhtml\">Laboratory Role Id: f60297d1-f13e-4cb8-80e3-261238430af4</div>"
        },
        "practitioner": {
          "reference": "urn:uuid:90c8c123-2e71-4bd7-8ef0-865941a9e161"
        }
      }
    },
    {
      "fullUrl": "urn:uuid:90c8c123-2e71-4bd7-8ef0-865941a9e161",
      "resource": {
        "resourceType": "Practitioner",
        "id": "90c8c123-2e71-4bd7-8ef0-865941a9e161",
        "meta": {
          "profile": [
            "http://hl7.eu/fhir/base/StructureDefinition/practitioner-eu"
          ]
        },
        "identifier": [
          {
            "assigner": {
              "display": "HL7 Europe"
            },
            "system": "urn:oid:2.16.840.1.113883.2.51.999",
            "value": "28f80fdf-e29a-432a-b803-9f4a32963b87"
          }
        ],
        "name": [
          {
            "prefix": [
              "dr"
            ],
            "given": [
              "Ex"
            ],
            "family": "Ample"
          }
        ],
        "address": [
          {
            "line": [
              "Laboratoire Central Européenne",
              "Boulevard du Jardin Botanique 32"
            ],
            "postalCode": "1000",
            "city": "Brussels",
            "country": "Belgium"
          }
        ],
        "text": {
          "status": "generated",
          "div": "<div xmlns=\"http://www.w3.org/1999/xhtml\">Laboratory: Laboratoire Central Européenne, 1000 Brussels, Belgium</div>"
        }
      }
    }
  ],
  "type": "document",
  "timestamp": "2018-07-13T22:13:15Z"
}
