{
  "resourceType": "Bundle",
  "id": "cd684c18-6952-4fe4-a8a7-5291bb1fc531",
  "meta": {
    "profile": [
      "http://hl7.eu/fhir/laboratory/StructureDefinition/Bundle-eu-lab"
    ]
  },
  "identifier": {
    "assigner": {
      "display": "HL7 Europe"
    },
    "system": "urn:oid:2.16.840.1.113883.2.51.999",
    "value": "b7f5fcef-300d-4430-a5c0-9e5dbca914a8"
  },
  "entry": [
    {
      "fullUrl": "urn:uuid:6dfd3bda-9ee8-422b-af59-17feff2f5471",
      "resource": {
        "resourceType": "Composition",
        "id": "6dfd3bda-9ee8-422b-af59-17feff2f5471",
        "meta": {
          "profile": [
            "http://hl7.eu/fhir/laboratory/StructureDefinition/Composition-eu-lab"
          ]
        },
        "identifier": {
          "assigner": {
            "display": "HL7 Europe"
          },
          "system": "urn:oid:2.16.840.1.113883.2.51.999",
          "value": "47f69ab0-9f10-4153-952d-554d21b0f4ca"
        },
        "author": [
          {
            "reference": "urn:uuid:9d352ba8-ad8a-4e4f-a321-b94a9925dbef"
          }
        ],
        "category": [
          {
            "coding": [
              {
                "code": "26436-6",
                "system": "http://loinc.org",
                "display": "Laboratory studies (set)"
              }
            ]
          }
        ],
        "type": {
          "coding": [
            {
              "code": "11502-2",
              "system": "http://loinc.org",
              "display": "Laboratory report"
            }
          ],
          "text": "Laboratory Report"
        },
        "section": [
          {
            "code": {
              "coding": [
                {
                  "code": "26436-6",
                  "system": "http://loinc.org",
                  "display": "Laboratory studies (set)"
                }
              ],
              "text": "Laboratory studies"
            },
            "section": [
              {
                "code": {
                  "coding": [
                    {
                      "code": "$18719-5",
                      "system": "http://loinc.org",
                      "display": "Chemistry studies (set)"
                    }
                  ],
                  "text": "Chemistry"
                },
                "entry": [
                  {
                    "reference": "urn:uuid:86bb0957-4ae8-4b8a-80ee-2e5d4ae73b9a"
                  },
                  {
                    "reference": "urn:uuid:121b6b94-343f-4255-8607-d0e815784225"
                  },
                  {
                    "reference": "urn:uuid:5cea8d74-8290-44b8-ad97-74349d287eb6"
                  },
                  {
                    "reference": "urn:uuid:a776855b-0705-4fc5-8ef7-648aea48fd6c"
                  },
                  {
                    "reference": "urn:uuid:abdab8f2-4c33-47c6-98db-6be77785c1a2"
                  },
                  {
                    "reference": "urn:uuid:936f381a-0c0a-44ed-b538-72c6d2994d54"
                  },
                  {
                    "reference": "urn:uuid:a17638d8-7fa2-4052-908d-1da277545752"
                  },
                  {
                    "reference": "urn:uuid:d54742b9-d25f-4865-b679-60d20796f33d"
                  },
                  {
                    "reference": "urn:uuid:29511cb6-ed9d-4554-a5f9-735b1b7c8308"
                  },
                  {
                    "reference": "urn:uuid:d341f56d-41b3-481f-8c48-596aadebb90e"
                  },
                  {
                    "reference": "urn:uuid:6a388420-2743-459c-93c8-39ac28c03fb2"
                  },
                  {
                    "reference": "urn:uuid:85bab8e8-fb1a-47ff-aee4-d303c09f5a21"
                  },
                  {
                    "reference": "urn:uuid:5c2aacdb-2d1c-4e73-a561-ff8e9efbc2ae"
                  }
                ],
                "text": {
                  "status": "generated",
                  "div": "<div xmlns=\"http://www.w3.org/1999/xhtml\"><h3>Chemistry</h3><table class=\"hl7__eu__lab__report\"><thead><tr><th>Test</th><th>03-MAR-2017</th><th>Reference&#xA0;Range</th><th>Unit</th></tr></thead><tbody><tr><td>Hemoglobin A1c/Hemoglobin.total in Blood</td><td><strong>6.3 H</strong></td><td>4.8 - 5.7</td><td>%</td></tr><tr><td>Glucose [Mass/volume] in Blood</td><td>89.9</td><td>70 - 140</td><td>mg/dL</td></tr><tr><td>Urea nitrogen [Mass/volume] in Blood</td><td>7.3</td><td>7 - 25</td><td>mg/dL</td></tr><tr><td>Creatinine [Mass/volume] in Blood</td><td>1.1</td><td>0.6 - 1.3</td><td>mg/dL</td></tr><tr><td>Calcium [Mass/volume] in Blood</td><td>10.2</td><td>8.5 - 10.5</td><td>mg/dL</td></tr><tr><td>Sodium [Moles/volume] in Blood</td><td>140.4</td><td>135 - 145</td><td>mmol/L</td></tr><tr><td>Potassium [Moles/volume] in Blood</td><td>3.7</td><td>3.5 - 5.1</td><td>mmol/L</td></tr><tr><td>Chloride [Moles/volume] in Blood</td><td>107.3</td><td>98 - 108</td><td>mmol/L</td></tr><tr><td>Carbon dioxide, total [Moles/volume] in Blood</td><td>22.8</td><td>22 - 29</td><td>mmol/L</td></tr><tr><td>Cholesterol [Mass/volume] in Serum or Plasma</td><td>158.5</td><td>125 - 200</td><td>mg/dL</td></tr><tr><td>Triglyceride [Mass/volume] in Serum or Plasma</td><td>100.3</td><td>35 - 150</td><td>mg/dL</td></tr><tr><td>Cholesterol in LDL [Mass/volume] in Serum or Plasma by Direct assay</td><td>85.3</td><td>0 - 130</td><td>mg/dL</td></tr><tr><td>Cholesterol in HDL [Mass/volume] in Serum or Plasma</td><td>53.1</td><td>40 - 60</td><td>mg/dL</td></tr></tbody></table></div>"
                },
                "title": "Chemistry"
              }
            ],
            "title": "Laboratory Report"
          },
          {
            "text": {
              "status": "generated",
              "div": "<div xmlns=\"http://www.w3.org/1999/xhtml\"><h3>Annotation</h3><table class=\"hl7__eu__lab__report\"><tr><th>Conclusion and Recommendations based on this report and previous findings known to us</th></tr><tr><td>All parameters are within normal limits except for a mildly elevated HbA1c (6.3%), indicating impaired glucose metabolism or possible prediabetes. Renal function, electrolytes, and lipid profile are unremarkable. Recommend clinical correlation for glycemic status and consideration of lifestyle modification or further evaluation for diabetes risk.</td></tr></table></div>"
            },
            "code": {
              "coding": [
                {
                  "system": "http://loinc.org",
                  "code": "48767-8",
                  "display": "Annotation comment"
                }
              ]
            },
            "title": "Annotation comment"
          }
        ],
        "status": "final",
        "subject": {
          "reference": "urn:uuid:711827ba-296f-466f-b73a-61cfa53f1add",
          "display": "Bethany Begum"
        },
        "date": "2017-03-03T12:40:40Z",
        "title": "Laboratory Report",
        "confidentiality": "N"
      }
    },
    {
      "fullUrl": "urn:uuid:b88cbb51-94ac-4486-9d1a-26e8605ec9b5",
      "resource": {
        "resourceType": "DiagnosticReport",
        "id": "b88cbb51-94ac-4486-9d1a-26e8605ec9b5",
        "meta": {
          "profile": [
            "http://hl7.eu/fhir/laboratory/StructureDefinition/DiagnosticReport-eu-lab"
          ]
        },
        "identifier": [
          {
            "assigner": {
              "display": "HL7 Europe"
            },
            "system": "urn:oid:2.16.840.1.113883.2.51.999",
            "value": "7d1b000e-d51b-4ddf-ad0e-bca0333749be"
          }
        ],
        "extension": [
          {
            "url": "http://hl7.org/fhir/5.0/StructureDefinition/extension-DiagnosticReport.composition",
            "valueReference": {
              "reference": "urn:uuid:47f69ab0-9f10-4153-952d-554d21b0f4ca"
            }
          }
        ],
        "category": [
          {
            "coding": [
              {
                "code": "26436-6",
                "system": "http://loinc.org",
                "display": "Laboratory studies (set)"
              }
            ]
          }
        ],
        "specimen": [
          {
            "reference": "urn:uuid:bace2cd0-d15d-42df-970e-b54a18eb9764"
          },
          {
            "reference": "urn:uuid:1591ab88-4458-4ba8-9e14-6f968d2e2147"
          }
        ],
        "result": [
          {
            "reference": "urn:uuid:86bb0957-4ae8-4b8a-80ee-2e5d4ae73b9a"
          },
          {
            "reference": "urn:uuid:121b6b94-343f-4255-8607-d0e815784225"
          },
          {
            "reference": "urn:uuid:5cea8d74-8290-44b8-ad97-74349d287eb6"
          },
          {
            "reference": "urn:uuid:a776855b-0705-4fc5-8ef7-648aea48fd6c"
          },
          {
            "reference": "urn:uuid:abdab8f2-4c33-47c6-98db-6be77785c1a2"
          },
          {
            "reference": "urn:uuid:936f381a-0c0a-44ed-b538-72c6d2994d54"
          },
          {
            "reference": "urn:uuid:a17638d8-7fa2-4052-908d-1da277545752"
          },
          {
            "reference": "urn:uuid:d54742b9-d25f-4865-b679-60d20796f33d"
          },
          {
            "reference": "urn:uuid:29511cb6-ed9d-4554-a5f9-735b1b7c8308"
          },
          {
            "reference": "urn:uuid:d341f56d-41b3-481f-8c48-596aadebb90e"
          },
          {
            "reference": "urn:uuid:6a388420-2743-459c-93c8-39ac28c03fb2"
          },
          {
            "reference": "urn:uuid:85bab8e8-fb1a-47ff-aee4-d303c09f5a21"
          },
          {
            "reference": "urn:uuid:5c2aacdb-2d1c-4e73-a561-ff8e9efbc2ae"
          }
        ],
        "status": "registered",
        "code": {
          "coding": [
            {
              "code": "11502-2",
              "system": "http://loinc.org",
              "display": "Laboratory report"
            }
          ]
        },
        "subject": {
          "reference": "urn:uuid:711827ba-296f-466f-b73a-61cfa53f1add",
          "display": "Bethany Begum"
        }
      }
    },
    {
      "fullUrl": "urn:uuid:711827ba-296f-466f-b73a-61cfa53f1add",
      "resource": {
        "resourceType": "Patient",
        "id": "711827ba-296f-466f-b73a-61cfa53f1add",
        "meta": {
          "security": [
            {
              "system": "http://terminology.hl7.org/CodeSystem/v3-ActReason",
              "code": "HTEST"
            },
            {
              "system": "http://terminology.hl7.org/CodeSystem/v3-ActReason",
              "code": "TRAIN"
            }
          ],
          "tag": [
            {
              "system": "https://synderai.net/fhir/CodeSystem/tags",
              "code": "synthetic",
              "display": "SYNDERAI Synthetic data"
            }
          ],
          "profile": [
            "http://hl7.eu/fhir/base/StructureDefinition/patient-eu-core"
          ]
        },
        "identifier": [
          {
            "type": {
              "coding": [
                {
                  "code": "PT",
                  "system": "http://terminology.hl7.org/CodeSystem/v2-0203"
                }
              ]
            },
            "system": "http://ec.europa.eu/identifier/eci",
            "value": "2365-936148-1"
          },
          {
            "type": {
              "coding": [
                {
                  "code": "MR",
                  "system": "http://terminology.hl7.org/CodeSystem/v2-0203"
                }
              ]
            },
            "system": "http://local.setting.eu/identifier",
            "value": "853b213b-8bf3-d90f-2018-79d547156fd7"
          }
        ],
        "name": [
          {
            "family": "Begum"
          },
          {
            "given": [
              "Bethany"
            ]
          },
          {
            "text": "Bethany Begum"
          }
        ],
        "address": [
          {
            "line": [
              "Studio 22e",
              "Joe unions"
            ],
            "use": "home",
            "type": "physical",
            "postalCode": "M1",
            "city": "Manchester",
            "country": "United Kingdom"
          }
        ],
        "telecom": [
          {
            "system": "phone",
            "value": "(029) 2018200"
          }
        ],
        "extension": [
          {
            "url": "http://hl7.org/fhir/StructureDefinition/patient-nationality",
            "valueCodeableConcept": {
              "coding": [
                {
                  "code": "GB",
                  "system": "http://hl7.org/fhir/ValueSet/country"
                }
              ]
            }
          }
        ],
        "text": {
          "status": "generated",
          "div": "<div xmlns=\"http://www.w3.org/1999/xhtml\"><table class=\"hl7__ips\"><tr><td>Bethany Begum</td><td>female</td><td>19-Jan-1976</td></tr></table></div>"
        },
        "gender": "female",
        "birthDate": "1976-01-19"
      }
    },
    {
      "fullUrl": "urn:uuid:a0f3076f-4450-4312-a0a7-48d83682c9c8",
      "resource": {
        "resourceType": "ServiceRequest",
        "id": "a0f3076f-4450-4312-a0a7-48d83682c9c8",
        "meta": {
          "profile": [
            "http://hl7.eu/fhir/laboratory/StructureDefinition/ServiceRequest-eu-lab"
          ]
        },
        "identifier": [
          {
            "system": "http://example.org",
            "value": "8cbc592b-6375-4df8-9e13-fc7993a712b6"
          }
        ],
        "specimen": [
          {
            "reference": "urn:uuid:bace2cd0-d15d-42df-970e-b54a18eb9764"
          },
          {
            "reference": "urn:uuid:1591ab88-4458-4ba8-9e14-6f968d2e2147"
          }
        ],
        "reasonCode": [
          {
            "coding": [
              {
                "code": "55822004",
                "system": "http://snomed.info/sct",
                "display": "Hyperlipidemia"
              }
            ]
          },
          {
            "coding": [
              {
                "code": "15777000",
                "system": "http://snomed.info/sct",
                "display": "Prediabetes"
              }
            ]
          },
          {
            "coding": [
              {
                "code": "40055000",
                "system": "http://snomed.info/sct",
                "display": "Chronic sinusitis"
              }
            ]
          }
        ],
        "status": "active",
        "intent": "order",
        "code": {
          "coding": [
            {
              "code": "108252007",
              "system": "http://snomed.info/sct",
              "display": "Laboratory procedure"
            }
          ]
        },
        "subject": {
          "reference": "urn:uuid:711827ba-296f-466f-b73a-61cfa53f1add",
          "display": "Bethany Begum"
        },
        "requester": {
          "reference": "urn:uuid:5497f3a5-eab5-487e-9eb0-f4aa280b8216"
        }
      }
    },
    {
      "fullUrl": "urn:uuid:5497f3a5-eab5-487e-9eb0-f4aa280b8216",
      "resource": {
        "resourceType": "PractitionerRole",
        "id": "5497f3a5-eab5-487e-9eb0-f4aa280b8216",
        "meta": {
          "profile": [
            "http://hl7.eu/fhir/base/StructureDefinition/practitionerRole-eu"
          ]
        },
        "text": {
          "status": "generated",
          "div": "<div xmlns=\"http://www.w3.org/1999/xhtml\">Provider Role Id: 5497f3a5-eab5-487e-9eb0-f4aa280b8216</div>"
        },
        "organization": {
          "reference": "urn:uuid:5520b55f-aa5d-4288-87ac-740ffb74f410"
        }
      }
    },
    {
      "fullUrl": "urn:uuid:5520b55f-aa5d-4288-87ac-740ffb74f410",
      "resource": {
        "resourceType": "Organization",
        "id": "5520b55f-aa5d-4288-87ac-740ffb74f410",
        "meta": {
          "profile": [
            "http://hl7.eu/fhir/base/StructureDefinition/organization-eu"
          ]
        },
        "identifier": [
          {
            "assigner": {
              "display": "HL7 Europe"
            },
            "system": "urn:oid:2.16.840.1.113883.2.51.999",
            "value": "bb2ea2fd-624e-4e4f-90be-89d06ad9d621"
          }
        ],
        "address": [
          {
            "line": [
              "City Road 204"
            ],
            "city": "Manchester",
            "postalCode": "M3 3",
            "country": "United Kingdom"
          }
        ],
        "text": {
          "status": "generated",
          "div": "<div xmlns=\"http://www.w3.org/1999/xhtml\">Provider Organization: Cornbrook Medical Practice</div>"
        },
        "name": "Cornbrook Medical Practice"
      }
    },
    {
      "fullUrl": "urn:uuid:bace2cd0-d15d-42df-970e-b54a18eb9764",
      "resource": {
        "resourceType": "Specimen",
        "id": "bace2cd0-d15d-42df-970e-b54a18eb9764",
        "meta": {
          "profile": [
            "http://hl7.eu/fhir/laboratory/StructureDefinition/Specimen-eu-lab"
          ]
        },
        "collection": {
          "collectedDateTime": "2017-03-03"
        },
        "text": {
          "status": "generated",
          "div": "<div xmlns=\"http://www.w3.org/1999/xhtml\"><table class=\"hl7__eu__lab__report\"><tr><th>Specimen</th><th>Collection Date</th></tr><tr><td>Whole blood specimen (specimen)</td><td><span class=\"nb\">03-Mar-2017</span></td></tr></table></div>"
        },
        "type": {
          "coding": [
            {
              "code": "258580003",
              "system": "http://snomed.info/sct",
              "display": "Whole blood specimen (specimen)"
            }
          ]
        }
      }
    },
    {
      "fullUrl": "urn:uuid:1591ab88-4458-4ba8-9e14-6f968d2e2147",
      "resource": {
        "resourceType": "Specimen",
        "id": "1591ab88-4458-4ba8-9e14-6f968d2e2147",
        "meta": {
          "profile": [
            "http://hl7.eu/fhir/laboratory/StructureDefinition/Specimen-eu-lab"
          ]
        },
        "collection": {
          "collectedDateTime": "2017-03-03"
        },
        "text": {
          "status": "generated",
          "div": "<div xmlns=\"http://www.w3.org/1999/xhtml\"><table class=\"hl7__eu__lab__report\"><tr><th>Specimen</th><th>Collection Date</th></tr><tr><td>Acellular blood (serum or plasma) specimen</td><td><span class=\"nb\">03-Mar-2017</span></td></tr></table></div>"
        },
        "type": {
          "coding": [
            {
              "code": "122592007",
              "system": "http://snomed.info/sct",
              "display": "Acellular blood (serum or plasma) specimen"
            }
          ]
        }
      }
    },
    {
      "fullUrl": "urn:uuid:86bb0957-4ae8-4b8a-80ee-2e5d4ae73b9a",
      "resource": {
        "resourceType": "Observation",
        "id": "86bb0957-4ae8-4b8a-80ee-2e5d4ae73b9a",
        "meta": {
          "profile": [
            "http://hl7.eu/fhir/laboratory/StructureDefinition/Observation-resultslab-eu-lab"
          ]
        },
        "performer": [
          {
            "display": "The Central European Lab"
          }
        ],
        "category": [
          {
            "coding": [
              {
                "system": "http://terminology.hl7.org/CodeSystem/observation-category",
                "code": "laboratory"
              }
            ]
          }
        ],
        "code": {
          "coding": [
            {
              "code": "4548-4",
              "system": "http://loinc.org",
              "display": "Hemoglobin A1c/Hemoglobin.total in Blood"
            }
          ],
          "text": "Hemoglobin A1c/Hemoglobin.total in Blood"
        },
        "valueQuantity": {
          "system": "http://unitsofmeasure.org",
          "value": 6.3,
          "unit": "%",
          "code": "%"
        },
        "referenceRange": [
          {
            "low": {
              "value": 4.8,
              "code": "%",
              "system": "http://unitsofmeasure.org"
            }
          },
          {
            "high": {
              "value": 5.7,
              "code": "%",
              "system": "http://unitsofmeasure.org"
            }
          }
        ],
        "interpretation": [
          {
            "coding": [
              {
                "code": "H",
                "system": "http://terminology.hl7.org/CodeSystem/v3-ObservationInterpretation",
                "display": "High"
              }
            ]
          }
        ],
        "text": {
          "status": "generated",
          "div": "<div xmlns=\"http://www.w3.org/1999/xhtml\"><table class=\"hl7__eu__lab__report\"><tr><th>Test</th><th>03-Mar-2017</th><th>Reference&#xA0;Range</th><th>Unit</th></tr><tr><td>Hemoglobin A1c/Hemoglobin.total in Blood</td><td>6.3</td><td>4.8 - 5.7</td><td>H</td><td>%</td></tr></table></div>"
        },
        "status": "final",
        "subject": {
          "reference": "urn:uuid:711827ba-296f-466f-b73a-61cfa53f1add",
          "display": "Bethany Begum"
        },
        "effectiveDateTime": "2017-03-03T11:40:40Z",
        "specimen": {
          "reference": "urn:uuid:bace2cd0-d15d-42df-970e-b54a18eb9764"
        }
      }
    },
    {
      "fullUrl": "urn:uuid:121b6b94-343f-4255-8607-d0e815784225",
      "resource": {
        "resourceType": "Observation",
        "id": "121b6b94-343f-4255-8607-d0e815784225",
        "meta": {
          "profile": [
            "http://hl7.eu/fhir/laboratory/StructureDefinition/Observation-resultslab-eu-lab"
          ]
        },
        "performer": [
          {
            "display": "The Central European Lab"
          }
        ],
        "category": [
          {
            "coding": [
              {
                "system": "http://terminology.hl7.org/CodeSystem/observation-category",
                "code": "laboratory"
              }
            ]
          }
        ],
        "code": {
          "coding": [
            {
              "code": "2339-0",
              "system": "http://loinc.org",
              "display": "Glucose [Mass/volume] in Blood"
            }
          ],
          "text": "Glucose [Mass/volume] in Blood"
        },
        "valueQuantity": {
          "system": "http://unitsofmeasure.org",
          "value": 89.9,
          "unit": "mg/dL",
          "code": "mg/dL"
        },
        "referenceRange": [
          {
            "low": {
              "value": 70,
              "code": "mg/dL",
              "system": "http://unitsofmeasure.org"
            }
          },
          {
            "high": {
              "value": 140,
              "code": "mg/dL",
              "system": "http://unitsofmeasure.org"
            }
          }
        ],
        "text": {
          "status": "generated",
          "div": "<div xmlns=\"http://www.w3.org/1999/xhtml\"><table class=\"hl7__eu__lab__report\"><tr><th>Test</th><th>03-Mar-2017</th><th>Reference&#xA0;Range</th><th>Unit</th></tr><tr><td>Glucose [Mass/volume] in Blood</td><td>89.9</td><td>70 - 140</td><td></td><td>mg/dL</td></tr></table></div>"
        },
        "status": "final",
        "subject": {
          "reference": "urn:uuid:711827ba-296f-466f-b73a-61cfa53f1add",
          "display": "Bethany Begum"
        },
        "effectiveDateTime": "2017-03-03T11:40:40Z",
        "specimen": {
          "reference": "urn:uuid:bace2cd0-d15d-42df-970e-b54a18eb9764"
        }
      }
    },
    {
      "fullUrl": "urn:uuid:5cea8d74-8290-44b8-ad97-74349d287eb6",
      "resource": {
        "resourceType": "Observation",
        "id": "5cea8d74-8290-44b8-ad97-74349d287eb6",
        "meta": {
          "profile": [
            "http://hl7.eu/fhir/laboratory/StructureDefinition/Observation-resultslab-eu-lab"
          ]
        },
        "performer": [
          {
            "display": "The Central European Lab"
          }
        ],
        "category": [
          {
            "coding": [
              {
                "system": "http://terminology.hl7.org/CodeSystem/observation-category",
                "code": "laboratory"
              }
            ]
          }
        ],
        "code": {
          "coding": [
            {
              "code": "6299-2",
              "system": "http://loinc.org",
              "display": "Urea nitrogen [Mass/volume] in Blood"
            }
          ],
          "text": "Urea nitrogen [Mass/volume] in Blood"
        },
        "valueQuantity": {
          "system": "http://unitsofmeasure.org",
          "value": 7.3,
          "unit": "mg/dL",
          "code": "mg/dL"
        },
        "referenceRange": [
          {
            "low": {
              "value": 7,
              "code": "mg/dL",
              "system": "http://unitsofmeasure.org"
            }
          },
          {
            "high": {
              "value": 25,
              "code": "mg/dL",
              "system": "http://unitsofmeasure.org"
            }
          }
        ],
        "text": {
          "status": "generated",
          "div": "<div xmlns=\"http://www.w3.org/1999/xhtml\"><table class=\"hl7__eu__lab__report\"><tr><th>Test</th><th>03-Mar-2017</th><th>Reference&#xA0;Range</th><th>Unit</th></tr><tr><td>Urea nitrogen [Mass/volume] in Blood</td><td>7.3</td><td>7 - 25</td><td></td><td>mg/dL</td></tr></table></div>"
        },
        "status": "final",
        "subject": {
          "reference": "urn:uuid:711827ba-296f-466f-b73a-61cfa53f1add",
          "display": "Bethany Begum"
        },
        "effectiveDateTime": "2017-03-03T11:40:40Z",
        "specimen": {
          "reference": "urn:uuid:bace2cd0-d15d-42df-970e-b54a18eb9764"
        }
      }
    },
    {
      "fullUrl": "urn:uuid:a776855b-0705-4fc5-8ef7-648aea48fd6c",
      "resource": {
        "resourceType": "Observation",
        "id": "a776855b-0705-4fc5-8ef7-648aea48fd6c",
        "meta": {
          "profile": [
            "http://hl7.eu/fhir/laboratory/StructureDefinition/Observation-resultslab-eu-lab"
          ]
        },
        "performer": [
          {
            "display": "The Central European Lab"
          }
        ],
        "category": [
          {
            "coding": [
              {
                "system": "http://terminology.hl7.org/CodeSystem/observation-category",
                "code": "laboratory"
              }
            ]
          }
        ],
        "code": {
          "coding": [
            {
              "code": "38483-4",
              "system": "http://loinc.org",
              "display": "Creatinine [Mass/volume] in Blood"
            }
          ],
          "text": "Creatinine [Mass/volume] in Blood"
        },
        "valueQuantity": {
          "system": "http://unitsofmeasure.org",
          "value": 1.1,
          "unit": "mg/dL",
          "code": "mg/dL"
        },
        "referenceRange": [
          {
            "low": {
              "value": 0.6,
              "code": "mg/dL",
              "system": "http://unitsofmeasure.org"
            }
          },
          {
            "high": {
              "value": 1.3,
              "code": "mg/dL",
              "system": "http://unitsofmeasure.org"
            }
          }
        ],
        "text": {
          "status": "generated",
          "div": "<div xmlns=\"http://www.w3.org/1999/xhtml\"><table class=\"hl7__eu__lab__report\"><tr><th>Test</th><th>03-Mar-2017</th><th>Reference&#xA0;Range</th><th>Unit</th></tr><tr><td>Creatinine [Mass/volume] in Blood</td><td>1.1</td><td>0.6 - 1.3</td><td></td><td>mg/dL</td></tr></table></div>"
        },
        "status": "final",
        "subject": {
          "reference": "urn:uuid:711827ba-296f-466f-b73a-61cfa53f1add",
          "display": "Bethany Begum"
        },
        "effectiveDateTime": "2017-03-03T11:40:40Z",
        "specimen": {
          "reference": "urn:uuid:bace2cd0-d15d-42df-970e-b54a18eb9764"
        }
      }
    },
    {
      "fullUrl": "urn:uuid:abdab8f2-4c33-47c6-98db-6be77785c1a2",
      "resource": {
        "resourceType": "Observation",
        "id": "abdab8f2-4c33-47c6-98db-6be77785c1a2",
        "meta": {
          "profile": [
            "http://hl7.eu/fhir/laboratory/StructureDefinition/Observation-resultslab-eu-lab"
          ]
        },
        "performer": [
          {
            "display": "The Central European Lab"
          }
        ],
        "category": [
          {
            "coding": [
              {
                "system": "http://terminology.hl7.org/CodeSystem/observation-category",
                "code": "laboratory"
              }
            ]
          }
        ],
        "code": {
          "coding": [
            {
              "code": "49765-1",
              "system": "http://loinc.org",
              "display": "Calcium [Mass/volume] in Blood"
            }
          ],
          "text": "Calcium [Mass/volume] in Blood"
        },
        "valueQuantity": {
          "system": "http://unitsofmeasure.org",
          "value": 10.2,
          "unit": "mg/dL",
          "code": "mg/dL"
        },
        "referenceRange": [
          {
            "low": {
              "value": 8.5,
              "code": "mg/dL",
              "system": "http://unitsofmeasure.org"
            }
          },
          {
            "high": {
              "value": 10.5,
              "code": "mg/dL",
              "system": "http://unitsofmeasure.org"
            }
          }
        ],
        "text": {
          "status": "generated",
          "div": "<div xmlns=\"http://www.w3.org/1999/xhtml\"><table class=\"hl7__eu__lab__report\"><tr><th>Test</th><th>03-Mar-2017</th><th>Reference&#xA0;Range</th><th>Unit</th></tr><tr><td>Calcium [Mass/volume] in Blood</td><td>10.2</td><td>8.5 - 10.5</td><td></td><td>mg/dL</td></tr></table></div>"
        },
        "status": "final",
        "subject": {
          "reference": "urn:uuid:711827ba-296f-466f-b73a-61cfa53f1add",
          "display": "Bethany Begum"
        },
        "effectiveDateTime": "2017-03-03T11:40:40Z",
        "specimen": {
          "reference": "urn:uuid:bace2cd0-d15d-42df-970e-b54a18eb9764"
        }
      }
    },
    {
      "fullUrl": "urn:uuid:936f381a-0c0a-44ed-b538-72c6d2994d54",
      "resource": {
        "resourceType": "Observation",
        "id": "936f381a-0c0a-44ed-b538-72c6d2994d54",
        "meta": {
          "profile": [
            "http://hl7.eu/fhir/laboratory/StructureDefinition/Observation-resultslab-eu-lab"
          ]
        },
        "performer": [
          {
            "display": "The Central European Lab"
          }
        ],
        "category": [
          {
            "coding": [
              {
                "system": "http://terminology.hl7.org/CodeSystem/observation-category",
                "code": "laboratory"
              }
            ]
          }
        ],
        "code": {
          "coding": [
            {
              "code": "2947-0",
              "system": "http://loinc.org",
              "display": "Sodium [Moles/volume] in Blood"
            }
          ],
          "text": "Sodium [Moles/volume] in Blood"
        },
        "valueQuantity": {
          "system": "http://unitsofmeasure.org",
          "value": 140.4,
          "unit": "mmol/L",
          "code": "mmol/L"
        },
        "referenceRange": [
          {
            "low": {
              "value": 135,
              "code": "mmol/L",
              "system": "http://unitsofmeasure.org"
            }
          },
          {
            "high": {
              "value": 145,
              "code": "mmol/L",
              "system": "http://unitsofmeasure.org"
            }
          }
        ],
        "text": {
          "status": "generated",
          "div": "<div xmlns=\"http://www.w3.org/1999/xhtml\"><table class=\"hl7__eu__lab__report\"><tr><th>Test</th><th>03-Mar-2017</th><th>Reference&#xA0;Range</th><th>Unit</th></tr><tr><td>Sodium [Moles/volume] in Blood</td><td>140.4</td><td>135 - 145</td><td></td><td>mmol/L</td></tr></table></div>"
        },
        "status": "final",
        "subject": {
          "reference": "urn:uuid:711827ba-296f-466f-b73a-61cfa53f1add",
          "display": "Bethany Begum"
        },
        "effectiveDateTime": "2017-03-03T11:40:40Z",
        "specimen": {
          "reference": "urn:uuid:bace2cd0-d15d-42df-970e-b54a18eb9764"
        }
      }
    },
    {
      "fullUrl": "urn:uuid:a17638d8-7fa2-4052-908d-1da277545752",
      "resource": {
        "resourceType": "Observation",
        "id": "a17638d8-7fa2-4052-908d-1da277545752",
        "meta": {
          "profile": [
            "http://hl7.eu/fhir/laboratory/StructureDefinition/Observation-resultslab-eu-lab"
          ]
        },
        "performer": [
          {
            "display": "The Central European Lab"
          }
        ],
        "category": [
          {
            "coding": [
              {
                "system": "http://terminology.hl7.org/CodeSystem/observation-category",
                "code": "laboratory"
              }
            ]
          }
        ],
        "code": {
          "coding": [
            {
              "code": "6298-4",
              "system": "http://loinc.org",
              "display": "Potassium [Moles/volume] in Blood"
            }
          ],
          "text": "Potassium [Moles/volume] in Blood"
        },
        "valueQuantity": {
          "system": "http://unitsofmeasure.org",
          "value": 3.7,
          "unit": "mmol/L",
          "code": "mmol/L"
        },
        "referenceRange": [
          {
            "low": {
              "value": 3.5,
              "code": "mmol/L",
              "system": "http://unitsofmeasure.org"
            }
          },
          {
            "high": {
              "value": 5.1,
              "code": "mmol/L",
              "system": "http://unitsofmeasure.org"
            }
          }
        ],
        "text": {
          "status": "generated",
          "div": "<div xmlns=\"http://www.w3.org/1999/xhtml\"><table class=\"hl7__eu__lab__report\"><tr><th>Test</th><th>03-Mar-2017</th><th>Reference&#xA0;Range</th><th>Unit</th></tr><tr><td>Potassium [Moles/volume] in Blood</td><td>3.7</td><td>3.5 - 5.1</td><td></td><td>mmol/L</td></tr></table></div>"
        },
        "status": "final",
        "subject": {
          "reference": "urn:uuid:711827ba-296f-466f-b73a-61cfa53f1add",
          "display": "Bethany Begum"
        },
        "effectiveDateTime": "2017-03-03T11:40:40Z",
        "specimen": {
          "reference": "urn:uuid:bace2cd0-d15d-42df-970e-b54a18eb9764"
        }
      }
    },
    {
      "fullUrl": "urn:uuid:d54742b9-d25f-4865-b679-60d20796f33d",
      "resource": {
        "resourceType": "Observation",
        "id": "d54742b9-d25f-4865-b679-60d20796f33d",
        "meta": {
          "profile": [
            "http://hl7.eu/fhir/laboratory/StructureDefinition/Observation-resultslab-eu-lab"
          ]
        },
        "performer": [
          {
            "display": "The Central European Lab"
          }
        ],
        "category": [
          {
            "coding": [
              {
                "system": "http://terminology.hl7.org/CodeSystem/observation-category",
                "code": "laboratory"
              }
            ]
          }
        ],
        "code": {
          "coding": [
            {
              "code": "2069-3",
              "system": "http://loinc.org",
              "display": "Chloride [Moles/volume] in Blood"
            }
          ],
          "text": "Chloride [Moles/volume] in Blood"
        },
        "valueQuantity": {
          "system": "http://unitsofmeasure.org",
          "value": 107.3,
          "unit": "mmol/L",
          "code": "mmol/L"
        },
        "referenceRange": [
          {
            "low": {
              "value": 98,
              "code": "mmol/L",
              "system": "http://unitsofmeasure.org"
            }
          },
          {
            "high": {
              "value": 108,
              "code": "mmol/L",
              "system": "http://unitsofmeasure.org"
            }
          }
        ],
        "text": {
          "status": "generated",
          "div": "<div xmlns=\"http://www.w3.org/1999/xhtml\"><table class=\"hl7__eu__lab__report\"><tr><th>Test</th><th>03-Mar-2017</th><th>Reference&#xA0;Range</th><th>Unit</th></tr><tr><td>Chloride [Moles/volume] in Blood</td><td>107.3</td><td>98 - 108</td><td></td><td>mmol/L</td></tr></table></div>"
        },
        "status": "final",
        "subject": {
          "reference": "urn:uuid:711827ba-296f-466f-b73a-61cfa53f1add",
          "display": "Bethany Begum"
        },
        "effectiveDateTime": "2017-03-03T11:40:40Z",
        "specimen": {
          "reference": "urn:uuid:bace2cd0-d15d-42df-970e-b54a18eb9764"
        }
      }
    },
    {
      "fullUrl": "urn:uuid:29511cb6-ed9d-4554-a5f9-735b1b7c8308",
      "resource": {
        "resourceType": "Observation",
        "id": "29511cb6-ed9d-4554-a5f9-735b1b7c8308",
        "meta": {
          "profile": [
            "http://hl7.eu/fhir/laboratory/StructureDefinition/Observation-resultslab-eu-lab"
          ]
        },
        "performer": [
          {
            "display": "The Central European Lab"
          }
        ],
        "category": [
          {
            "coding": [
              {
                "system": "http://terminology.hl7.org/CodeSystem/observation-category",
                "code": "laboratory"
              }
            ]
          }
        ],
        "code": {
          "coding": [
            {
              "code": "20565-8",
              "system": "http://loinc.org",
              "display": "Carbon dioxide, total [Moles/volume] in Blood"
            }
          ],
          "text": "Carbon dioxide, total [Moles/volume] in Blood"
        },
        "valueQuantity": {
          "system": "http://unitsofmeasure.org",
          "value": 22.8,
          "unit": "mmol/L",
          "code": "mmol/L"
        },
        "referenceRange": [
          {
            "low": {
              "value": 22,
              "code": "mmol/L",
              "system": "http://unitsofmeasure.org"
            }
          },
          {
            "high": {
              "value": 29,
              "code": "mmol/L",
              "system": "http://unitsofmeasure.org"
            }
          }
        ],
        "text": {
          "status": "generated",
          "div": "<div xmlns=\"http://www.w3.org/1999/xhtml\"><table class=\"hl7__eu__lab__report\"><tr><th>Test</th><th>03-Mar-2017</th><th>Reference&#xA0;Range</th><th>Unit</th></tr><tr><td>Carbon dioxide, total [Moles/volume] in Blood</td><td>22.8</td><td>22 - 29</td><td></td><td>mmol/L</td></tr></table></div>"
        },
        "status": "final",
        "subject": {
          "reference": "urn:uuid:711827ba-296f-466f-b73a-61cfa53f1add",
          "display": "Bethany Begum"
        },
        "effectiveDateTime": "2017-03-03T11:40:40Z",
        "specimen": {
          "reference": "urn:uuid:bace2cd0-d15d-42df-970e-b54a18eb9764"
        }
      }
    },
    {
      "fullUrl": "urn:uuid:d341f56d-41b3-481f-8c48-596aadebb90e",
      "resource": {
        "resourceType": "Observation",
        "id": "d341f56d-41b3-481f-8c48-596aadebb90e",
        "meta": {
          "profile": [
            "http://hl7.eu/fhir/laboratory/StructureDefinition/Observation-resultslab-eu-lab"
          ]
        },
        "performer": [
          {
            "display": "The Central European Lab"
          }
        ],
        "category": [
          {
            "coding": [
              {
                "system": "http://terminology.hl7.org/CodeSystem/observation-category",
                "code": "laboratory"
              }
            ]
          }
        ],
        "code": {
          "coding": [
            {
              "code": "2093-3",
              "system": "http://loinc.org",
              "display": "Cholesterol [Mass/volume] in Serum or Plasma"
            }
          ],
          "text": "Cholesterol [Mass/volume] in Serum or Plasma"
        },
        "valueQuantity": {
          "system": "http://unitsofmeasure.org",
          "value": 158.5,
          "unit": "mg/dL",
          "code": "mg/dL"
        },
        "referenceRange": [
          {
            "low": {
              "value": 125,
              "code": "mg/dL",
              "system": "http://unitsofmeasure.org"
            }
          },
          {
            "high": {
              "value": 200,
              "code": "mg/dL",
              "system": "http://unitsofmeasure.org"
            }
          }
        ],
        "text": {
          "status": "generated",
          "div": "<div xmlns=\"http://www.w3.org/1999/xhtml\"><table class=\"hl7__eu__lab__report\"><tr><th>Test</th><th>03-Mar-2017</th><th>Reference&#xA0;Range</th><th>Unit</th></tr><tr><td>Cholesterol [Mass/volume] in Serum or Plasma</td><td>158.5</td><td>125 - 200</td><td></td><td>mg/dL</td></tr></table></div>"
        },
        "status": "final",
        "subject": {
          "reference": "urn:uuid:711827ba-296f-466f-b73a-61cfa53f1add",
          "display": "Bethany Begum"
        },
        "effectiveDateTime": "2017-03-03T11:40:40Z",
        "specimen": {
          "reference": "urn:uuid:1591ab88-4458-4ba8-9e14-6f968d2e2147"
        }
      }
    },
    {
      "fullUrl": "urn:uuid:6a388420-2743-459c-93c8-39ac28c03fb2",
      "resource": {
        "resourceType": "Observation",
        "id": "6a388420-2743-459c-93c8-39ac28c03fb2",
        "meta": {
          "profile": [
            "http://hl7.eu/fhir/laboratory/StructureDefinition/Observation-resultslab-eu-lab"
          ]
        },
        "performer": [
          {
            "display": "The Central European Lab"
          }
        ],
        "category": [
          {
            "coding": [
              {
                "system": "http://terminology.hl7.org/CodeSystem/observation-category",
                "code": "laboratory"
              }
            ]
          }
        ],
        "code": {
          "coding": [
            {
              "code": "2571-8",
              "system": "http://loinc.org",
              "display": "Triglyceride [Mass/volume] in Serum or Plasma"
            }
          ],
          "text": "Triglyceride [Mass/volume] in Serum or Plasma"
        },
        "valueQuantity": {
          "system": "http://unitsofmeasure.org",
          "value": 100.3,
          "unit": "mg/dL",
          "code": "mg/dL"
        },
        "referenceRange": [
          {
            "low": {
              "value": 35,
              "code": "mg/dL",
              "system": "http://unitsofmeasure.org"
            }
          },
          {
            "high": {
              "value": 150,
              "code": "mg/dL",
              "system": "http://unitsofmeasure.org"
            }
          }
        ],
        "text": {
          "status": "generated",
          "div": "<div xmlns=\"http://www.w3.org/1999/xhtml\"><table class=\"hl7__eu__lab__report\"><tr><th>Test</th><th>03-Mar-2017</th><th>Reference&#xA0;Range</th><th>Unit</th></tr><tr><td>Triglyceride [Mass/volume] in Serum or Plasma</td><td>100.3</td><td>35 - 150</td><td></td><td>mg/dL</td></tr></table></div>"
        },
        "status": "final",
        "subject": {
          "reference": "urn:uuid:711827ba-296f-466f-b73a-61cfa53f1add",
          "display": "Bethany Begum"
        },
        "effectiveDateTime": "2017-03-03T11:40:40Z",
        "specimen": {
          "reference": "urn:uuid:1591ab88-4458-4ba8-9e14-6f968d2e2147"
        }
      }
    },
    {
      "fullUrl": "urn:uuid:85bab8e8-fb1a-47ff-aee4-d303c09f5a21",
      "resource": {
        "resourceType": "Observation",
        "id": "85bab8e8-fb1a-47ff-aee4-d303c09f5a21",
        "meta": {
          "profile": [
            "http://hl7.eu/fhir/laboratory/StructureDefinition/Observation-resultslab-eu-lab"
          ]
        },
        "performer": [
          {
            "display": "The Central European Lab"
          }
        ],
        "category": [
          {
            "coding": [
              {
                "system": "http://terminology.hl7.org/CodeSystem/observation-category",
                "code": "laboratory"
              }
            ]
          }
        ],
        "code": {
          "coding": [
            {
              "code": "18262-6",
              "system": "http://loinc.org",
              "display": "Cholesterol in LDL [Mass/volume] in Serum or Plasma by Direct assay"
            }
          ],
          "text": "Cholesterol in LDL [Mass/volume] in Serum or Plasma by Direct assay"
        },
        "valueQuantity": {
          "system": "http://unitsofmeasure.org",
          "value": 85.3,
          "unit": "mg/dL",
          "code": "mg/dL"
        },
        "referenceRange": [
          {
            "low": {
              "value": 0,
              "code": "mg/dL",
              "system": "http://unitsofmeasure.org"
            }
          },
          {
            "high": {
              "value": 130,
              "code": "mg/dL",
              "system": "http://unitsofmeasure.org"
            }
          }
        ],
        "text": {
          "status": "generated",
          "div": "<div xmlns=\"http://www.w3.org/1999/xhtml\"><table class=\"hl7__eu__lab__report\"><tr><th>Test</th><th>03-Mar-2017</th><th>Reference&#xA0;Range</th><th>Unit</th></tr><tr><td>Cholesterol in LDL [Mass/volume] in Serum or Plasma by Direct assay</td><td>85.3</td><td>0 - 130</td><td></td><td>mg/dL</td></tr></table></div>"
        },
        "status": "final",
        "subject": {
          "reference": "urn:uuid:711827ba-296f-466f-b73a-61cfa53f1add",
          "display": "Bethany Begum"
        },
        "effectiveDateTime": "2017-03-03T11:40:40Z",
        "specimen": {
          "reference": "urn:uuid:1591ab88-4458-4ba8-9e14-6f968d2e2147"
        }
      }
    },
    {
      "fullUrl": "urn:uuid:5c2aacdb-2d1c-4e73-a561-ff8e9efbc2ae",
      "resource": {
        "resourceType": "Observation",
        "id": "5c2aacdb-2d1c-4e73-a561-ff8e9efbc2ae",
        "meta": {
          "profile": [
            "http://hl7.eu/fhir/laboratory/StructureDefinition/Observation-resultslab-eu-lab"
          ]
        },
        "performer": [
          {
            "display": "The Central European Lab"
          }
        ],
        "category": [
          {
            "coding": [
              {
                "system": "http://terminology.hl7.org/CodeSystem/observation-category",
                "code": "laboratory"
              }
            ]
          }
        ],
        "code": {
          "coding": [
            {
              "code": "2085-9",
              "system": "http://loinc.org",
              "display": "Cholesterol in HDL [Mass/volume] in Serum or Plasma"
            }
          ],
          "text": "Cholesterol in HDL [Mass/volume] in Serum or Plasma"
        },
        "valueQuantity": {
          "system": "http://unitsofmeasure.org",
          "value": 53.1,
          "unit": "mg/dL",
          "code": "mg/dL"
        },
        "referenceRange": [
          {
            "low": {
              "value": 40,
              "code": "mg/dL",
              "system": "http://unitsofmeasure.org"
            }
          },
          {
            "high": {
              "value": 60,
              "code": "mg/dL",
              "system": "http://unitsofmeasure.org"
            }
          }
        ],
        "text": {
          "status": "generated",
          "div": "<div xmlns=\"http://www.w3.org/1999/xhtml\"><table class=\"hl7__eu__lab__report\"><tr><th>Test</th><th>03-Mar-2017</th><th>Reference&#xA0;Range</th><th>Unit</th></tr><tr><td>Cholesterol in HDL [Mass/volume] in Serum or Plasma</td><td>53.1</td><td>40 - 60</td><td></td><td>mg/dL</td></tr></table></div>"
        },
        "status": "final",
        "subject": {
          "reference": "urn:uuid:711827ba-296f-466f-b73a-61cfa53f1add",
          "display": "Bethany Begum"
        },
        "effectiveDateTime": "2017-03-03T11:40:40Z",
        "specimen": {
          "reference": "urn:uuid:1591ab88-4458-4ba8-9e14-6f968d2e2147"
        }
      }
    },
    {
      "fullUrl": "urn:uuid:37fc8245-7c69-40ff-80a8-b1e93139ef5c",
      "resource": {
        "resourceType": "Device",
        "id": "37fc8245-7c69-40ff-80a8-b1e93139ef5c",
        "deviceName": [
          {
            "name": "SYNDERAI Synthetic Generator",
            "type": "manufacturer-name"
          }
        ],
        "version": [
          {
            "value": "5.0"
          }
        ],
        "text": {
          "status": "generated",
          "div": "<div xmlns=\"http://www.w3.org/1999/xhtml\">SYNDERAI Synthetic Generator v5.0</div>"
        },
        "status": "active\"",
        "distinctIdentifier": "synderai-generator-50",
        "manufacturer": "SYNDERAI Project"
      }
    },
    {
      "fullUrl": "urn:uuid:683d8c02-81cb-4364-8c99-9d9f2c4d2461",
      "resource": {
        "resourceType": "Provenance",
        "id": "683d8c02-81cb-4364-8c99-9d9f2c4d2461",
        "target": [
          {
            "reference": "Patient/711827ba-296f-466f-b73a-61cfa53f1add"
          },
          {
            "reference": "Bundle/cd684c18-6952-4fe4-a8a7-5291bb1fc531"
          },
          {
            "reference": "Composition/6dfd3bda-9ee8-422b-af59-17feff2f5471"
          },
          {
            "reference": "PractitionerRole/9d352ba8-ad8a-4e4f-a321-b94a9925dbef"
          },
          {
            "reference": "Practitioner/4bec5d73-0dc6-4c8d-a8f1-390e793eee0d"
          },
          {
            "reference": "PractitionerRole/5497f3a5-eab5-487e-9eb0-f4aa280b8216"
          },
          {
            "reference": "Organization/5520b55f-aa5d-4288-87ac-740ffb74f410"
          }
        ],
        "activity": {
          "text": "Synthetic Example Data Generation"
        },
        "policy": [
          "https://synderai.net/synderai-synthetic-data-policy"
        ],
        "agent": [
          {
            "type": {
              "text": "author"
            },
            "who": {
              "reference": "Device/37fc8245-7c69-40ff-80a8-b1e93139ef5c"
            }
          }
        ],
        "reason": [
          {
            "text": "Interoperability Testing and Training (non-clinical use)"
          }
        ],
        "text": {
          "status": "generated",
          "div": "<div xmlns=\"http://www.w3.org/1999/xhtml\">Provenance for SYNDERAI Synthetic Example Data Resource</div>"
        },
        "recorded": "2017-03-03T12:40:40Z"
      }
    },
    {
      "fullUrl": "urn:uuid:9d352ba8-ad8a-4e4f-a321-b94a9925dbef",
      "resource": {
        "resourceType": "PractitionerRole",
        "id": "9d352ba8-ad8a-4e4f-a321-b94a9925dbef",
        "meta": {
          "profile": [
            "http://hl7.eu/fhir/base/StructureDefinition/practitionerRole-eu"
          ]
        },
        "text": {
          "status": "generated",
          "div": "<div xmlns=\"http://www.w3.org/1999/xhtml\">Laboratory Role Id: 9d352ba8-ad8a-4e4f-a321-b94a9925dbef</div>"
        },
        "practitioner": {
          "reference": "urn:uuid:4bec5d73-0dc6-4c8d-a8f1-390e793eee0d"
        }
      }
    },
    {
      "fullUrl": "urn:uuid:4bec5d73-0dc6-4c8d-a8f1-390e793eee0d",
      "resource": {
        "resourceType": "Practitioner",
        "id": "4bec5d73-0dc6-4c8d-a8f1-390e793eee0d",
        "meta": {
          "profile": [
            "http://hl7.eu/fhir/base/StructureDefinition/practitioner-eu"
          ]
        },
        "identifier": [
          {
            "assigner": {
              "display": "HL7 Europe"
            },
            "system": "urn:oid:2.16.840.1.113883.2.51.999",
            "value": "7bd8a0c9-b9bb-4ddd-9552-8f68ec642a18"
          }
        ],
        "name": [
          {
            "prefix": [
              "dr"
            ],
            "given": [
              "Ex"
            ],
            "family": "Ample"
          }
        ],
        "address": [
          {
            "line": [
              "Laboratoire Central Europenne",
              "Boulevard du Jardin Botanique 32"
            ],
            "postalCode": "1000",
            "city": "Brussels",
            "country": "Belgium"
          }
        ],
        "text": {
          "status": "generated",
          "div": "<div xmlns=\"http://www.w3.org/1999/xhtml\">Laboratory: Laboratoire Central Europenne, 1000 Brussels, Belgium</div>"
        }
      }
    }
  ],
  "type": "document",
  "timestamp": "2017-03-03T12:40:40Z"
}
