{
  "resourceType": "Bundle",
  "id": "716e643f-3da0-4108-8625-75cab6855041",
  "meta": {
    "profile": [
      "http://hl7.eu/fhir/laboratory/StructureDefinition/Bundle-eu-lab"
    ]
  },
  "identifier": {
    "assigner": {
      "display": "HL7 Europe"
    },
    "system": "urn:oid:2.16.840.1.113883.2.51.999",
    "value": "67f1e854-3763-4a8f-a7c5-e67e2e186886"
  },
  "entry": [
    {
      "fullUrl": "urn:uuid:f65918d7-68ff-44e1-b043-5a334f47dce9",
      "resource": {
        "resourceType": "Composition",
        "id": "f65918d7-68ff-44e1-b043-5a334f47dce9",
        "meta": {
          "profile": [
            "http://hl7.eu/fhir/laboratory/StructureDefinition/Composition-eu-lab"
          ]
        },
        "identifier": {
          "assigner": {
            "display": "HL7 Europe"
          },
          "system": "urn:oid:2.16.840.1.113883.2.51.999",
          "value": "63fa0187-b19f-4f09-b299-0e92fd1bb282"
        },
        "author": [
          {
            "reference": "urn:uuid:c39b27b0-81a2-4b2f-bc40-710da1897ec2"
          }
        ],
        "category": [
          {
            "coding": [
              {
                "code": "26436-6",
                "system": "http://loinc.org",
                "display": "Laboratory studies (set)"
              }
            ]
          }
        ],
        "type": {
          "coding": [
            {
              "code": "11502-2",
              "system": "http://loinc.org",
              "display": "Laboratory report"
            }
          ],
          "text": "Laboratory Report"
        },
        "section": [
          {
            "code": {
              "coding": [
                {
                  "code": "26436-6",
                  "system": "http://loinc.org",
                  "display": "Laboratory studies (set)"
                }
              ],
              "text": "Laboratory studies"
            },
            "section": [
              {
                "code": {
                  "coding": [
                    {
                      "code": "$18719-5",
                      "system": "http://loinc.org",
                      "display": "Chemistry studies (set)"
                    }
                  ],
                  "text": "Chemistry"
                },
                "entry": [
                  {
                    "reference": "urn:uuid:0a45e5ee-a22a-4d89-b186-8d45dee765c3"
                  },
                  {
                    "reference": "urn:uuid:3f31218c-9834-4216-9ca8-fdfabcb20487"
                  },
                  {
                    "reference": "urn:uuid:ab289646-ddb7-477e-87c8-9b210c03093b"
                  },
                  {
                    "reference": "urn:uuid:7b03c4fa-5194-4245-93ec-10143438a62a"
                  },
                  {
                    "reference": "urn:uuid:076aba07-20d3-4b1b-a208-c6d4633b9bc2"
                  },
                  {
                    "reference": "urn:uuid:0d229831-1c0d-40f6-a77f-66aaf8cbb8ba"
                  },
                  {
                    "reference": "urn:uuid:f016ab97-dcc2-4e8a-965e-30437b3f0afe"
                  },
                  {
                    "reference": "urn:uuid:68974c7d-4593-40a0-a01e-e8143c7da76d"
                  },
                  {
                    "reference": "urn:uuid:4499d0e0-bc9e-4a09-a39f-e9dd8094eff1"
                  },
                  {
                    "reference": "urn:uuid:19cadfd4-9a06-4b74-af2e-d3c2d28b850d"
                  },
                  {
                    "reference": "urn:uuid:dd75c6cf-849e-48c2-b179-9ff28428df40"
                  },
                  {
                    "reference": "urn:uuid:350ce4f9-cd4a-4897-bfa0-236d988abd72"
                  },
                  {
                    "reference": "urn:uuid:95a45280-3aba-4a06-a60c-bb7597614e85"
                  },
                  {
                    "reference": "urn:uuid:db5cacbf-a923-4d31-9ab3-6a1ed5e6fd70"
                  },
                  {
                    "reference": "urn:uuid:8189dd63-23c3-4811-b466-2cc7ef9bb8cd"
                  },
                  {
                    "reference": "urn:uuid:2ac32046-5c35-47cb-b4f1-d40376038ce3"
                  },
                  {
                    "reference": "urn:uuid:af108d46-2c6c-4cda-810c-25cfc4ed92a8"
                  },
                  {
                    "reference": "urn:uuid:720bb9f4-ccfc-4171-b79a-e10d09ee1692"
                  }
                ],
                "text": {
                  "status": "generated",
                  "div": "<div xmlns=\"http://www.w3.org/1999/xhtml\"><h3>Chemistry</h3><table class=\"hl7__eu__lab__report\"><thead><tr><th>Test</th><th>06-JAN-2023</th><th>Reference&#xA0;Range</th><th>Unit</th></tr></thead><tbody><tr><td>Glucose [Mass/volume] in Serum or Plasma</td><td><strong>64.7 L</strong></td><td>70 - 140</td><td>mg/dL</td></tr><tr><td>Urea nitrogen [Mass/volume] in Serum or Plasma</td><td>9.5</td><td>7 - 20</td><td>mg/dL</td></tr><tr><td>Creatinine [Mass/volume] in Serum or Plasma</td><td><strong>2.0 H</strong></td><td>0.9 - 1.3</td><td>mg/dL</td></tr><tr><td>Calcium [Mass/volume] in Serum or Plasma</td><td>9.8</td><td>8.5 - 10.5</td><td>mg/dL</td></tr><tr><td>Sodium [Moles/volume] in Serum or Plasma</td><td>141.1</td><td>135 - 145</td><td>mmol/L</td></tr><tr><td>Potassium [Moles/volume] in Serum or Plasma</td><td>4.1</td><td>3.5 - 5.3</td><td>mmol/L</td></tr><tr><td>Chloride [Moles/volume] in Serum or Plasma</td><td><strong>109.9 H</strong></td><td>98 - 107</td><td>mmol/L</td></tr><tr><td>Carbon dioxide, total [Moles/volume] in Serum or Plasma</td><td><strong>21.0 L</strong></td><td>22 - 33</td><td>mmol/L</td></tr><tr><td>Ketones [Presence] in Urine by Test strip</td><td>Urine ketone test = ++</td><td></td><td></td></tr><tr><td>Hemoglobin A1c/Hemoglobin.total in Blood</td><td><strong>2.9 L</strong></td><td>4.3 - 6</td><td>%</td></tr><tr><td>Glucose [Mass/volume] in Blood</td><td><strong>64.7 L</strong></td><td>70 - 140</td><td>mg/dL</td></tr><tr><td>Urea nitrogen [Mass/volume] in Blood</td><td>9.5</td><td>7 - 20</td><td>mg/dL</td></tr><tr><td>Creatinine [Mass/volume] in Blood</td><td><strong>2.9 H</strong></td><td>0.9 - 1.3</td><td>mg/dL</td></tr><tr><td>Calcium [Mass/volume] in Blood</td><td>9.8</td><td>8.5 - 10.5</td><td>mg/dL</td></tr><tr><td>Sodium [Moles/volume] in Blood</td><td>141.1</td><td>135 - 145</td><td>mmol/L</td></tr><tr><td>Potassium [Moles/volume] in Blood</td><td>4.1</td><td>3.5 - 5.1</td><td>mmol/L</td></tr><tr><td>Chloride [Moles/volume] in Blood</td><td><strong>109.9 H</strong></td><td>98 - 108</td><td>mmol/L</td></tr><tr><td>Carbon dioxide, total [Moles/volume] in Blood</td><td><strong>21.0 L</strong></td><td>22 - 29</td><td>mmol/L</td></tr></tbody></table></div>"
                },
                "title": "Chemistry"
              },
              {
                "code": {
                  "coding": [
                    {
                      "code": "$18729-4",
                      "system": "http://loinc.org",
                      "display": "Urinalysis studies (set)"
                    }
                  ],
                  "text": "Urinalysis"
                },
                "entry": [
                  {
                    "reference": "urn:uuid:d2d093e9-b58a-4e23-be82-a205f91a9a7a"
                  },
                  {
                    "reference": "urn:uuid:ef6a8fcc-3f0c-4ea1-b88c-7bdbc6f10cc5"
                  },
                  {
                    "reference": "urn:uuid:e21f7e2b-8824-4ddd-84a6-8976ca5c83d6"
                  },
                  {
                    "reference": "urn:uuid:b5faff16-c2c7-47d6-bd19-e8cbf144f23d"
                  },
                  {
                    "reference": "urn:uuid:a4a377f4-2db3-4f21-84d0-25b2f6e7bae3"
                  },
                  {
                    "reference": "urn:uuid:0718c154-9e54-46fe-b1a9-5e7fab1e5bd4"
                  },
                  {
                    "reference": "urn:uuid:2f1cef86-031a-4529-b2d6-9f58393762b9"
                  },
                  {
                    "reference": "urn:uuid:fb19b4d0-93a8-4ccb-8246-0b8d267d9594"
                  },
                  {
                    "reference": "urn:uuid:0e4eaea0-66cd-4e7d-be73-3b0a2a5058f9"
                  },
                  {
                    "reference": "urn:uuid:42cde795-1a91-4ad1-a83f-64e45708d07a"
                  },
                  {
                    "reference": "urn:uuid:e1b1cc32-deeb-41e5-8b80-9fbe6d8693de"
                  },
                  {
                    "reference": "urn:uuid:51052b05-0bb7-4e22-a4e9-8699ddbed3ab"
                  }
                ],
                "text": {
                  "status": "generated",
                  "div": "<div xmlns=\"http://www.w3.org/1999/xhtml\"><h3>Urinalysis</h3><table class=\"hl7__eu__lab__report\"><thead><tr><th>Test</th><th>06-JAN-2023</th><th>Reference&#xA0;Range</th><th>Unit</th></tr></thead><tbody><tr><td>Glucose [Mass/volume] in Urine by Test strip</td><td><strong>1.3 H</strong></td><td>0 - 0.8</td><td>mg/dL</td></tr><tr><td>Glucose [Presence] in Urine by Test strip</td><td>++</td><td></td><td></td></tr><tr><td>Bilirubin.total [Mass/volume] in Urine by Test strip</td><td>0.5</td><td>0 - 1.9</td><td>mg/dL</td></tr><tr><td>Bilirubin.total [Presence] in Urine by Test strip</td><td>Finding of bilirubin in urine</td><td></td><td></td></tr><tr><td>Ketones [Mass/volume] in Urine by Test strip</td><td>2.4</td><td>0 - 3</td><td>mg/dL</td></tr><tr><td>Specific gravity of Urine by Test strip</td><td><strong>1.0 L</strong></td><td>1.01 - 1.03</td><td>{nominal}</td></tr><tr><td>pH of Urine by Test strip</td><td>5.4</td><td>4.5 - 7.5</td><td>pH</td></tr><tr><td>Protein [Mass/volume] in Urine by Test strip</td><td><strong>267.5 H</strong></td><td>0 - 149</td><td>mg/dL</td></tr><tr><td>Protein [Presence] in Urine by Test strip</td><td>Urine protein test = ++</td><td></td><td></td></tr><tr><td>Nitrite [Presence] in Urine by Test strip</td><td>Urine nitrite negative</td><td></td><td></td></tr><tr><td>Hemoglobin [Presence] in Urine by Test strip</td><td>Urine blood test = negative</td><td></td><td></td></tr><tr><td>Leukocyte esterase [Presence] in Urine by Test strip</td><td>Urine leukocyte test negative</td><td></td><td></td></tr></tbody></table></div>"
                },
                "title": "Urinalysis"
              },
              {
                "code": {
                  "coding": [
                    {
                      "code": "$LP7846-1",
                      "system": "http://loinc.org",
                      "display": "Specimen information"
                    }
                  ],
                  "text": "Specimen information"
                },
                "entry": [
                  {
                    "reference": "urn:uuid:ac7c57bd-7465-47ee-a9b5-a3267492d18f"
                  },
                  {
                    "reference": "urn:uuid:11bdbb3f-3ca9-4593-9c0a-a6bc6e3b909a"
                  },
                  {
                    "reference": "urn:uuid:52e8cb8e-1a1c-4fab-bfcc-acdddc0c50fe"
                  },
                  {
                    "reference": "urn:uuid:68d159e2-6f50-4663-89cc-8c852c7897a7"
                  }
                ],
                "text": {
                  "status": "generated",
                  "div": "<div xmlns=\"http://www.w3.org/1999/xhtml\"><h3>Specimen information</h3><table class=\"hl7__eu__lab__report\"><thead><tr><th>Test</th><th>06-JAN-2023</th><th>Specimen</th><th></th></tr></thead><tbody><tr><td>Appearance of Urine</td><td>Cloudy urine</td><td>Urine</td><td></td></tr><tr><td>Odor of Urine</td><td>Urine smell ammoniacal</td><td>Urine</td><td></td></tr><tr><td>Clarity of Urine</td><td>Translucent</td><td>Urine</td><td></td></tr><tr><td>Color of Urine</td><td>Brown color</td><td>Urine</td><td></td></tr></tbody></table></div>"
                },
                "title": "Specimen information"
              }
            ],
            "title": "Laboratory Report"
          },
          {
            "text": {
              "status": "generated",
              "div": "<div xmlns=\"http://www.w3.org/1999/xhtml\"><h3>Annotation</h3><table class=\"hl7__eu__lab__report\"><tr><th>Conclusion and Recommendations based on this report and previous findings known to us</th></tr><tr><td>The patient shows hypoglycemia, low HbA1c, elevated creatinine, and proteinuria, suggesting possible chronic kidney disease with impaired glucose regulation. Urine findings (cloudy, brown, low specific gravity, protein, glucose, ketones) may indicate renal dysfunction and possible dehydration. No evidence of urinary infection. Metabolic acidosis is suggested by low CO₂ and elevated chloride. Clinical correlation and further nephrological and metabolic evaluation are recommended.</td></tr></table></div>"
            },
            "code": {
              "coding": [
                {
                  "system": "http://loinc.org",
                  "code": "48767-8",
                  "display": "Annotation comment"
                }
              ]
            },
            "title": "Annotation comment"
          }
        ],
        "status": "final",
        "subject": {
          "reference": "urn:uuid:2c04d307-f369-4893-9f29-4e58704d28e3",
          "display": "Victor Lagarde"
        },
        "date": "2023-01-06T05:48:18Z",
        "title": "Laboratory Report",
        "confidentiality": "N"
      }
    },
    {
      "fullUrl": "urn:uuid:fd02d10c-f77b-4ed7-b1fe-99730c499fb7",
      "resource": {
        "resourceType": "DiagnosticReport",
        "id": "fd02d10c-f77b-4ed7-b1fe-99730c499fb7",
        "meta": {
          "profile": [
            "http://hl7.eu/fhir/laboratory/StructureDefinition/DiagnosticReport-eu-lab"
          ]
        },
        "identifier": [
          {
            "assigner": {
              "display": "HL7 Europe"
            },
            "system": "urn:oid:2.16.840.1.113883.2.51.999",
            "value": "b85c4c97-70a3-4f1a-8a0d-48a776220c81"
          }
        ],
        "extension": [
          {
            "url": "http://hl7.org/fhir/5.0/StructureDefinition/extension-DiagnosticReport.composition",
            "valueReference": {
              "reference": "urn:uuid:63fa0187-b19f-4f09-b299-0e92fd1bb282"
            }
          }
        ],
        "category": [
          {
            "coding": [
              {
                "code": "26436-6",
                "system": "http://loinc.org",
                "display": "Laboratory studies (set)"
              }
            ]
          }
        ],
        "specimen": [
          {
            "reference": "urn:uuid:07217275-01ac-4f7a-883c-6839336c111f"
          },
          {
            "reference": "urn:uuid:194bd86b-37d2-4579-a8da-602c13a20e77"
          },
          {
            "reference": "urn:uuid:c3849c6b-c42f-485e-8ecd-dcd5984e5db3"
          }
        ],
        "result": [
          {
            "reference": "urn:uuid:0a45e5ee-a22a-4d89-b186-8d45dee765c3"
          },
          {
            "reference": "urn:uuid:3f31218c-9834-4216-9ca8-fdfabcb20487"
          },
          {
            "reference": "urn:uuid:ab289646-ddb7-477e-87c8-9b210c03093b"
          },
          {
            "reference": "urn:uuid:7b03c4fa-5194-4245-93ec-10143438a62a"
          },
          {
            "reference": "urn:uuid:076aba07-20d3-4b1b-a208-c6d4633b9bc2"
          },
          {
            "reference": "urn:uuid:0d229831-1c0d-40f6-a77f-66aaf8cbb8ba"
          },
          {
            "reference": "urn:uuid:f016ab97-dcc2-4e8a-965e-30437b3f0afe"
          },
          {
            "reference": "urn:uuid:68974c7d-4593-40a0-a01e-e8143c7da76d"
          },
          {
            "reference": "urn:uuid:ac7c57bd-7465-47ee-a9b5-a3267492d18f"
          },
          {
            "reference": "urn:uuid:11bdbb3f-3ca9-4593-9c0a-a6bc6e3b909a"
          },
          {
            "reference": "urn:uuid:52e8cb8e-1a1c-4fab-bfcc-acdddc0c50fe"
          },
          {
            "reference": "urn:uuid:68d159e2-6f50-4663-89cc-8c852c7897a7"
          },
          {
            "reference": "urn:uuid:d2d093e9-b58a-4e23-be82-a205f91a9a7a"
          },
          {
            "reference": "urn:uuid:ef6a8fcc-3f0c-4ea1-b88c-7bdbc6f10cc5"
          },
          {
            "reference": "urn:uuid:e21f7e2b-8824-4ddd-84a6-8976ca5c83d6"
          },
          {
            "reference": "urn:uuid:b5faff16-c2c7-47d6-bd19-e8cbf144f23d"
          },
          {
            "reference": "urn:uuid:a4a377f4-2db3-4f21-84d0-25b2f6e7bae3"
          },
          {
            "reference": "urn:uuid:4499d0e0-bc9e-4a09-a39f-e9dd8094eff1"
          },
          {
            "reference": "urn:uuid:0718c154-9e54-46fe-b1a9-5e7fab1e5bd4"
          },
          {
            "reference": "urn:uuid:2f1cef86-031a-4529-b2d6-9f58393762b9"
          },
          {
            "reference": "urn:uuid:fb19b4d0-93a8-4ccb-8246-0b8d267d9594"
          },
          {
            "reference": "urn:uuid:0e4eaea0-66cd-4e7d-be73-3b0a2a5058f9"
          },
          {
            "reference": "urn:uuid:42cde795-1a91-4ad1-a83f-64e45708d07a"
          },
          {
            "reference": "urn:uuid:e1b1cc32-deeb-41e5-8b80-9fbe6d8693de"
          },
          {
            "reference": "urn:uuid:51052b05-0bb7-4e22-a4e9-8699ddbed3ab"
          },
          {
            "reference": "urn:uuid:19cadfd4-9a06-4b74-af2e-d3c2d28b850d"
          },
          {
            "reference": "urn:uuid:dd75c6cf-849e-48c2-b179-9ff28428df40"
          },
          {
            "reference": "urn:uuid:350ce4f9-cd4a-4897-bfa0-236d988abd72"
          },
          {
            "reference": "urn:uuid:95a45280-3aba-4a06-a60c-bb7597614e85"
          },
          {
            "reference": "urn:uuid:db5cacbf-a923-4d31-9ab3-6a1ed5e6fd70"
          },
          {
            "reference": "urn:uuid:8189dd63-23c3-4811-b466-2cc7ef9bb8cd"
          },
          {
            "reference": "urn:uuid:2ac32046-5c35-47cb-b4f1-d40376038ce3"
          },
          {
            "reference": "urn:uuid:af108d46-2c6c-4cda-810c-25cfc4ed92a8"
          },
          {
            "reference": "urn:uuid:720bb9f4-ccfc-4171-b79a-e10d09ee1692"
          }
        ],
        "status": "registered",
        "code": {
          "coding": [
            {
              "code": "11502-2",
              "system": "http://loinc.org",
              "display": "Laboratory report"
            }
          ]
        },
        "subject": {
          "reference": "urn:uuid:2c04d307-f369-4893-9f29-4e58704d28e3",
          "display": "Victor Lagarde"
        }
      }
    },
    {
      "fullUrl": "urn:uuid:2c04d307-f369-4893-9f29-4e58704d28e3",
      "resource": {
        "resourceType": "Patient",
        "id": "2c04d307-f369-4893-9f29-4e58704d28e3",
        "meta": {
          "security": [
            {
              "system": "http://terminology.hl7.org/CodeSystem/v3-ActReason",
              "code": "HTEST"
            },
            {
              "system": "http://terminology.hl7.org/CodeSystem/v3-ActReason",
              "code": "TRAIN"
            }
          ],
          "tag": [
            {
              "system": "https://synderai.net/fhir/CodeSystem/tags",
              "code": "synthetic",
              "display": "SYNDERAI Synthetic data"
            }
          ],
          "profile": [
            "http://hl7.eu/fhir/base/StructureDefinition/patient-eu-core"
          ]
        },
        "identifier": [
          {
            "type": {
              "coding": [
                {
                  "code": "PT",
                  "system": "http://terminology.hl7.org/CodeSystem/v2-0203"
                }
              ]
            },
            "system": "http://ec.europa.eu/identifier/eci",
            "value": "9925-001801-9"
          },
          {
            "type": {
              "coding": [
                {
                  "code": "MR",
                  "system": "http://terminology.hl7.org/CodeSystem/v2-0203"
                }
              ]
            },
            "system": "http://local.setting.eu/identifier",
            "value": "22c2dfd0-ac57-8833-2532-848f180896a4"
          }
        ],
        "name": [
          {
            "family": "Lagarde"
          },
          {
            "given": [
              "Victor"
            ]
          },
          {
            "text": "Victor Lagarde"
          }
        ],
        "address": [
          {
            "line": [
              "avenue Robert"
            ],
            "use": "home",
            "type": "physical",
            "postalCode": "80300",
            "city": "Albert",
            "country": "France"
          }
        ],
        "telecom": [
          {
            "system": "phone",
            "value": "0177941801"
          }
        ],
        "extension": [
          {
            "url": "http://hl7.org/fhir/StructureDefinition/patient-nationality",
            "valueCodeableConcept": {
              "coding": [
                {
                  "code": "FR",
                  "system": "http://hl7.org/fhir/ValueSet/country"
                }
              ]
            }
          }
        ],
        "text": {
          "status": "generated",
          "div": "<div xmlns=\"http://www.w3.org/1999/xhtml\"><table class=\"hl7__ips\"><tr><td>Victor Lagarde</td><td>male</td><td>31-Aug-1939</td></tr></table></div>"
        },
        "gender": "male",
        "birthDate": "1939-08-31"
      }
    },
    {
      "fullUrl": "urn:uuid:9d310933-a483-4fac-b2fd-d494a5c3f3eb",
      "resource": {
        "resourceType": "ServiceRequest",
        "id": "9d310933-a483-4fac-b2fd-d494a5c3f3eb",
        "meta": {
          "profile": [
            "http://hl7.eu/fhir/laboratory/StructureDefinition/ServiceRequest-eu-lab"
          ]
        },
        "identifier": [
          {
            "system": "http://example.org",
            "value": "5c634f5e-09a9-4ca0-9513-db5a38696eb1"
          }
        ],
        "specimen": [
          {
            "reference": "urn:uuid:07217275-01ac-4f7a-883c-6839336c111f"
          },
          {
            "reference": "urn:uuid:194bd86b-37d2-4579-a8da-602c13a20e77"
          },
          {
            "reference": "urn:uuid:c3849c6b-c42f-485e-8ecd-dcd5984e5db3"
          }
        ],
        "reasonCode": [
          {
            "coding": [
              {
                "code": "433144002",
                "system": "http://snomed.info/sct",
                "display": "Chronic kidney disease stage 3"
              }
            ]
          },
          {
            "coding": [
              {
                "code": "157141000119108",
                "system": "http://snomed.info/sct",
                "display": "Proteinuria due to type 2 diabetes mellitus"
              }
            ]
          },
          {
            "coding": [
              {
                "code": "431856006",
                "system": "http://snomed.info/sct",
                "display": "Chronic kidney disease stage 2"
              }
            ]
          },
          {
            "coding": [
              {
                "code": "90781000119102",
                "system": "http://snomed.info/sct",
                "display": "Microalbuminuria due to type 2 diabetes mellitus"
              }
            ]
          },
          {
            "coding": [
              {
                "code": "127013003",
                "system": "http://snomed.info/sct",
                "display": "Disorder of kidney due to diabetes mellitus"
              }
            ]
          },
          {
            "coding": [
              {
                "code": "431855005",
                "system": "http://snomed.info/sct",
                "display": "Chronic kidney disease stage 1"
              }
            ]
          },
          {
            "coding": [
              {
                "code": "55822004",
                "system": "http://snomed.info/sct",
                "display": "Hyperlipidemia"
              }
            ]
          },
          {
            "coding": [
              {
                "code": "59621000",
                "system": "http://snomed.info/sct",
                "display": "Essential hypertension"
              }
            ]
          },
          {
            "coding": [
              {
                "code": "237602007",
                "system": "http://snomed.info/sct",
                "display": "Metabolic syndrome X"
              }
            ]
          },
          {
            "coding": [
              {
                "code": "414545008",
                "system": "http://snomed.info/sct",
                "display": "Ischemic heart disease"
              }
            ]
          },
          {
            "coding": [
              {
                "code": "40055000",
                "system": "http://snomed.info/sct",
                "display": "Chronic sinusitis"
              }
            ]
          },
          {
            "coding": [
              {
                "code": "15777000",
                "system": "http://snomed.info/sct",
                "display": "Prediabetes"
              }
            ]
          },
          {
            "coding": [
              {
                "code": "271737000",
                "system": "http://snomed.info/sct",
                "display": "Anemia"
              }
            ]
          }
        ],
        "status": "active",
        "intent": "order",
        "code": {
          "coding": [
            {
              "code": "108252007",
              "system": "http://snomed.info/sct",
              "display": "Laboratory procedure"
            }
          ]
        },
        "subject": {
          "reference": "urn:uuid:2c04d307-f369-4893-9f29-4e58704d28e3",
          "display": "Victor Lagarde"
        },
        "requester": {
          "reference": "urn:uuid:82267f2a-098f-4bd9-b434-9d7cb2607e88"
        }
      }
    },
    {
      "fullUrl": "urn:uuid:82267f2a-098f-4bd9-b434-9d7cb2607e88",
      "resource": {
        "resourceType": "PractitionerRole",
        "id": "82267f2a-098f-4bd9-b434-9d7cb2607e88",
        "meta": {
          "profile": [
            "http://hl7.eu/fhir/base/StructureDefinition/practitionerRole-eu"
          ]
        },
        "text": {
          "status": "generated",
          "div": "<div xmlns=\"http://www.w3.org/1999/xhtml\">Provider Role Id: 82267f2a-098f-4bd9-b434-9d7cb2607e88</div>"
        },
        "organization": {
          "reference": "urn:uuid:5a8862db-32db-42bf-9a99-33b18171a0d2"
        }
      }
    },
    {
      "fullUrl": "urn:uuid:5a8862db-32db-42bf-9a99-33b18171a0d2",
      "resource": {
        "resourceType": "Organization",
        "id": "5a8862db-32db-42bf-9a99-33b18171a0d2",
        "meta": {
          "profile": [
            "http://hl7.eu/fhir/base/StructureDefinition/organization-eu"
          ]
        },
        "identifier": [
          {
            "assigner": {
              "display": "HL7 Europe"
            },
            "system": "urn:oid:2.16.840.1.113883.2.51.999",
            "value": "5f359702-291d-4fbd-9dc2-09b0851d855d"
          }
        ],
        "address": [
          {
            "city": "Auxerre",
            "postalCode": "89000",
            "country": "France"
          }
        ],
        "text": {
          "status": "generated",
          "div": "<div xmlns=\"http://www.w3.org/1999/xhtml\">Provider Organization: Thiriot Didier (Cardiologie)</div>"
        },
        "name": "Thiriot Didier (Cardiologie)"
      }
    },
    {
      "fullUrl": "urn:uuid:07217275-01ac-4f7a-883c-6839336c111f",
      "resource": {
        "resourceType": "Specimen",
        "id": "07217275-01ac-4f7a-883c-6839336c111f",
        "meta": {
          "profile": [
            "http://hl7.eu/fhir/laboratory/StructureDefinition/Specimen-eu-lab"
          ]
        },
        "collection": {
          "collectedDateTime": "2023-01-06"
        },
        "text": {
          "status": "generated",
          "div": "<div xmlns=\"http://www.w3.org/1999/xhtml\"><table class=\"hl7__eu__lab__report\"><tr><th>Specimen</th><th>Collection Date</th></tr><tr><td>Acellular blood (serum or plasma) specimen</td><td><span class=\"nb\">06-Jan-2023</span></td></tr></table></div>"
        },
        "type": {
          "coding": [
            {
              "code": "122592007",
              "system": "http://snomed.info/sct",
              "display": "Acellular blood (serum or plasma) specimen"
            }
          ]
        }
      }
    },
    {
      "fullUrl": "urn:uuid:194bd86b-37d2-4579-a8da-602c13a20e77",
      "resource": {
        "resourceType": "Specimen",
        "id": "194bd86b-37d2-4579-a8da-602c13a20e77",
        "meta": {
          "profile": [
            "http://hl7.eu/fhir/laboratory/StructureDefinition/Specimen-eu-lab"
          ]
        },
        "collection": {
          "collectedDateTime": "2023-01-06"
        },
        "text": {
          "status": "generated",
          "div": "<div xmlns=\"http://www.w3.org/1999/xhtml\"><table class=\"hl7__eu__lab__report\"><tr><th>Specimen</th><th>Collection Date</th></tr><tr><td>Urine specimen</td><td><span class=\"nb\">06-Jan-2023</span></td></tr></table></div>"
        },
        "type": {
          "coding": [
            {
              "code": "122575003",
              "system": "http://snomed.info/sct",
              "display": "Urine specimen"
            }
          ]
        }
      }
    },
    {
      "fullUrl": "urn:uuid:c3849c6b-c42f-485e-8ecd-dcd5984e5db3",
      "resource": {
        "resourceType": "Specimen",
        "id": "c3849c6b-c42f-485e-8ecd-dcd5984e5db3",
        "meta": {
          "profile": [
            "http://hl7.eu/fhir/laboratory/StructureDefinition/Specimen-eu-lab"
          ]
        },
        "collection": {
          "collectedDateTime": "2023-01-06"
        },
        "text": {
          "status": "generated",
          "div": "<div xmlns=\"http://www.w3.org/1999/xhtml\"><table class=\"hl7__eu__lab__report\"><tr><th>Specimen</th><th>Collection Date</th></tr><tr><td>Whole blood specimen (specimen)</td><td><span class=\"nb\">06-Jan-2023</span></td></tr></table></div>"
        },
        "type": {
          "coding": [
            {
              "code": "258580003",
              "system": "http://snomed.info/sct",
              "display": "Whole blood specimen (specimen)"
            }
          ]
        }
      }
    },
    {
      "fullUrl": "urn:uuid:0a45e5ee-a22a-4d89-b186-8d45dee765c3",
      "resource": {
        "resourceType": "Observation",
        "id": "0a45e5ee-a22a-4d89-b186-8d45dee765c3",
        "meta": {
          "profile": [
            "http://hl7.eu/fhir/laboratory/StructureDefinition/Observation-resultslab-eu-lab"
          ]
        },
        "performer": [
          {
            "display": "The Central European Lab"
          }
        ],
        "category": [
          {
            "coding": [
              {
                "system": "http://terminology.hl7.org/CodeSystem/observation-category",
                "code": "laboratory"
              }
            ]
          }
        ],
        "code": {
          "coding": [
            {
              "code": "2345-7",
              "system": "http://loinc.org",
              "display": "Glucose [Mass/volume] in Serum or Plasma"
            }
          ],
          "text": "Glucose [Mass/volume] in Serum or Plasma"
        },
        "valueQuantity": {
          "system": "http://unitsofmeasure.org",
          "value": 64.7,
          "unit": "mg/dL",
          "code": "mg/dL"
        },
        "referenceRange": [
          {
            "low": {
              "value": 70,
              "code": "mg/dL",
              "system": "http://unitsofmeasure.org"
            }
          },
          {
            "high": {
              "value": 140,
              "code": "mg/dL",
              "system": "http://unitsofmeasure.org"
            }
          }
        ],
        "interpretation": [
          {
            "coding": [
              {
                "code": "L",
                "system": "http://terminology.hl7.org/CodeSystem/v3-ObservationInterpretation",
                "display": "Low"
              }
            ]
          }
        ],
        "text": {
          "status": "generated",
          "div": "<div xmlns=\"http://www.w3.org/1999/xhtml\"><table class=\"hl7__eu__lab__report\"><tr><th>Test</th><th>06-Jan-2023</th><th>Reference&#xA0;Range</th><th>Unit</th></tr><tr><td>Glucose [Mass/volume] in Serum or Plasma</td><td>64.7</td><td>70 - 140</td><td>L</td><td>mg/dL</td></tr></table></div>"
        },
        "status": "final",
        "subject": {
          "reference": "urn:uuid:2c04d307-f369-4893-9f29-4e58704d28e3",
          "display": "Victor Lagarde"
        },
        "effectiveDateTime": "2023-01-06T04:48:18Z",
        "specimen": {
          "reference": "urn:uuid:07217275-01ac-4f7a-883c-6839336c111f"
        }
      }
    },
    {
      "fullUrl": "urn:uuid:3f31218c-9834-4216-9ca8-fdfabcb20487",
      "resource": {
        "resourceType": "Observation",
        "id": "3f31218c-9834-4216-9ca8-fdfabcb20487",
        "meta": {
          "profile": [
            "http://hl7.eu/fhir/laboratory/StructureDefinition/Observation-resultslab-eu-lab"
          ]
        },
        "performer": [
          {
            "display": "The Central European Lab"
          }
        ],
        "category": [
          {
            "coding": [
              {
                "system": "http://terminology.hl7.org/CodeSystem/observation-category",
                "code": "laboratory"
              }
            ]
          }
        ],
        "code": {
          "coding": [
            {
              "code": "3094-0",
              "system": "http://loinc.org",
              "display": "Urea nitrogen [Mass/volume] in Serum or Plasma"
            }
          ],
          "text": "Urea nitrogen [Mass/volume] in Serum or Plasma"
        },
        "valueQuantity": {
          "system": "http://unitsofmeasure.org",
          "value": 9.5,
          "unit": "mg/dL",
          "code": "mg/dL"
        },
        "referenceRange": [
          {
            "low": {
              "value": 7,
              "code": "mg/dL",
              "system": "http://unitsofmeasure.org"
            }
          },
          {
            "high": {
              "value": 20,
              "code": "mg/dL",
              "system": "http://unitsofmeasure.org"
            }
          }
        ],
        "text": {
          "status": "generated",
          "div": "<div xmlns=\"http://www.w3.org/1999/xhtml\"><table class=\"hl7__eu__lab__report\"><tr><th>Test</th><th>06-Jan-2023</th><th>Reference&#xA0;Range</th><th>Unit</th></tr><tr><td>Urea nitrogen [Mass/volume] in Serum or Plasma</td><td>9.5</td><td>7 - 20</td><td></td><td>mg/dL</td></tr></table></div>"
        },
        "status": "final",
        "subject": {
          "reference": "urn:uuid:2c04d307-f369-4893-9f29-4e58704d28e3",
          "display": "Victor Lagarde"
        },
        "effectiveDateTime": "2023-01-06T04:48:18Z",
        "specimen": {
          "reference": "urn:uuid:07217275-01ac-4f7a-883c-6839336c111f"
        }
      }
    },
    {
      "fullUrl": "urn:uuid:ab289646-ddb7-477e-87c8-9b210c03093b",
      "resource": {
        "resourceType": "Observation",
        "id": "ab289646-ddb7-477e-87c8-9b210c03093b",
        "meta": {
          "profile": [
            "http://hl7.eu/fhir/laboratory/StructureDefinition/Observation-resultslab-eu-lab"
          ]
        },
        "performer": [
          {
            "display": "The Central European Lab"
          }
        ],
        "category": [
          {
            "coding": [
              {
                "system": "http://terminology.hl7.org/CodeSystem/observation-category",
                "code": "laboratory"
              }
            ]
          }
        ],
        "code": {
          "coding": [
            {
              "code": "2160-0",
              "system": "http://loinc.org",
              "display": "Creatinine [Mass/volume] in Serum or Plasma"
            }
          ],
          "text": "Creatinine [Mass/volume] in Serum or Plasma"
        },
        "valueQuantity": {
          "system": "http://unitsofmeasure.org",
          "value": 2,
          "unit": "mg/dL",
          "code": "mg/dL"
        },
        "referenceRange": [
          {
            "low": {
              "value": 0.9,
              "code": "mg/dL",
              "system": "http://unitsofmeasure.org"
            }
          },
          {
            "high": {
              "value": 1.3,
              "code": "mg/dL",
              "system": "http://unitsofmeasure.org"
            }
          }
        ],
        "interpretation": [
          {
            "coding": [
              {
                "code": "H",
                "system": "http://terminology.hl7.org/CodeSystem/v3-ObservationInterpretation",
                "display": "High"
              }
            ]
          }
        ],
        "text": {
          "status": "generated",
          "div": "<div xmlns=\"http://www.w3.org/1999/xhtml\"><table class=\"hl7__eu__lab__report\"><tr><th>Test</th><th>06-Jan-2023</th><th>Reference&#xA0;Range</th><th>Unit</th></tr><tr><td>Creatinine [Mass/volume] in Serum or Plasma</td><td>2.0</td><td>0.9 - 1.3</td><td>H</td><td>mg/dL</td></tr></table></div>"
        },
        "status": "final",
        "subject": {
          "reference": "urn:uuid:2c04d307-f369-4893-9f29-4e58704d28e3",
          "display": "Victor Lagarde"
        },
        "effectiveDateTime": "2023-01-06T04:48:18Z",
        "specimen": {
          "reference": "urn:uuid:07217275-01ac-4f7a-883c-6839336c111f"
        }
      }
    },
    {
      "fullUrl": "urn:uuid:7b03c4fa-5194-4245-93ec-10143438a62a",
      "resource": {
        "resourceType": "Observation",
        "id": "7b03c4fa-5194-4245-93ec-10143438a62a",
        "meta": {
          "profile": [
            "http://hl7.eu/fhir/laboratory/StructureDefinition/Observation-resultslab-eu-lab"
          ]
        },
        "performer": [
          {
            "display": "The Central European Lab"
          }
        ],
        "category": [
          {
            "coding": [
              {
                "system": "http://terminology.hl7.org/CodeSystem/observation-category",
                "code": "laboratory"
              }
            ]
          }
        ],
        "code": {
          "coding": [
            {
              "code": "17861-6",
              "system": "http://loinc.org",
              "display": "Calcium [Mass/volume] in Serum or Plasma"
            }
          ],
          "text": "Calcium [Mass/volume] in Serum or Plasma"
        },
        "valueQuantity": {
          "system": "http://unitsofmeasure.org",
          "value": 9.8,
          "unit": "mg/dL",
          "code": "mg/dL"
        },
        "referenceRange": [
          {
            "low": {
              "value": 8.5,
              "code": "mg/dL",
              "system": "http://unitsofmeasure.org"
            }
          },
          {
            "high": {
              "value": 10.5,
              "code": "mg/dL",
              "system": "http://unitsofmeasure.org"
            }
          }
        ],
        "text": {
          "status": "generated",
          "div": "<div xmlns=\"http://www.w3.org/1999/xhtml\"><table class=\"hl7__eu__lab__report\"><tr><th>Test</th><th>06-Jan-2023</th><th>Reference&#xA0;Range</th><th>Unit</th></tr><tr><td>Calcium [Mass/volume] in Serum or Plasma</td><td>9.8</td><td>8.5 - 10.5</td><td></td><td>mg/dL</td></tr></table></div>"
        },
        "status": "final",
        "subject": {
          "reference": "urn:uuid:2c04d307-f369-4893-9f29-4e58704d28e3",
          "display": "Victor Lagarde"
        },
        "effectiveDateTime": "2023-01-06T04:48:18Z",
        "specimen": {
          "reference": "urn:uuid:07217275-01ac-4f7a-883c-6839336c111f"
        }
      }
    },
    {
      "fullUrl": "urn:uuid:076aba07-20d3-4b1b-a208-c6d4633b9bc2",
      "resource": {
        "resourceType": "Observation",
        "id": "076aba07-20d3-4b1b-a208-c6d4633b9bc2",
        "meta": {
          "profile": [
            "http://hl7.eu/fhir/laboratory/StructureDefinition/Observation-resultslab-eu-lab"
          ]
        },
        "performer": [
          {
            "display": "The Central European Lab"
          }
        ],
        "category": [
          {
            "coding": [
              {
                "system": "http://terminology.hl7.org/CodeSystem/observation-category",
                "code": "laboratory"
              }
            ]
          }
        ],
        "code": {
          "coding": [
            {
              "code": "2951-2",
              "system": "http://loinc.org",
              "display": "Sodium [Moles/volume] in Serum or Plasma"
            }
          ],
          "text": "Sodium [Moles/volume] in Serum or Plasma"
        },
        "valueQuantity": {
          "system": "http://unitsofmeasure.org",
          "value": 141.1,
          "unit": "mmol/L",
          "code": "mmol/L"
        },
        "referenceRange": [
          {
            "low": {
              "value": 135,
              "code": "mmol/L",
              "system": "http://unitsofmeasure.org"
            }
          },
          {
            "high": {
              "value": 145,
              "code": "mmol/L",
              "system": "http://unitsofmeasure.org"
            }
          }
        ],
        "text": {
          "status": "generated",
          "div": "<div xmlns=\"http://www.w3.org/1999/xhtml\"><table class=\"hl7__eu__lab__report\"><tr><th>Test</th><th>06-Jan-2023</th><th>Reference&#xA0;Range</th><th>Unit</th></tr><tr><td>Sodium [Moles/volume] in Serum or Plasma</td><td>141.1</td><td>135 - 145</td><td></td><td>mmol/L</td></tr></table></div>"
        },
        "status": "final",
        "subject": {
          "reference": "urn:uuid:2c04d307-f369-4893-9f29-4e58704d28e3",
          "display": "Victor Lagarde"
        },
        "effectiveDateTime": "2023-01-06T04:48:18Z",
        "specimen": {
          "reference": "urn:uuid:07217275-01ac-4f7a-883c-6839336c111f"
        }
      }
    },
    {
      "fullUrl": "urn:uuid:0d229831-1c0d-40f6-a77f-66aaf8cbb8ba",
      "resource": {
        "resourceType": "Observation",
        "id": "0d229831-1c0d-40f6-a77f-66aaf8cbb8ba",
        "meta": {
          "profile": [
            "http://hl7.eu/fhir/laboratory/StructureDefinition/Observation-resultslab-eu-lab"
          ]
        },
        "performer": [
          {
            "display": "The Central European Lab"
          }
        ],
        "category": [
          {
            "coding": [
              {
                "system": "http://terminology.hl7.org/CodeSystem/observation-category",
                "code": "laboratory"
              }
            ]
          }
        ],
        "code": {
          "coding": [
            {
              "code": "2823-3",
              "system": "http://loinc.org",
              "display": "Potassium [Moles/volume] in Serum or Plasma"
            }
          ],
          "text": "Potassium [Moles/volume] in Serum or Plasma"
        },
        "valueQuantity": {
          "system": "http://unitsofmeasure.org",
          "value": 4.1,
          "unit": "mmol/L",
          "code": "mmol/L"
        },
        "referenceRange": [
          {
            "low": {
              "value": 3.5,
              "code": "mmol/L",
              "system": "http://unitsofmeasure.org"
            }
          },
          {
            "high": {
              "value": 5.3,
              "code": "mmol/L",
              "system": "http://unitsofmeasure.org"
            }
          }
        ],
        "text": {
          "status": "generated",
          "div": "<div xmlns=\"http://www.w3.org/1999/xhtml\"><table class=\"hl7__eu__lab__report\"><tr><th>Test</th><th>06-Jan-2023</th><th>Reference&#xA0;Range</th><th>Unit</th></tr><tr><td>Potassium [Moles/volume] in Serum or Plasma</td><td>4.1</td><td>3.5 - 5.3</td><td></td><td>mmol/L</td></tr></table></div>"
        },
        "status": "final",
        "subject": {
          "reference": "urn:uuid:2c04d307-f369-4893-9f29-4e58704d28e3",
          "display": "Victor Lagarde"
        },
        "effectiveDateTime": "2023-01-06T04:48:18Z",
        "specimen": {
          "reference": "urn:uuid:07217275-01ac-4f7a-883c-6839336c111f"
        }
      }
    },
    {
      "fullUrl": "urn:uuid:f016ab97-dcc2-4e8a-965e-30437b3f0afe",
      "resource": {
        "resourceType": "Observation",
        "id": "f016ab97-dcc2-4e8a-965e-30437b3f0afe",
        "meta": {
          "profile": [
            "http://hl7.eu/fhir/laboratory/StructureDefinition/Observation-resultslab-eu-lab"
          ]
        },
        "performer": [
          {
            "display": "The Central European Lab"
          }
        ],
        "category": [
          {
            "coding": [
              {
                "system": "http://terminology.hl7.org/CodeSystem/observation-category",
                "code": "laboratory"
              }
            ]
          }
        ],
        "code": {
          "coding": [
            {
              "code": "2075-0",
              "system": "http://loinc.org",
              "display": "Chloride [Moles/volume] in Serum or Plasma"
            }
          ],
          "text": "Chloride [Moles/volume] in Serum or Plasma"
        },
        "valueQuantity": {
          "system": "http://unitsofmeasure.org",
          "value": 109.9,
          "unit": "mmol/L",
          "code": "mmol/L"
        },
        "referenceRange": [
          {
            "low": {
              "value": 98,
              "code": "mmol/L",
              "system": "http://unitsofmeasure.org"
            }
          },
          {
            "high": {
              "value": 107,
              "code": "mmol/L",
              "system": "http://unitsofmeasure.org"
            }
          }
        ],
        "interpretation": [
          {
            "coding": [
              {
                "code": "H",
                "system": "http://terminology.hl7.org/CodeSystem/v3-ObservationInterpretation",
                "display": "High"
              }
            ]
          }
        ],
        "text": {
          "status": "generated",
          "div": "<div xmlns=\"http://www.w3.org/1999/xhtml\"><table class=\"hl7__eu__lab__report\"><tr><th>Test</th><th>06-Jan-2023</th><th>Reference&#xA0;Range</th><th>Unit</th></tr><tr><td>Chloride [Moles/volume] in Serum or Plasma</td><td>109.9</td><td>98 - 107</td><td>H</td><td>mmol/L</td></tr></table></div>"
        },
        "status": "final",
        "subject": {
          "reference": "urn:uuid:2c04d307-f369-4893-9f29-4e58704d28e3",
          "display": "Victor Lagarde"
        },
        "effectiveDateTime": "2023-01-06T04:48:18Z",
        "specimen": {
          "reference": "urn:uuid:07217275-01ac-4f7a-883c-6839336c111f"
        }
      }
    },
    {
      "fullUrl": "urn:uuid:68974c7d-4593-40a0-a01e-e8143c7da76d",
      "resource": {
        "resourceType": "Observation",
        "id": "68974c7d-4593-40a0-a01e-e8143c7da76d",
        "meta": {
          "profile": [
            "http://hl7.eu/fhir/laboratory/StructureDefinition/Observation-resultslab-eu-lab"
          ]
        },
        "performer": [
          {
            "display": "The Central European Lab"
          }
        ],
        "category": [
          {
            "coding": [
              {
                "system": "http://terminology.hl7.org/CodeSystem/observation-category",
                "code": "laboratory"
              }
            ]
          }
        ],
        "code": {
          "coding": [
            {
              "code": "2028-9",
              "system": "http://loinc.org",
              "display": "Carbon dioxide, total [Moles/volume] in Serum or Plasma"
            }
          ],
          "text": "Carbon dioxide, total [Moles/volume] in Serum or Plasma"
        },
        "valueQuantity": {
          "system": "http://unitsofmeasure.org",
          "value": 21,
          "unit": "mmol/L",
          "code": "mmol/L"
        },
        "referenceRange": [
          {
            "low": {
              "value": 22,
              "code": "mmol/L",
              "system": "http://unitsofmeasure.org"
            }
          },
          {
            "high": {
              "value": 33,
              "code": "mmol/L",
              "system": "http://unitsofmeasure.org"
            }
          }
        ],
        "interpretation": [
          {
            "coding": [
              {
                "code": "L",
                "system": "http://terminology.hl7.org/CodeSystem/v3-ObservationInterpretation",
                "display": "Low"
              }
            ]
          }
        ],
        "text": {
          "status": "generated",
          "div": "<div xmlns=\"http://www.w3.org/1999/xhtml\"><table class=\"hl7__eu__lab__report\"><tr><th>Test</th><th>06-Jan-2023</th><th>Reference&#xA0;Range</th><th>Unit</th></tr><tr><td>Carbon dioxide, total [Moles/volume] in Serum or Plasma</td><td>21.0</td><td>22 - 33</td><td>L</td><td>mmol/L</td></tr></table></div>"
        },
        "status": "final",
        "subject": {
          "reference": "urn:uuid:2c04d307-f369-4893-9f29-4e58704d28e3",
          "display": "Victor Lagarde"
        },
        "effectiveDateTime": "2023-01-06T04:48:18Z",
        "specimen": {
          "reference": "urn:uuid:07217275-01ac-4f7a-883c-6839336c111f"
        }
      }
    },
    {
      "fullUrl": "urn:uuid:ac7c57bd-7465-47ee-a9b5-a3267492d18f",
      "resource": {
        "resourceType": "Observation",
        "id": "ac7c57bd-7465-47ee-a9b5-a3267492d18f",
        "meta": {
          "profile": [
            "http://hl7.eu/fhir/laboratory/StructureDefinition/Observation-resultslab-eu-lab"
          ]
        },
        "performer": [
          {
            "display": "The Central European Lab"
          }
        ],
        "category": [
          {
            "coding": [
              {
                "system": "http://terminology.hl7.org/CodeSystem/observation-category",
                "code": "laboratory"
              }
            ]
          }
        ],
        "code": {
          "coding": [
            {
              "code": "5767-9",
              "system": "http://loinc.org",
              "display": "Appearance of Urine"
            }
          ],
          "text": "Appearance of Urine"
        },
        "text": {
          "status": "generated",
          "div": "<div xmlns=\"http://www.w3.org/1999/xhtml\"><table class=\"hl7__eu__lab__report\"><tr><th>Test</th><th>06-Jan-2023</th><th>Reference&#xA0;Range</th><th>Unit</th></tr><tr><td>Appearance of Urine</td></tr></table></div>"
        },
        "status": "final",
        "subject": {
          "reference": "urn:uuid:2c04d307-f369-4893-9f29-4e58704d28e3",
          "display": "Victor Lagarde"
        },
        "effectiveDateTime": "2023-01-06T04:48:18Z",
        "specimen": {
          "reference": "urn:uuid:194bd86b-37d2-4579-a8da-602c13a20e77"
        }
      }
    },
    {
      "fullUrl": "urn:uuid:11bdbb3f-3ca9-4593-9c0a-a6bc6e3b909a",
      "resource": {
        "resourceType": "Observation",
        "id": "11bdbb3f-3ca9-4593-9c0a-a6bc6e3b909a",
        "meta": {
          "profile": [
            "http://hl7.eu/fhir/laboratory/StructureDefinition/Observation-resultslab-eu-lab"
          ]
        },
        "performer": [
          {
            "display": "The Central European Lab"
          }
        ],
        "category": [
          {
            "coding": [
              {
                "system": "http://terminology.hl7.org/CodeSystem/observation-category",
                "code": "laboratory"
              }
            ]
          }
        ],
        "code": {
          "coding": [
            {
              "code": "34533-0",
              "system": "http://loinc.org",
              "display": "Odor of Urine"
            }
          ],
          "text": "Odor of Urine"
        },
        "text": {
          "status": "generated",
          "div": "<div xmlns=\"http://www.w3.org/1999/xhtml\"><table class=\"hl7__eu__lab__report\"><tr><th>Test</th><th>06-Jan-2023</th><th>Reference&#xA0;Range</th><th>Unit</th></tr><tr><td>Odor of Urine</td></tr></table></div>"
        },
        "status": "final",
        "subject": {
          "reference": "urn:uuid:2c04d307-f369-4893-9f29-4e58704d28e3",
          "display": "Victor Lagarde"
        },
        "effectiveDateTime": "2023-01-06T04:48:18Z",
        "specimen": {
          "reference": "urn:uuid:194bd86b-37d2-4579-a8da-602c13a20e77"
        }
      }
    },
    {
      "fullUrl": "urn:uuid:52e8cb8e-1a1c-4fab-bfcc-acdddc0c50fe",
      "resource": {
        "resourceType": "Observation",
        "id": "52e8cb8e-1a1c-4fab-bfcc-acdddc0c50fe",
        "meta": {
          "profile": [
            "http://hl7.eu/fhir/laboratory/StructureDefinition/Observation-resultslab-eu-lab"
          ]
        },
        "performer": [
          {
            "display": "The Central European Lab"
          }
        ],
        "category": [
          {
            "coding": [
              {
                "system": "http://terminology.hl7.org/CodeSystem/observation-category",
                "code": "laboratory"
              }
            ]
          }
        ],
        "code": {
          "coding": [
            {
              "code": "32167-9",
              "system": "http://loinc.org",
              "display": "Clarity of Urine"
            }
          ],
          "text": "Clarity of Urine"
        },
        "text": {
          "status": "generated",
          "div": "<div xmlns=\"http://www.w3.org/1999/xhtml\"><table class=\"hl7__eu__lab__report\"><tr><th>Test</th><th>06-Jan-2023</th><th>Reference&#xA0;Range</th><th>Unit</th></tr><tr><td>Clarity of Urine</td></tr></table></div>"
        },
        "status": "final",
        "subject": {
          "reference": "urn:uuid:2c04d307-f369-4893-9f29-4e58704d28e3",
          "display": "Victor Lagarde"
        },
        "effectiveDateTime": "2023-01-06T04:48:18Z",
        "specimen": {
          "reference": "urn:uuid:194bd86b-37d2-4579-a8da-602c13a20e77"
        }
      }
    },
    {
      "fullUrl": "urn:uuid:68d159e2-6f50-4663-89cc-8c852c7897a7",
      "resource": {
        "resourceType": "Observation",
        "id": "68d159e2-6f50-4663-89cc-8c852c7897a7",
        "meta": {
          "profile": [
            "http://hl7.eu/fhir/laboratory/StructureDefinition/Observation-resultslab-eu-lab"
          ]
        },
        "performer": [
          {
            "display": "The Central European Lab"
          }
        ],
        "category": [
          {
            "coding": [
              {
                "system": "http://terminology.hl7.org/CodeSystem/observation-category",
                "code": "laboratory"
              }
            ]
          }
        ],
        "code": {
          "coding": [
            {
              "code": "5778-6",
              "system": "http://loinc.org",
              "display": "Color of Urine"
            }
          ],
          "text": "Color of Urine"
        },
        "text": {
          "status": "generated",
          "div": "<div xmlns=\"http://www.w3.org/1999/xhtml\"><table class=\"hl7__eu__lab__report\"><tr><th>Test</th><th>06-Jan-2023</th><th>Reference&#xA0;Range</th><th>Unit</th></tr><tr><td>Color of Urine</td></tr></table></div>"
        },
        "status": "final",
        "subject": {
          "reference": "urn:uuid:2c04d307-f369-4893-9f29-4e58704d28e3",
          "display": "Victor Lagarde"
        },
        "effectiveDateTime": "2023-01-06T04:48:18Z",
        "specimen": {
          "reference": "urn:uuid:194bd86b-37d2-4579-a8da-602c13a20e77"
        }
      }
    },
    {
      "fullUrl": "urn:uuid:d2d093e9-b58a-4e23-be82-a205f91a9a7a",
      "resource": {
        "resourceType": "Observation",
        "id": "d2d093e9-b58a-4e23-be82-a205f91a9a7a",
        "meta": {
          "profile": [
            "http://hl7.eu/fhir/laboratory/StructureDefinition/Observation-resultslab-eu-lab"
          ]
        },
        "performer": [
          {
            "display": "The Central European Lab"
          }
        ],
        "category": [
          {
            "coding": [
              {
                "system": "http://terminology.hl7.org/CodeSystem/observation-category",
                "code": "laboratory"
              }
            ]
          }
        ],
        "code": {
          "coding": [
            {
              "code": "5792-7",
              "system": "http://loinc.org",
              "display": "Glucose [Mass/volume] in Urine by Test strip"
            }
          ],
          "text": "Glucose [Mass/volume] in Urine by Test strip"
        },
        "valueQuantity": {
          "system": "http://unitsofmeasure.org",
          "value": 1.3,
          "unit": "mg/dL",
          "code": "mg/dL"
        },
        "referenceRange": [
          {
            "low": {
              "value": 0,
              "code": "mg/dL",
              "system": "http://unitsofmeasure.org"
            }
          },
          {
            "high": {
              "value": 0.8,
              "code": "mg/dL",
              "system": "http://unitsofmeasure.org"
            }
          }
        ],
        "interpretation": [
          {
            "coding": [
              {
                "code": "H",
                "system": "http://terminology.hl7.org/CodeSystem/v3-ObservationInterpretation",
                "display": "High"
              }
            ]
          }
        ],
        "text": {
          "status": "generated",
          "div": "<div xmlns=\"http://www.w3.org/1999/xhtml\"><table class=\"hl7__eu__lab__report\"><tr><th>Test</th><th>06-Jan-2023</th><th>Reference&#xA0;Range</th><th>Unit</th></tr><tr><td>Glucose [Mass/volume] in Urine by Test strip</td><td>1.3</td><td>0 - 0.8</td><td>H</td><td>mg/dL</td></tr></table></div>"
        },
        "status": "final",
        "subject": {
          "reference": "urn:uuid:2c04d307-f369-4893-9f29-4e58704d28e3",
          "display": "Victor Lagarde"
        },
        "effectiveDateTime": "2023-01-06T04:48:18Z",
        "specimen": {
          "reference": "urn:uuid:194bd86b-37d2-4579-a8da-602c13a20e77"
        }
      }
    },
    {
      "fullUrl": "urn:uuid:ef6a8fcc-3f0c-4ea1-b88c-7bdbc6f10cc5",
      "resource": {
        "resourceType": "Observation",
        "id": "ef6a8fcc-3f0c-4ea1-b88c-7bdbc6f10cc5",
        "meta": {
          "profile": [
            "http://hl7.eu/fhir/laboratory/StructureDefinition/Observation-resultslab-eu-lab"
          ]
        },
        "performer": [
          {
            "display": "The Central European Lab"
          }
        ],
        "category": [
          {
            "coding": [
              {
                "system": "http://terminology.hl7.org/CodeSystem/observation-category",
                "code": "laboratory"
              }
            ]
          }
        ],
        "code": {
          "coding": [
            {
              "code": "25428-4",
              "system": "http://loinc.org",
              "display": "Glucose [Presence] in Urine by Test strip"
            }
          ],
          "text": "Glucose [Presence] in Urine by Test strip"
        },
        "text": {
          "status": "generated",
          "div": "<div xmlns=\"http://www.w3.org/1999/xhtml\"><table class=\"hl7__eu__lab__report\"><tr><th>Test</th><th>06-Jan-2023</th><th>Reference&#xA0;Range</th><th>Unit</th></tr><tr><td>Glucose [Presence] in Urine by Test strip</td></tr></table></div>"
        },
        "status": "final",
        "subject": {
          "reference": "urn:uuid:2c04d307-f369-4893-9f29-4e58704d28e3",
          "display": "Victor Lagarde"
        },
        "effectiveDateTime": "2023-01-06T04:48:18Z",
        "specimen": {
          "reference": "urn:uuid:194bd86b-37d2-4579-a8da-602c13a20e77"
        }
      }
    },
    {
      "fullUrl": "urn:uuid:e21f7e2b-8824-4ddd-84a6-8976ca5c83d6",
      "resource": {
        "resourceType": "Observation",
        "id": "e21f7e2b-8824-4ddd-84a6-8976ca5c83d6",
        "meta": {
          "profile": [
            "http://hl7.eu/fhir/laboratory/StructureDefinition/Observation-resultslab-eu-lab"
          ]
        },
        "performer": [
          {
            "display": "The Central European Lab"
          }
        ],
        "category": [
          {
            "coding": [
              {
                "system": "http://terminology.hl7.org/CodeSystem/observation-category",
                "code": "laboratory"
              }
            ]
          }
        ],
        "code": {
          "coding": [
            {
              "code": "20505-4",
              "system": "http://loinc.org",
              "display": "Bilirubin.total [Mass/volume] in Urine by Test strip"
            }
          ],
          "text": "Bilirubin.total [Mass/volume] in Urine by Test strip"
        },
        "valueQuantity": {
          "system": "http://unitsofmeasure.org",
          "value": 0.5,
          "unit": "mg/dL",
          "code": "mg/dL"
        },
        "referenceRange": [
          {
            "low": {
              "value": 0,
              "code": "mg/dL",
              "system": "http://unitsofmeasure.org"
            }
          },
          {
            "high": {
              "value": 1.9,
              "code": "mg/dL",
              "system": "http://unitsofmeasure.org"
            }
          }
        ],
        "text": {
          "status": "generated",
          "div": "<div xmlns=\"http://www.w3.org/1999/xhtml\"><table class=\"hl7__eu__lab__report\"><tr><th>Test</th><th>06-Jan-2023</th><th>Reference&#xA0;Range</th><th>Unit</th></tr><tr><td>Bilirubin.total [Mass/volume] in Urine by Test strip</td><td>0.5</td><td>0 - 1.9</td><td></td><td>mg/dL</td></tr></table></div>"
        },
        "status": "final",
        "subject": {
          "reference": "urn:uuid:2c04d307-f369-4893-9f29-4e58704d28e3",
          "display": "Victor Lagarde"
        },
        "effectiveDateTime": "2023-01-06T04:48:18Z",
        "specimen": {
          "reference": "urn:uuid:194bd86b-37d2-4579-a8da-602c13a20e77"
        }
      }
    },
    {
      "fullUrl": "urn:uuid:b5faff16-c2c7-47d6-bd19-e8cbf144f23d",
      "resource": {
        "resourceType": "Observation",
        "id": "b5faff16-c2c7-47d6-bd19-e8cbf144f23d",
        "meta": {
          "profile": [
            "http://hl7.eu/fhir/laboratory/StructureDefinition/Observation-resultslab-eu-lab"
          ]
        },
        "performer": [
          {
            "display": "The Central European Lab"
          }
        ],
        "category": [
          {
            "coding": [
              {
                "system": "http://terminology.hl7.org/CodeSystem/observation-category",
                "code": "laboratory"
              }
            ]
          }
        ],
        "code": {
          "coding": [
            {
              "code": "5770-3",
              "system": "http://loinc.org",
              "display": "Bilirubin.total [Presence] in Urine by Test strip"
            }
          ],
          "text": "Bilirubin.total [Presence] in Urine by Test strip"
        },
        "text": {
          "status": "generated",
          "div": "<div xmlns=\"http://www.w3.org/1999/xhtml\"><table class=\"hl7__eu__lab__report\"><tr><th>Test</th><th>06-Jan-2023</th><th>Reference&#xA0;Range</th><th>Unit</th></tr><tr><td>Bilirubin.total [Presence] in Urine by Test strip</td></tr></table></div>"
        },
        "status": "final",
        "subject": {
          "reference": "urn:uuid:2c04d307-f369-4893-9f29-4e58704d28e3",
          "display": "Victor Lagarde"
        },
        "effectiveDateTime": "2023-01-06T04:48:18Z",
        "specimen": {
          "reference": "urn:uuid:194bd86b-37d2-4579-a8da-602c13a20e77"
        }
      }
    },
    {
      "fullUrl": "urn:uuid:a4a377f4-2db3-4f21-84d0-25b2f6e7bae3",
      "resource": {
        "resourceType": "Observation",
        "id": "a4a377f4-2db3-4f21-84d0-25b2f6e7bae3",
        "meta": {
          "profile": [
            "http://hl7.eu/fhir/laboratory/StructureDefinition/Observation-resultslab-eu-lab"
          ]
        },
        "performer": [
          {
            "display": "The Central European Lab"
          }
        ],
        "category": [
          {
            "coding": [
              {
                "system": "http://terminology.hl7.org/CodeSystem/observation-category",
                "code": "laboratory"
              }
            ]
          }
        ],
        "code": {
          "coding": [
            {
              "code": "5797-6",
              "system": "http://loinc.org",
              "display": "Ketones [Mass/volume] in Urine by Test strip"
            }
          ],
          "text": "Ketones [Mass/volume] in Urine by Test strip"
        },
        "valueQuantity": {
          "system": "http://unitsofmeasure.org",
          "value": 2.4,
          "unit": "mg/dL",
          "code": "mg/dL"
        },
        "referenceRange": [
          {
            "low": {
              "value": 0,
              "code": "mg/dL",
              "system": "http://unitsofmeasure.org"
            }
          },
          {
            "high": {
              "value": 3,
              "code": "mg/dL",
              "system": "http://unitsofmeasure.org"
            }
          }
        ],
        "text": {
          "status": "generated",
          "div": "<div xmlns=\"http://www.w3.org/1999/xhtml\"><table class=\"hl7__eu__lab__report\"><tr><th>Test</th><th>06-Jan-2023</th><th>Reference&#xA0;Range</th><th>Unit</th></tr><tr><td>Ketones [Mass/volume] in Urine by Test strip</td><td>2.4</td><td>0 - 3</td><td></td><td>mg/dL</td></tr></table></div>"
        },
        "status": "final",
        "subject": {
          "reference": "urn:uuid:2c04d307-f369-4893-9f29-4e58704d28e3",
          "display": "Victor Lagarde"
        },
        "effectiveDateTime": "2023-01-06T04:48:18Z",
        "specimen": {
          "reference": "urn:uuid:194bd86b-37d2-4579-a8da-602c13a20e77"
        }
      }
    },
    {
      "fullUrl": "urn:uuid:4499d0e0-bc9e-4a09-a39f-e9dd8094eff1",
      "resource": {
        "resourceType": "Observation",
        "id": "4499d0e0-bc9e-4a09-a39f-e9dd8094eff1",
        "meta": {
          "profile": [
            "http://hl7.eu/fhir/laboratory/StructureDefinition/Observation-resultslab-eu-lab"
          ]
        },
        "performer": [
          {
            "display": "The Central European Lab"
          }
        ],
        "category": [
          {
            "coding": [
              {
                "system": "http://terminology.hl7.org/CodeSystem/observation-category",
                "code": "laboratory"
              }
            ]
          }
        ],
        "code": {
          "coding": [
            {
              "code": "2514-8",
              "system": "http://loinc.org",
              "display": "Ketones [Presence] in Urine by Test strip"
            }
          ],
          "text": "Ketones [Presence] in Urine by Test strip"
        },
        "text": {
          "status": "generated",
          "div": "<div xmlns=\"http://www.w3.org/1999/xhtml\"><table class=\"hl7__eu__lab__report\"><tr><th>Test</th><th>06-Jan-2023</th><th>Reference&#xA0;Range</th><th>Unit</th></tr><tr><td>Ketones [Presence] in Urine by Test strip</td></tr></table></div>"
        },
        "status": "final",
        "subject": {
          "reference": "urn:uuid:2c04d307-f369-4893-9f29-4e58704d28e3",
          "display": "Victor Lagarde"
        },
        "effectiveDateTime": "2023-01-06T04:48:18Z",
        "specimen": {
          "reference": "urn:uuid:194bd86b-37d2-4579-a8da-602c13a20e77"
        }
      }
    },
    {
      "fullUrl": "urn:uuid:0718c154-9e54-46fe-b1a9-5e7fab1e5bd4",
      "resource": {
        "resourceType": "Observation",
        "id": "0718c154-9e54-46fe-b1a9-5e7fab1e5bd4",
        "meta": {
          "profile": [
            "http://hl7.eu/fhir/laboratory/StructureDefinition/Observation-resultslab-eu-lab"
          ]
        },
        "performer": [
          {
            "display": "The Central European Lab"
          }
        ],
        "category": [
          {
            "coding": [
              {
                "system": "http://terminology.hl7.org/CodeSystem/observation-category",
                "code": "laboratory"
              }
            ]
          }
        ],
        "code": {
          "coding": [
            {
              "code": "5811-5",
              "system": "http://loinc.org",
              "display": "Specific gravity of Urine by Test strip"
            }
          ],
          "text": "Specific gravity of Urine by Test strip"
        },
        "valueQuantity": {
          "system": "http://unitsofmeasure.org",
          "value": 1,
          "unit": "{nominal}",
          "code": "{nominal}"
        },
        "referenceRange": [
          {
            "low": {
              "value": 1.01,
              "code": "g/mL",
              "system": "http://unitsofmeasure.org"
            }
          },
          {
            "high": {
              "value": 1.03,
              "code": "g/mL",
              "system": "http://unitsofmeasure.org"
            }
          }
        ],
        "interpretation": [
          {
            "coding": [
              {
                "code": "L",
                "system": "http://terminology.hl7.org/CodeSystem/v3-ObservationInterpretation",
                "display": "Low"
              }
            ]
          }
        ],
        "text": {
          "status": "generated",
          "div": "<div xmlns=\"http://www.w3.org/1999/xhtml\"><table class=\"hl7__eu__lab__report\"><tr><th>Test</th><th>06-Jan-2023</th><th>Reference&#xA0;Range</th><th>Unit</th></tr><tr><td>Specific gravity of Urine by Test strip</td><td>1.0</td><td>1.01 - 1.03</td><td>L</td><td>{nominal}</td></tr></table></div>"
        },
        "status": "final",
        "subject": {
          "reference": "urn:uuid:2c04d307-f369-4893-9f29-4e58704d28e3",
          "display": "Victor Lagarde"
        },
        "effectiveDateTime": "2023-01-06T04:48:18Z",
        "specimen": {
          "reference": "urn:uuid:194bd86b-37d2-4579-a8da-602c13a20e77"
        }
      }
    },
    {
      "fullUrl": "urn:uuid:2f1cef86-031a-4529-b2d6-9f58393762b9",
      "resource": {
        "resourceType": "Observation",
        "id": "2f1cef86-031a-4529-b2d6-9f58393762b9",
        "meta": {
          "profile": [
            "http://hl7.eu/fhir/laboratory/StructureDefinition/Observation-resultslab-eu-lab"
          ]
        },
        "performer": [
          {
            "display": "The Central European Lab"
          }
        ],
        "category": [
          {
            "coding": [
              {
                "system": "http://terminology.hl7.org/CodeSystem/observation-category",
                "code": "laboratory"
              }
            ]
          }
        ],
        "code": {
          "coding": [
            {
              "code": "5803-2",
              "system": "http://loinc.org",
              "display": "pH of Urine by Test strip"
            }
          ],
          "text": "pH of Urine by Test strip"
        },
        "valueQuantity": {
          "system": "http://unitsofmeasure.org",
          "value": 5.4,
          "unit": "pH",
          "code": "pH"
        },
        "referenceRange": [
          {
            "low": {
              "value": 4.5,
              "code": "pH",
              "system": "http://unitsofmeasure.org"
            }
          },
          {
            "high": {
              "value": 7.5,
              "code": "pH",
              "system": "http://unitsofmeasure.org"
            }
          }
        ],
        "text": {
          "status": "generated",
          "div": "<div xmlns=\"http://www.w3.org/1999/xhtml\"><table class=\"hl7__eu__lab__report\"><tr><th>Test</th><th>06-Jan-2023</th><th>Reference&#xA0;Range</th><th>Unit</th></tr><tr><td>pH of Urine by Test strip</td><td>5.4</td><td>4.5 - 7.5</td><td></td><td>pH</td></tr></table></div>"
        },
        "status": "final",
        "subject": {
          "reference": "urn:uuid:2c04d307-f369-4893-9f29-4e58704d28e3",
          "display": "Victor Lagarde"
        },
        "effectiveDateTime": "2023-01-06T04:48:18Z",
        "specimen": {
          "reference": "urn:uuid:194bd86b-37d2-4579-a8da-602c13a20e77"
        }
      }
    },
    {
      "fullUrl": "urn:uuid:fb19b4d0-93a8-4ccb-8246-0b8d267d9594",
      "resource": {
        "resourceType": "Observation",
        "id": "fb19b4d0-93a8-4ccb-8246-0b8d267d9594",
        "meta": {
          "profile": [
            "http://hl7.eu/fhir/laboratory/StructureDefinition/Observation-resultslab-eu-lab"
          ]
        },
        "performer": [
          {
            "display": "The Central European Lab"
          }
        ],
        "category": [
          {
            "coding": [
              {
                "system": "http://terminology.hl7.org/CodeSystem/observation-category",
                "code": "laboratory"
              }
            ]
          }
        ],
        "code": {
          "coding": [
            {
              "code": "5804-0",
              "system": "http://loinc.org",
              "display": "Protein [Mass/volume] in Urine by Test strip"
            }
          ],
          "text": "Protein [Mass/volume] in Urine by Test strip"
        },
        "valueQuantity": {
          "system": "http://unitsofmeasure.org",
          "value": 267.5,
          "unit": "mg/dL",
          "code": "mg/dL"
        },
        "referenceRange": [
          {
            "low": {
              "value": 0,
              "code": "mg/dL",
              "system": "http://unitsofmeasure.org"
            }
          },
          {
            "high": {
              "value": 149,
              "code": "mg/dL",
              "system": "http://unitsofmeasure.org"
            }
          }
        ],
        "interpretation": [
          {
            "coding": [
              {
                "code": "H",
                "system": "http://terminology.hl7.org/CodeSystem/v3-ObservationInterpretation",
                "display": "High"
              }
            ]
          }
        ],
        "text": {
          "status": "generated",
          "div": "<div xmlns=\"http://www.w3.org/1999/xhtml\"><table class=\"hl7__eu__lab__report\"><tr><th>Test</th><th>06-Jan-2023</th><th>Reference&#xA0;Range</th><th>Unit</th></tr><tr><td>Protein [Mass/volume] in Urine by Test strip</td><td>267.5</td><td>0 - 149</td><td>H</td><td>mg/dL</td></tr></table></div>"
        },
        "status": "final",
        "subject": {
          "reference": "urn:uuid:2c04d307-f369-4893-9f29-4e58704d28e3",
          "display": "Victor Lagarde"
        },
        "effectiveDateTime": "2023-01-06T04:48:18Z",
        "specimen": {
          "reference": "urn:uuid:194bd86b-37d2-4579-a8da-602c13a20e77"
        }
      }
    },
    {
      "fullUrl": "urn:uuid:0e4eaea0-66cd-4e7d-be73-3b0a2a5058f9",
      "resource": {
        "resourceType": "Observation",
        "id": "0e4eaea0-66cd-4e7d-be73-3b0a2a5058f9",
        "meta": {
          "profile": [
            "http://hl7.eu/fhir/laboratory/StructureDefinition/Observation-resultslab-eu-lab"
          ]
        },
        "performer": [
          {
            "display": "The Central European Lab"
          }
        ],
        "category": [
          {
            "coding": [
              {
                "system": "http://terminology.hl7.org/CodeSystem/observation-category",
                "code": "laboratory"
              }
            ]
          }
        ],
        "code": {
          "coding": [
            {
              "code": "20454-5",
              "system": "http://loinc.org",
              "display": "Protein [Presence] in Urine by Test strip"
            }
          ],
          "text": "Protein [Presence] in Urine by Test strip"
        },
        "text": {
          "status": "generated",
          "div": "<div xmlns=\"http://www.w3.org/1999/xhtml\"><table class=\"hl7__eu__lab__report\"><tr><th>Test</th><th>06-Jan-2023</th><th>Reference&#xA0;Range</th><th>Unit</th></tr><tr><td>Protein [Presence] in Urine by Test strip</td></tr></table></div>"
        },
        "status": "final",
        "subject": {
          "reference": "urn:uuid:2c04d307-f369-4893-9f29-4e58704d28e3",
          "display": "Victor Lagarde"
        },
        "effectiveDateTime": "2023-01-06T04:48:18Z",
        "specimen": {
          "reference": "urn:uuid:194bd86b-37d2-4579-a8da-602c13a20e77"
        }
      }
    },
    {
      "fullUrl": "urn:uuid:42cde795-1a91-4ad1-a83f-64e45708d07a",
      "resource": {
        "resourceType": "Observation",
        "id": "42cde795-1a91-4ad1-a83f-64e45708d07a",
        "meta": {
          "profile": [
            "http://hl7.eu/fhir/laboratory/StructureDefinition/Observation-resultslab-eu-lab"
          ]
        },
        "performer": [
          {
            "display": "The Central European Lab"
          }
        ],
        "category": [
          {
            "coding": [
              {
                "system": "http://terminology.hl7.org/CodeSystem/observation-category",
                "code": "laboratory"
              }
            ]
          }
        ],
        "code": {
          "coding": [
            {
              "code": "5802-4",
              "system": "http://loinc.org",
              "display": "Nitrite [Presence] in Urine by Test strip"
            }
          ],
          "text": "Nitrite [Presence] in Urine by Test strip"
        },
        "text": {
          "status": "generated",
          "div": "<div xmlns=\"http://www.w3.org/1999/xhtml\"><table class=\"hl7__eu__lab__report\"><tr><th>Test</th><th>06-Jan-2023</th><th>Reference&#xA0;Range</th><th>Unit</th></tr><tr><td>Nitrite [Presence] in Urine by Test strip</td></tr></table></div>"
        },
        "status": "final",
        "subject": {
          "reference": "urn:uuid:2c04d307-f369-4893-9f29-4e58704d28e3",
          "display": "Victor Lagarde"
        },
        "effectiveDateTime": "2023-01-06T04:48:18Z",
        "specimen": {
          "reference": "urn:uuid:194bd86b-37d2-4579-a8da-602c13a20e77"
        }
      }
    },
    {
      "fullUrl": "urn:uuid:e1b1cc32-deeb-41e5-8b80-9fbe6d8693de",
      "resource": {
        "resourceType": "Observation",
        "id": "e1b1cc32-deeb-41e5-8b80-9fbe6d8693de",
        "meta": {
          "profile": [
            "http://hl7.eu/fhir/laboratory/StructureDefinition/Observation-resultslab-eu-lab"
          ]
        },
        "performer": [
          {
            "display": "The Central European Lab"
          }
        ],
        "category": [
          {
            "coding": [
              {
                "system": "http://terminology.hl7.org/CodeSystem/observation-category",
                "code": "laboratory"
              }
            ]
          }
        ],
        "code": {
          "coding": [
            {
              "code": "5794-3",
              "system": "http://loinc.org",
              "display": "Hemoglobin [Presence] in Urine by Test strip"
            }
          ],
          "text": "Hemoglobin [Presence] in Urine by Test strip"
        },
        "text": {
          "status": "generated",
          "div": "<div xmlns=\"http://www.w3.org/1999/xhtml\"><table class=\"hl7__eu__lab__report\"><tr><th>Test</th><th>06-Jan-2023</th><th>Reference&#xA0;Range</th><th>Unit</th></tr><tr><td>Hemoglobin [Presence] in Urine by Test strip</td></tr></table></div>"
        },
        "status": "final",
        "subject": {
          "reference": "urn:uuid:2c04d307-f369-4893-9f29-4e58704d28e3",
          "display": "Victor Lagarde"
        },
        "effectiveDateTime": "2023-01-06T04:48:18Z",
        "specimen": {
          "reference": "urn:uuid:194bd86b-37d2-4579-a8da-602c13a20e77"
        }
      }
    },
    {
      "fullUrl": "urn:uuid:51052b05-0bb7-4e22-a4e9-8699ddbed3ab",
      "resource": {
        "resourceType": "Observation",
        "id": "51052b05-0bb7-4e22-a4e9-8699ddbed3ab",
        "meta": {
          "profile": [
            "http://hl7.eu/fhir/laboratory/StructureDefinition/Observation-resultslab-eu-lab"
          ]
        },
        "performer": [
          {
            "display": "The Central European Lab"
          }
        ],
        "category": [
          {
            "coding": [
              {
                "system": "http://terminology.hl7.org/CodeSystem/observation-category",
                "code": "laboratory"
              }
            ]
          }
        ],
        "code": {
          "coding": [
            {
              "code": "5799-2",
              "system": "http://loinc.org",
              "display": "Leukocyte esterase [Presence] in Urine by Test strip"
            }
          ],
          "text": "Leukocyte esterase [Presence] in Urine by Test strip"
        },
        "text": {
          "status": "generated",
          "div": "<div xmlns=\"http://www.w3.org/1999/xhtml\"><table class=\"hl7__eu__lab__report\"><tr><th>Test</th><th>06-Jan-2023</th><th>Reference&#xA0;Range</th><th>Unit</th></tr><tr><td>Leukocyte esterase [Presence] in Urine by Test strip</td></tr></table></div>"
        },
        "status": "final",
        "subject": {
          "reference": "urn:uuid:2c04d307-f369-4893-9f29-4e58704d28e3",
          "display": "Victor Lagarde"
        },
        "effectiveDateTime": "2023-01-06T04:48:18Z",
        "specimen": {
          "reference": "urn:uuid:194bd86b-37d2-4579-a8da-602c13a20e77"
        }
      }
    },
    {
      "fullUrl": "urn:uuid:19cadfd4-9a06-4b74-af2e-d3c2d28b850d",
      "resource": {
        "resourceType": "Observation",
        "id": "19cadfd4-9a06-4b74-af2e-d3c2d28b850d",
        "meta": {
          "profile": [
            "http://hl7.eu/fhir/laboratory/StructureDefinition/Observation-resultslab-eu-lab"
          ]
        },
        "performer": [
          {
            "display": "The Central European Lab"
          }
        ],
        "category": [
          {
            "coding": [
              {
                "system": "http://terminology.hl7.org/CodeSystem/observation-category",
                "code": "laboratory"
              }
            ]
          }
        ],
        "code": {
          "coding": [
            {
              "code": "4548-4",
              "system": "http://loinc.org",
              "display": "Hemoglobin A1c/Hemoglobin.total in Blood"
            }
          ],
          "text": "Hemoglobin A1c/Hemoglobin.total in Blood"
        },
        "valueQuantity": {
          "system": "http://unitsofmeasure.org",
          "value": 2.9,
          "unit": "%",
          "code": "%"
        },
        "referenceRange": [
          {
            "low": {
              "value": 4.3,
              "code": "%",
              "system": "http://unitsofmeasure.org"
            }
          },
          {
            "high": {
              "value": 6,
              "code": "%",
              "system": "http://unitsofmeasure.org"
            }
          }
        ],
        "interpretation": [
          {
            "coding": [
              {
                "code": "L",
                "system": "http://terminology.hl7.org/CodeSystem/v3-ObservationInterpretation",
                "display": "Low"
              }
            ]
          }
        ],
        "text": {
          "status": "generated",
          "div": "<div xmlns=\"http://www.w3.org/1999/xhtml\"><table class=\"hl7__eu__lab__report\"><tr><th>Test</th><th>06-Jan-2023</th><th>Reference&#xA0;Range</th><th>Unit</th></tr><tr><td>Hemoglobin A1c/Hemoglobin.total in Blood</td><td>2.9</td><td>4.3 - 6</td><td>L</td><td>%</td></tr></table></div>"
        },
        "status": "final",
        "subject": {
          "reference": "urn:uuid:2c04d307-f369-4893-9f29-4e58704d28e3",
          "display": "Victor Lagarde"
        },
        "effectiveDateTime": "2023-01-06T04:48:18Z",
        "specimen": {
          "reference": "urn:uuid:c3849c6b-c42f-485e-8ecd-dcd5984e5db3"
        }
      }
    },
    {
      "fullUrl": "urn:uuid:dd75c6cf-849e-48c2-b179-9ff28428df40",
      "resource": {
        "resourceType": "Observation",
        "id": "dd75c6cf-849e-48c2-b179-9ff28428df40",
        "meta": {
          "profile": [
            "http://hl7.eu/fhir/laboratory/StructureDefinition/Observation-resultslab-eu-lab"
          ]
        },
        "performer": [
          {
            "display": "The Central European Lab"
          }
        ],
        "category": [
          {
            "coding": [
              {
                "system": "http://terminology.hl7.org/CodeSystem/observation-category",
                "code": "laboratory"
              }
            ]
          }
        ],
        "code": {
          "coding": [
            {
              "code": "2339-0",
              "system": "http://loinc.org",
              "display": "Glucose [Mass/volume] in Blood"
            }
          ],
          "text": "Glucose [Mass/volume] in Blood"
        },
        "valueQuantity": {
          "system": "http://unitsofmeasure.org",
          "value": 64.7,
          "unit": "mg/dL",
          "code": "mg/dL"
        },
        "referenceRange": [
          {
            "low": {
              "value": 70,
              "code": "mg/dL",
              "system": "http://unitsofmeasure.org"
            }
          },
          {
            "high": {
              "value": 140,
              "code": "mg/dL",
              "system": "http://unitsofmeasure.org"
            }
          }
        ],
        "interpretation": [
          {
            "coding": [
              {
                "code": "L",
                "system": "http://terminology.hl7.org/CodeSystem/v3-ObservationInterpretation",
                "display": "Low"
              }
            ]
          }
        ],
        "text": {
          "status": "generated",
          "div": "<div xmlns=\"http://www.w3.org/1999/xhtml\"><table class=\"hl7__eu__lab__report\"><tr><th>Test</th><th>06-Jan-2023</th><th>Reference&#xA0;Range</th><th>Unit</th></tr><tr><td>Glucose [Mass/volume] in Blood</td><td>64.7</td><td>70 - 140</td><td>L</td><td>mg/dL</td></tr></table></div>"
        },
        "status": "final",
        "subject": {
          "reference": "urn:uuid:2c04d307-f369-4893-9f29-4e58704d28e3",
          "display": "Victor Lagarde"
        },
        "effectiveDateTime": "2023-01-06T04:48:18Z",
        "specimen": {
          "reference": "urn:uuid:c3849c6b-c42f-485e-8ecd-dcd5984e5db3"
        }
      }
    },
    {
      "fullUrl": "urn:uuid:350ce4f9-cd4a-4897-bfa0-236d988abd72",
      "resource": {
        "resourceType": "Observation",
        "id": "350ce4f9-cd4a-4897-bfa0-236d988abd72",
        "meta": {
          "profile": [
            "http://hl7.eu/fhir/laboratory/StructureDefinition/Observation-resultslab-eu-lab"
          ]
        },
        "performer": [
          {
            "display": "The Central European Lab"
          }
        ],
        "category": [
          {
            "coding": [
              {
                "system": "http://terminology.hl7.org/CodeSystem/observation-category",
                "code": "laboratory"
              }
            ]
          }
        ],
        "code": {
          "coding": [
            {
              "code": "6299-2",
              "system": "http://loinc.org",
              "display": "Urea nitrogen [Mass/volume] in Blood"
            }
          ],
          "text": "Urea nitrogen [Mass/volume] in Blood"
        },
        "valueQuantity": {
          "system": "http://unitsofmeasure.org",
          "value": 9.5,
          "unit": "mg/dL",
          "code": "mg/dL"
        },
        "referenceRange": [
          {
            "low": {
              "value": 7,
              "code": "mg/dL",
              "system": "http://unitsofmeasure.org"
            }
          },
          {
            "high": {
              "value": 20,
              "code": "mg/dL",
              "system": "http://unitsofmeasure.org"
            }
          }
        ],
        "text": {
          "status": "generated",
          "div": "<div xmlns=\"http://www.w3.org/1999/xhtml\"><table class=\"hl7__eu__lab__report\"><tr><th>Test</th><th>06-Jan-2023</th><th>Reference&#xA0;Range</th><th>Unit</th></tr><tr><td>Urea nitrogen [Mass/volume] in Blood</td><td>9.5</td><td>7 - 20</td><td></td><td>mg/dL</td></tr></table></div>"
        },
        "status": "final",
        "subject": {
          "reference": "urn:uuid:2c04d307-f369-4893-9f29-4e58704d28e3",
          "display": "Victor Lagarde"
        },
        "effectiveDateTime": "2023-01-06T04:48:18Z",
        "specimen": {
          "reference": "urn:uuid:c3849c6b-c42f-485e-8ecd-dcd5984e5db3"
        }
      }
    },
    {
      "fullUrl": "urn:uuid:95a45280-3aba-4a06-a60c-bb7597614e85",
      "resource": {
        "resourceType": "Observation",
        "id": "95a45280-3aba-4a06-a60c-bb7597614e85",
        "meta": {
          "profile": [
            "http://hl7.eu/fhir/laboratory/StructureDefinition/Observation-resultslab-eu-lab"
          ]
        },
        "performer": [
          {
            "display": "The Central European Lab"
          }
        ],
        "category": [
          {
            "coding": [
              {
                "system": "http://terminology.hl7.org/CodeSystem/observation-category",
                "code": "laboratory"
              }
            ]
          }
        ],
        "code": {
          "coding": [
            {
              "code": "38483-4",
              "system": "http://loinc.org",
              "display": "Creatinine [Mass/volume] in Blood"
            }
          ],
          "text": "Creatinine [Mass/volume] in Blood"
        },
        "valueQuantity": {
          "system": "http://unitsofmeasure.org",
          "value": 2.9,
          "unit": "mg/dL",
          "code": "mg/dL"
        },
        "referenceRange": [
          {
            "low": {
              "value": 0.9,
              "code": "mg/dL",
              "system": "http://unitsofmeasure.org"
            }
          },
          {
            "high": {
              "value": 1.3,
              "code": "mg/dL",
              "system": "http://unitsofmeasure.org"
            }
          }
        ],
        "interpretation": [
          {
            "coding": [
              {
                "code": "H",
                "system": "http://terminology.hl7.org/CodeSystem/v3-ObservationInterpretation",
                "display": "High"
              }
            ]
          }
        ],
        "text": {
          "status": "generated",
          "div": "<div xmlns=\"http://www.w3.org/1999/xhtml\"><table class=\"hl7__eu__lab__report\"><tr><th>Test</th><th>06-Jan-2023</th><th>Reference&#xA0;Range</th><th>Unit</th></tr><tr><td>Creatinine [Mass/volume] in Blood</td><td>2.9</td><td>0.9 - 1.3</td><td>H</td><td>mg/dL</td></tr></table></div>"
        },
        "status": "final",
        "subject": {
          "reference": "urn:uuid:2c04d307-f369-4893-9f29-4e58704d28e3",
          "display": "Victor Lagarde"
        },
        "effectiveDateTime": "2023-01-06T04:48:18Z",
        "specimen": {
          "reference": "urn:uuid:c3849c6b-c42f-485e-8ecd-dcd5984e5db3"
        }
      }
    },
    {
      "fullUrl": "urn:uuid:db5cacbf-a923-4d31-9ab3-6a1ed5e6fd70",
      "resource": {
        "resourceType": "Observation",
        "id": "db5cacbf-a923-4d31-9ab3-6a1ed5e6fd70",
        "meta": {
          "profile": [
            "http://hl7.eu/fhir/laboratory/StructureDefinition/Observation-resultslab-eu-lab"
          ]
        },
        "performer": [
          {
            "display": "The Central European Lab"
          }
        ],
        "category": [
          {
            "coding": [
              {
                "system": "http://terminology.hl7.org/CodeSystem/observation-category",
                "code": "laboratory"
              }
            ]
          }
        ],
        "code": {
          "coding": [
            {
              "code": "49765-1",
              "system": "http://loinc.org",
              "display": "Calcium [Mass/volume] in Blood"
            }
          ],
          "text": "Calcium [Mass/volume] in Blood"
        },
        "valueQuantity": {
          "system": "http://unitsofmeasure.org",
          "value": 9.8,
          "unit": "mg/dL",
          "code": "mg/dL"
        },
        "referenceRange": [
          {
            "low": {
              "value": 8.5,
              "code": "mg/dL",
              "system": "http://unitsofmeasure.org"
            }
          },
          {
            "high": {
              "value": 10.5,
              "code": "mg/dL",
              "system": "http://unitsofmeasure.org"
            }
          }
        ],
        "text": {
          "status": "generated",
          "div": "<div xmlns=\"http://www.w3.org/1999/xhtml\"><table class=\"hl7__eu__lab__report\"><tr><th>Test</th><th>06-Jan-2023</th><th>Reference&#xA0;Range</th><th>Unit</th></tr><tr><td>Calcium [Mass/volume] in Blood</td><td>9.8</td><td>8.5 - 10.5</td><td></td><td>mg/dL</td></tr></table></div>"
        },
        "status": "final",
        "subject": {
          "reference": "urn:uuid:2c04d307-f369-4893-9f29-4e58704d28e3",
          "display": "Victor Lagarde"
        },
        "effectiveDateTime": "2023-01-06T04:48:18Z",
        "specimen": {
          "reference": "urn:uuid:c3849c6b-c42f-485e-8ecd-dcd5984e5db3"
        }
      }
    },
    {
      "fullUrl": "urn:uuid:8189dd63-23c3-4811-b466-2cc7ef9bb8cd",
      "resource": {
        "resourceType": "Observation",
        "id": "8189dd63-23c3-4811-b466-2cc7ef9bb8cd",
        "meta": {
          "profile": [
            "http://hl7.eu/fhir/laboratory/StructureDefinition/Observation-resultslab-eu-lab"
          ]
        },
        "performer": [
          {
            "display": "The Central European Lab"
          }
        ],
        "category": [
          {
            "coding": [
              {
                "system": "http://terminology.hl7.org/CodeSystem/observation-category",
                "code": "laboratory"
              }
            ]
          }
        ],
        "code": {
          "coding": [
            {
              "code": "2947-0",
              "system": "http://loinc.org",
              "display": "Sodium [Moles/volume] in Blood"
            }
          ],
          "text": "Sodium [Moles/volume] in Blood"
        },
        "valueQuantity": {
          "system": "http://unitsofmeasure.org",
          "value": 141.1,
          "unit": "mmol/L",
          "code": "mmol/L"
        },
        "referenceRange": [
          {
            "low": {
              "value": 135,
              "code": "mmol/L",
              "system": "http://unitsofmeasure.org"
            }
          },
          {
            "high": {
              "value": 145,
              "code": "mmol/L",
              "system": "http://unitsofmeasure.org"
            }
          }
        ],
        "text": {
          "status": "generated",
          "div": "<div xmlns=\"http://www.w3.org/1999/xhtml\"><table class=\"hl7__eu__lab__report\"><tr><th>Test</th><th>06-Jan-2023</th><th>Reference&#xA0;Range</th><th>Unit</th></tr><tr><td>Sodium [Moles/volume] in Blood</td><td>141.1</td><td>135 - 145</td><td></td><td>mmol/L</td></tr></table></div>"
        },
        "status": "final",
        "subject": {
          "reference": "urn:uuid:2c04d307-f369-4893-9f29-4e58704d28e3",
          "display": "Victor Lagarde"
        },
        "effectiveDateTime": "2023-01-06T04:48:18Z",
        "specimen": {
          "reference": "urn:uuid:c3849c6b-c42f-485e-8ecd-dcd5984e5db3"
        }
      }
    },
    {
      "fullUrl": "urn:uuid:2ac32046-5c35-47cb-b4f1-d40376038ce3",
      "resource": {
        "resourceType": "Observation",
        "id": "2ac32046-5c35-47cb-b4f1-d40376038ce3",
        "meta": {
          "profile": [
            "http://hl7.eu/fhir/laboratory/StructureDefinition/Observation-resultslab-eu-lab"
          ]
        },
        "performer": [
          {
            "display": "The Central European Lab"
          }
        ],
        "category": [
          {
            "coding": [
              {
                "system": "http://terminology.hl7.org/CodeSystem/observation-category",
                "code": "laboratory"
              }
            ]
          }
        ],
        "code": {
          "coding": [
            {
              "code": "6298-4",
              "system": "http://loinc.org",
              "display": "Potassium [Moles/volume] in Blood"
            }
          ],
          "text": "Potassium [Moles/volume] in Blood"
        },
        "valueQuantity": {
          "system": "http://unitsofmeasure.org",
          "value": 4.1,
          "unit": "mmol/L",
          "code": "mmol/L"
        },
        "referenceRange": [
          {
            "low": {
              "value": 3.5,
              "code": "mmol/L",
              "system": "http://unitsofmeasure.org"
            }
          },
          {
            "high": {
              "value": 5.1,
              "code": "mmol/L",
              "system": "http://unitsofmeasure.org"
            }
          }
        ],
        "text": {
          "status": "generated",
          "div": "<div xmlns=\"http://www.w3.org/1999/xhtml\"><table class=\"hl7__eu__lab__report\"><tr><th>Test</th><th>06-Jan-2023</th><th>Reference&#xA0;Range</th><th>Unit</th></tr><tr><td>Potassium [Moles/volume] in Blood</td><td>4.1</td><td>3.5 - 5.1</td><td></td><td>mmol/L</td></tr></table></div>"
        },
        "status": "final",
        "subject": {
          "reference": "urn:uuid:2c04d307-f369-4893-9f29-4e58704d28e3",
          "display": "Victor Lagarde"
        },
        "effectiveDateTime": "2023-01-06T04:48:18Z",
        "specimen": {
          "reference": "urn:uuid:c3849c6b-c42f-485e-8ecd-dcd5984e5db3"
        }
      }
    },
    {
      "fullUrl": "urn:uuid:af108d46-2c6c-4cda-810c-25cfc4ed92a8",
      "resource": {
        "resourceType": "Observation",
        "id": "af108d46-2c6c-4cda-810c-25cfc4ed92a8",
        "meta": {
          "profile": [
            "http://hl7.eu/fhir/laboratory/StructureDefinition/Observation-resultslab-eu-lab"
          ]
        },
        "performer": [
          {
            "display": "The Central European Lab"
          }
        ],
        "category": [
          {
            "coding": [
              {
                "system": "http://terminology.hl7.org/CodeSystem/observation-category",
                "code": "laboratory"
              }
            ]
          }
        ],
        "code": {
          "coding": [
            {
              "code": "2069-3",
              "system": "http://loinc.org",
              "display": "Chloride [Moles/volume] in Blood"
            }
          ],
          "text": "Chloride [Moles/volume] in Blood"
        },
        "valueQuantity": {
          "system": "http://unitsofmeasure.org",
          "value": 109.9,
          "unit": "mmol/L",
          "code": "mmol/L"
        },
        "referenceRange": [
          {
            "low": {
              "value": 98,
              "code": "mmol/L",
              "system": "http://unitsofmeasure.org"
            }
          },
          {
            "high": {
              "value": 108,
              "code": "mmol/L",
              "system": "http://unitsofmeasure.org"
            }
          }
        ],
        "interpretation": [
          {
            "coding": [
              {
                "code": "H",
                "system": "http://terminology.hl7.org/CodeSystem/v3-ObservationInterpretation",
                "display": "High"
              }
            ]
          }
        ],
        "text": {
          "status": "generated",
          "div": "<div xmlns=\"http://www.w3.org/1999/xhtml\"><table class=\"hl7__eu__lab__report\"><tr><th>Test</th><th>06-Jan-2023</th><th>Reference&#xA0;Range</th><th>Unit</th></tr><tr><td>Chloride [Moles/volume] in Blood</td><td>109.9</td><td>98 - 108</td><td>H</td><td>mmol/L</td></tr></table></div>"
        },
        "status": "final",
        "subject": {
          "reference": "urn:uuid:2c04d307-f369-4893-9f29-4e58704d28e3",
          "display": "Victor Lagarde"
        },
        "effectiveDateTime": "2023-01-06T04:48:18Z",
        "specimen": {
          "reference": "urn:uuid:c3849c6b-c42f-485e-8ecd-dcd5984e5db3"
        }
      }
    },
    {
      "fullUrl": "urn:uuid:720bb9f4-ccfc-4171-b79a-e10d09ee1692",
      "resource": {
        "resourceType": "Observation",
        "id": "720bb9f4-ccfc-4171-b79a-e10d09ee1692",
        "meta": {
          "profile": [
            "http://hl7.eu/fhir/laboratory/StructureDefinition/Observation-resultslab-eu-lab"
          ]
        },
        "performer": [
          {
            "display": "The Central European Lab"
          }
        ],
        "category": [
          {
            "coding": [
              {
                "system": "http://terminology.hl7.org/CodeSystem/observation-category",
                "code": "laboratory"
              }
            ]
          }
        ],
        "code": {
          "coding": [
            {
              "code": "20565-8",
              "system": "http://loinc.org",
              "display": "Carbon dioxide, total [Moles/volume] in Blood"
            }
          ],
          "text": "Carbon dioxide, total [Moles/volume] in Blood"
        },
        "valueQuantity": {
          "system": "http://unitsofmeasure.org",
          "value": 21,
          "unit": "mmol/L",
          "code": "mmol/L"
        },
        "referenceRange": [
          {
            "low": {
              "value": 22,
              "code": "mmol/L",
              "system": "http://unitsofmeasure.org"
            }
          },
          {
            "high": {
              "value": 29,
              "code": "mmol/L",
              "system": "http://unitsofmeasure.org"
            }
          }
        ],
        "interpretation": [
          {
            "coding": [
              {
                "code": "L",
                "system": "http://terminology.hl7.org/CodeSystem/v3-ObservationInterpretation",
                "display": "Low"
              }
            ]
          }
        ],
        "text": {
          "status": "generated",
          "div": "<div xmlns=\"http://www.w3.org/1999/xhtml\"><table class=\"hl7__eu__lab__report\"><tr><th>Test</th><th>06-Jan-2023</th><th>Reference&#xA0;Range</th><th>Unit</th></tr><tr><td>Carbon dioxide, total [Moles/volume] in Blood</td><td>21.0</td><td>22 - 29</td><td>L</td><td>mmol/L</td></tr></table></div>"
        },
        "status": "final",
        "subject": {
          "reference": "urn:uuid:2c04d307-f369-4893-9f29-4e58704d28e3",
          "display": "Victor Lagarde"
        },
        "effectiveDateTime": "2023-01-06T04:48:18Z",
        "specimen": {
          "reference": "urn:uuid:c3849c6b-c42f-485e-8ecd-dcd5984e5db3"
        }
      }
    },
    {
      "fullUrl": "urn:uuid:7064427b-ec95-476f-b366-db055e5fc423",
      "resource": {
        "resourceType": "Device",
        "id": "7064427b-ec95-476f-b366-db055e5fc423",
        "deviceName": [
          {
            "name": "SYNDERAI Synthetic Generator",
            "type": "manufacturer-name"
          }
        ],
        "version": [
          {
            "value": "5.0"
          }
        ],
        "text": {
          "status": "generated",
          "div": "<div xmlns=\"http://www.w3.org/1999/xhtml\">SYNDERAI Synthetic Generator v5.0</div>"
        },
        "status": "active\"",
        "distinctIdentifier": "synderai-generator-50",
        "manufacturer": "SYNDERAI Project"
      }
    },
    {
      "fullUrl": "urn:uuid:e6acb82b-94fd-45a4-9b60-f0ecdb1f0888",
      "resource": {
        "resourceType": "Provenance",
        "id": "e6acb82b-94fd-45a4-9b60-f0ecdb1f0888",
        "target": [
          {
            "reference": "Patient/2c04d307-f369-4893-9f29-4e58704d28e3"
          },
          {
            "reference": "Bundle/716e643f-3da0-4108-8625-75cab6855041"
          },
          {
            "reference": "Composition/f65918d7-68ff-44e1-b043-5a334f47dce9"
          },
          {
            "reference": "PractitionerRole/c39b27b0-81a2-4b2f-bc40-710da1897ec2"
          },
          {
            "reference": "Practitioner/b483aa32-55f1-4c7f-84a9-443f9e791199"
          },
          {
            "reference": "PractitionerRole/82267f2a-098f-4bd9-b434-9d7cb2607e88"
          },
          {
            "reference": "Organization/5a8862db-32db-42bf-9a99-33b18171a0d2"
          }
        ],
        "activity": {
          "text": "Synthetic Example Data Generation"
        },
        "policy": [
          "https://synderai.net/synderai-synthetic-data-policy"
        ],
        "agent": [
          {
            "type": {
              "text": "author"
            },
            "who": {
              "reference": "Device/7064427b-ec95-476f-b366-db055e5fc423"
            }
          }
        ],
        "reason": [
          {
            "text": "Interoperability Testing and Training (non-clinical use)"
          }
        ],
        "text": {
          "status": "generated",
          "div": "<div xmlns=\"http://www.w3.org/1999/xhtml\">Provenance for SYNDERAI Synthetic Example Data Resource</div>"
        },
        "recorded": "2023-01-06T05:48:18Z"
      }
    },
    {
      "fullUrl": "urn:uuid:c39b27b0-81a2-4b2f-bc40-710da1897ec2",
      "resource": {
        "resourceType": "PractitionerRole",
        "id": "c39b27b0-81a2-4b2f-bc40-710da1897ec2",
        "meta": {
          "profile": [
            "http://hl7.eu/fhir/base/StructureDefinition/practitionerRole-eu"
          ]
        },
        "text": {
          "status": "generated",
          "div": "<div xmlns=\"http://www.w3.org/1999/xhtml\">Laboratory Role Id: c39b27b0-81a2-4b2f-bc40-710da1897ec2</div>"
        },
        "practitioner": {
          "reference": "urn:uuid:b483aa32-55f1-4c7f-84a9-443f9e791199"
        }
      }
    },
    {
      "fullUrl": "urn:uuid:b483aa32-55f1-4c7f-84a9-443f9e791199",
      "resource": {
        "resourceType": "Practitioner",
        "id": "b483aa32-55f1-4c7f-84a9-443f9e791199",
        "meta": {
          "profile": [
            "http://hl7.eu/fhir/base/StructureDefinition/practitioner-eu"
          ]
        },
        "identifier": [
          {
            "assigner": {
              "display": "HL7 Europe"
            },
            "system": "urn:oid:2.16.840.1.113883.2.51.999",
            "value": "43b17c62-a241-464b-8961-f6201eabdc3b"
          }
        ],
        "name": [
          {
            "prefix": [
              "dr"
            ],
            "given": [
              "Ex"
            ],
            "family": "Ample"
          }
        ],
        "address": [
          {
            "line": [
              "Laboratoire Central Européenne",
              "Boulevard du Jardin Botanique 32"
            ],
            "postalCode": "1000",
            "city": "Brussels",
            "country": "Belgium"
          }
        ],
        "text": {
          "status": "generated",
          "div": "<div xmlns=\"http://www.w3.org/1999/xhtml\">Laboratory: Laboratoire Central Européenne, 1000 Brussels, Belgium</div>"
        }
      }
    }
  ],
  "type": "document",
  "timestamp": "2023-01-06T05:48:18Z"
}
