{
  "resourceType": "Bundle",
  "id": "0ccbbd13-84eb-4f23-8c24-296eed5f5bab",
  "meta": {
    "profile": [
      "http://hl7.eu/fhir/laboratory/StructureDefinition/Bundle-eu-lab"
    ]
  },
  "identifier": {
    "assigner": {
      "display": "HL7 Europe"
    },
    "system": "urn:oid:2.16.840.1.113883.2.51.999",
    "value": "474729bc-f169-4683-97c0-79c49027b3f4"
  },
  "entry": [
    {
      "fullUrl": "urn:uuid:e9f77113-40dc-4aa1-ba68-5f61e31fc7bf",
      "resource": {
        "resourceType": "Composition",
        "id": "e9f77113-40dc-4aa1-ba68-5f61e31fc7bf",
        "meta": {
          "profile": [
            "http://hl7.eu/fhir/laboratory/StructureDefinition/Composition-eu-lab"
          ]
        },
        "identifier": {
          "assigner": {
            "display": "HL7 Europe"
          },
          "system": "urn:oid:2.16.840.1.113883.2.51.999",
          "value": "c5d0e921-1e92-4c62-8b64-8a2326b180f7"
        },
        "author": [
          {
            "reference": "urn:uuid:f42fd99f-f34f-44d0-b519-54903543f6af"
          }
        ],
        "category": [
          {
            "coding": [
              {
                "code": "26436-6",
                "system": "http://loinc.org",
                "display": "Laboratory studies (set)"
              }
            ]
          }
        ],
        "type": {
          "coding": [
            {
              "code": "11502-2",
              "system": "http://loinc.org",
              "display": "Laboratory report"
            }
          ],
          "text": "Laboratory Report"
        },
        "section": [
          {
            "code": {
              "coding": [
                {
                  "code": "26436-6",
                  "system": "http://loinc.org",
                  "display": "Laboratory studies (set)"
                }
              ],
              "text": "Laboratory studies"
            },
            "section": [
              {
                "code": {
                  "coding": [
                    {
                      "code": "$18719-5",
                      "system": "http://loinc.org",
                      "display": "Chemistry studies (set)"
                    }
                  ],
                  "text": "Chemistry"
                },
                "entry": [
                  {
                    "reference": "urn:uuid:63523c8d-8384-4b55-af8f-b26028923766"
                  },
                  {
                    "reference": "urn:uuid:cc6a3296-5a1b-4fc2-a6ae-d9130d8b968f"
                  },
                  {
                    "reference": "urn:uuid:9b661727-0a8c-4660-aa8e-b3420f166b11"
                  },
                  {
                    "reference": "urn:uuid:affa5936-44a6-4e6d-bc4b-679a5770e00c"
                  }
                ],
                "text": {
                  "status": "generated",
                  "div": "<div xmlns=\"http://www.w3.org/1999/xhtml\"><h3>Chemistry</h3><table class=\"hl7__eu__lab__report\"><thead><tr><th>Test</th><th>28-APR-2025</th><th>Reference&#xA0;Range</th><th>Unit</th></tr></thead><tbody><tr><td>Cholesterol [Mass/volume] in Serum or Plasma</td><td><strong>214.6 H</strong></td><td>130 - 200</td><td>mg/dL</td></tr><tr><td>Triglyceride [Mass/volume] in Serum or Plasma</td><td>108.3</td><td>35 - 175</td><td>mg/dL</td></tr><tr><td>Cholesterol in LDL [Mass/volume] in Serum or Plasma by Direct assay</td><td>139.6</td><td>0 - 190</td><td>mg/dL</td></tr><tr><td>Cholesterol in HDL [Mass/volume] in Serum or Plasma</td><td>53.4</td><td>50 - 100</td><td>mg/dL</td></tr></tbody></table></div>"
                },
                "title": "Chemistry"
              }
            ],
            "title": "Laboratory Report"
          },
          {
            "text": {
              "status": "generated",
              "div": "<div xmlns=\"http://www.w3.org/1999/xhtml\"><h3>Annotation</h3><table class=\"hl7__eu__lab__report\"><tr><th>Conclusion and Recommendations based on this report and previous findings known to us</th></tr><tr><td>The patient shows mildly elevated total cholesterol, while LDL, HDL, and triglycerides are within normal limits. Cardiovascular risk should be assessed in the clinical context, but no acute laboratory abnormalities are present. Consider lifestyle modification and monitoring lipid profile as appropriate.</td></tr></table></div>"
            },
            "code": {
              "coding": [
                {
                  "system": "http://loinc.org",
                  "code": "48767-8",
                  "display": "Annotation comment"
                }
              ]
            },
            "title": "Annotation comment"
          }
        ],
        "status": "final",
        "subject": {
          "reference": "urn:uuid:a4b59e51-fdc6-49ae-addf-780bdd21c6ac",
          "display": "Eileen Taylor"
        },
        "date": "2025-04-28T07:47:02Z",
        "title": "Laboratory Report",
        "confidentiality": "N"
      }
    },
    {
      "fullUrl": "urn:uuid:7616bc78-0a1d-4eb6-b239-5f2ea8567c2f",
      "resource": {
        "resourceType": "DiagnosticReport",
        "id": "7616bc78-0a1d-4eb6-b239-5f2ea8567c2f",
        "meta": {
          "profile": [
            "http://hl7.eu/fhir/laboratory/StructureDefinition/DiagnosticReport-eu-lab"
          ]
        },
        "identifier": [
          {
            "assigner": {
              "display": "HL7 Europe"
            },
            "system": "urn:oid:2.16.840.1.113883.2.51.999",
            "value": "49015678-5fa9-431f-9347-cb3bef9f1ab5"
          }
        ],
        "extension": [
          {
            "url": "http://hl7.org/fhir/5.0/StructureDefinition/extension-DiagnosticReport.composition",
            "valueReference": {
              "reference": "urn:uuid:c5d0e921-1e92-4c62-8b64-8a2326b180f7"
            }
          }
        ],
        "category": [
          {
            "coding": [
              {
                "code": "26436-6",
                "system": "http://loinc.org",
                "display": "Laboratory studies (set)"
              }
            ]
          }
        ],
        "specimen": [
          {
            "reference": "urn:uuid:a113f3ea-8f88-4058-a32d-5fe82d0bc8a5"
          }
        ],
        "result": [
          {
            "reference": "urn:uuid:63523c8d-8384-4b55-af8f-b26028923766"
          },
          {
            "reference": "urn:uuid:cc6a3296-5a1b-4fc2-a6ae-d9130d8b968f"
          },
          {
            "reference": "urn:uuid:9b661727-0a8c-4660-aa8e-b3420f166b11"
          },
          {
            "reference": "urn:uuid:affa5936-44a6-4e6d-bc4b-679a5770e00c"
          }
        ],
        "status": "registered",
        "code": {
          "coding": [
            {
              "code": "11502-2",
              "system": "http://loinc.org",
              "display": "Laboratory report"
            }
          ]
        },
        "subject": {
          "reference": "urn:uuid:a4b59e51-fdc6-49ae-addf-780bdd21c6ac",
          "display": "Eileen Taylor"
        }
      }
    },
    {
      "fullUrl": "urn:uuid:a4b59e51-fdc6-49ae-addf-780bdd21c6ac",
      "resource": {
        "resourceType": "Patient",
        "id": "a4b59e51-fdc6-49ae-addf-780bdd21c6ac",
        "meta": {
          "security": [
            {
              "system": "http://terminology.hl7.org/CodeSystem/v3-ActReason",
              "code": "HTEST"
            },
            {
              "system": "http://terminology.hl7.org/CodeSystem/v3-ActReason",
              "code": "TRAIN"
            }
          ],
          "tag": [
            {
              "system": "https://synderai.net/fhir/CodeSystem/tags",
              "code": "synthetic",
              "display": "SYNDERAI Synthetic data"
            }
          ],
          "profile": [
            "http://hl7.eu/fhir/base/StructureDefinition/patient-eu-core"
          ]
        },
        "identifier": [
          {
            "type": {
              "coding": [
                {
                  "code": "PT",
                  "system": "http://terminology.hl7.org/CodeSystem/v2-0203"
                }
              ]
            },
            "system": "http://ec.europa.eu/identifier/eci",
            "value": "6172-576075-7"
          },
          {
            "type": {
              "coding": [
                {
                  "code": "MR",
                  "system": "http://terminology.hl7.org/CodeSystem/v2-0203"
                }
              ]
            },
            "system": "http://local.setting.eu/identifier",
            "value": "f7f175da-cf0d-5686-8800-840d9ab7b47b"
          }
        ],
        "name": [
          {
            "family": "Taylor"
          },
          {
            "given": [
              "Eileen"
            ]
          },
          {
            "text": "Eileen Taylor"
          }
        ],
        "address": [
          {
            "line": [
              "39 Slater harbors"
            ],
            "use": "home",
            "type": "physical",
            "postalCode": "LE17",
            "city": "Smithtown",
            "country": "United Kingdom"
          }
        ],
        "telecom": [
          {
            "system": "phone",
            "value": "+44(0)1614960460"
          }
        ],
        "extension": [
          {
            "url": "http://hl7.org/fhir/StructureDefinition/patient-nationality",
            "valueCodeableConcept": {
              "coding": [
                {
                  "code": "GB",
                  "system": "http://hl7.org/fhir/ValueSet/country"
                }
              ]
            }
          }
        ],
        "text": {
          "status": "generated",
          "div": "<div xmlns=\"http://www.w3.org/1999/xhtml\"><table class=\"hl7__ips\"><tr><td>Eileen Taylor</td><td>female</td><td>11-Dec-1951</td></tr></table></div>"
        },
        "gender": "female",
        "birthDate": "1951-12-11"
      }
    },
    {
      "fullUrl": "urn:uuid:744fc130-e3f8-421d-8022-ca68ebd4452c",
      "resource": {
        "resourceType": "ServiceRequest",
        "id": "744fc130-e3f8-421d-8022-ca68ebd4452c",
        "meta": {
          "profile": [
            "http://hl7.eu/fhir/laboratory/StructureDefinition/ServiceRequest-eu-lab"
          ]
        },
        "identifier": [
          {
            "system": "http://example.org",
            "value": "71ef248f-19e8-4562-a04e-9ec9e2233f6f"
          }
        ],
        "specimen": [
          {
            "reference": "urn:uuid:a113f3ea-8f88-4058-a32d-5fe82d0bc8a5"
          }
        ],
        "reasonCode": [
          {
            "coding": [
              {
                "code": "203082005",
                "system": "http://snomed.info/sct",
                "display": "Fibromyalgia"
              }
            ]
          },
          {
            "coding": [
              {
                "code": "239873007",
                "system": "http://snomed.info/sct",
                "display": "Osteoarthritis of knee"
              }
            ]
          },
          {
            "coding": [
              {
                "code": "55822004",
                "system": "http://snomed.info/sct",
                "display": "Hyperlipidemia"
              }
            ]
          },
          {
            "coding": [
              {
                "code": "254837009",
                "system": "http://snomed.info/sct",
                "display": "Malignant neoplasm of breast"
              }
            ]
          },
          {
            "coding": [
              {
                "code": "197927001",
                "system": "http://snomed.info/sct",
                "display": "Recurrent urinary tract infection"
              }
            ]
          }
        ],
        "status": "active",
        "intent": "order",
        "code": {
          "coding": [
            {
              "code": "108252007",
              "system": "http://snomed.info/sct",
              "display": "Laboratory procedure"
            }
          ]
        },
        "subject": {
          "reference": "urn:uuid:a4b59e51-fdc6-49ae-addf-780bdd21c6ac",
          "display": "Eileen Taylor"
        },
        "requester": {
          "reference": "urn:uuid:feb1232c-8824-447f-91f9-83cb9eb3182d"
        }
      }
    },
    {
      "fullUrl": "urn:uuid:feb1232c-8824-447f-91f9-83cb9eb3182d",
      "resource": {
        "resourceType": "PractitionerRole",
        "id": "feb1232c-8824-447f-91f9-83cb9eb3182d",
        "meta": {
          "profile": [
            "http://hl7.eu/fhir/base/StructureDefinition/practitionerRole-eu"
          ]
        },
        "text": {
          "status": "generated",
          "div": "<div xmlns=\"http://www.w3.org/1999/xhtml\">Provider Role Id: feb1232c-8824-447f-91f9-83cb9eb3182d</div>"
        },
        "organization": {
          "reference": "urn:uuid:41283d30-db54-4c08-a460-5e4e32511478"
        }
      }
    },
    {
      "fullUrl": "urn:uuid:41283d30-db54-4c08-a460-5e4e32511478",
      "resource": {
        "resourceType": "Organization",
        "id": "41283d30-db54-4c08-a460-5e4e32511478",
        "meta": {
          "profile": [
            "http://hl7.eu/fhir/base/StructureDefinition/organization-eu"
          ]
        },
        "identifier": [
          {
            "assigner": {
              "display": "HL7 Europe"
            },
            "system": "urn:oid:2.16.840.1.113883.2.51.999",
            "value": "1586ef89-abb2-4a14-becb-50ff106f3729"
          }
        ],
        "address": [
          {
            "city": "Leicester",
            "postalCode": "LE2 7",
            "country": "United Kingdom"
          }
        ],
        "text": {
          "status": "generated",
          "div": "<div xmlns=\"http://www.w3.org/1999/xhtml\">Provider Organization: Leicester Royal Infirmary</div>"
        },
        "name": "Leicester Royal Infirmary"
      }
    },
    {
      "fullUrl": "urn:uuid:a113f3ea-8f88-4058-a32d-5fe82d0bc8a5",
      "resource": {
        "resourceType": "Specimen",
        "id": "a113f3ea-8f88-4058-a32d-5fe82d0bc8a5",
        "meta": {
          "profile": [
            "http://hl7.eu/fhir/laboratory/StructureDefinition/Specimen-eu-lab"
          ]
        },
        "collection": {
          "collectedDateTime": "2025-04-28"
        },
        "text": {
          "status": "generated",
          "div": "<div xmlns=\"http://www.w3.org/1999/xhtml\"><table class=\"hl7__eu__lab__report\"><tr><th>Specimen</th><th>Collection Date</th></tr><tr><td>Acellular blood (serum or plasma) specimen</td><td><span class=\"nb\">28-Apr-2025</span></td></tr></table></div>"
        },
        "type": {
          "coding": [
            {
              "code": "122592007",
              "system": "http://snomed.info/sct",
              "display": "Acellular blood (serum or plasma) specimen"
            }
          ]
        }
      }
    },
    {
      "fullUrl": "urn:uuid:63523c8d-8384-4b55-af8f-b26028923766",
      "resource": {
        "resourceType": "Observation",
        "id": "63523c8d-8384-4b55-af8f-b26028923766",
        "meta": {
          "profile": [
            "http://hl7.eu/fhir/laboratory/StructureDefinition/Observation-resultslab-eu-lab"
          ]
        },
        "performer": [
          {
            "display": "The Central European Lab"
          }
        ],
        "category": [
          {
            "coding": [
              {
                "system": "http://terminology.hl7.org/CodeSystem/observation-category",
                "code": "laboratory"
              }
            ]
          }
        ],
        "code": {
          "coding": [
            {
              "code": "2093-3",
              "system": "http://loinc.org",
              "display": "Cholesterol [Mass/volume] in Serum or Plasma"
            }
          ],
          "text": "Cholesterol [Mass/volume] in Serum or Plasma"
        },
        "valueQuantity": {
          "system": "http://unitsofmeasure.org",
          "value": 214.6,
          "unit": "mg/dL",
          "code": "mg/dL"
        },
        "referenceRange": [
          {
            "low": {
              "value": 130,
              "code": "mg/dL",
              "system": "http://unitsofmeasure.org"
            }
          },
          {
            "high": {
              "value": 200,
              "code": "mg/dL",
              "system": "http://unitsofmeasure.org"
            }
          }
        ],
        "interpretation": [
          {
            "coding": [
              {
                "code": "H",
                "system": "http://terminology.hl7.org/CodeSystem/v3-ObservationInterpretation",
                "display": "High"
              }
            ]
          }
        ],
        "text": {
          "status": "generated",
          "div": "<div xmlns=\"http://www.w3.org/1999/xhtml\"><table class=\"hl7__eu__lab__report\"><tr><th>Test</th><th>28-Apr-2025</th><th>Reference&#xA0;Range</th><th>Unit</th></tr><tr><td>Cholesterol [Mass/volume] in Serum or Plasma</td><td>214.6</td><td>130 - 200</td><td>H</td><td>mg/dL</td></tr></table></div>"
        },
        "status": "final",
        "subject": {
          "reference": "urn:uuid:a4b59e51-fdc6-49ae-addf-780bdd21c6ac",
          "display": "Eileen Taylor"
        },
        "effectiveDateTime": "2025-04-28T05:47:02Z",
        "specimen": {
          "reference": "urn:uuid:a113f3ea-8f88-4058-a32d-5fe82d0bc8a5"
        }
      }
    },
    {
      "fullUrl": "urn:uuid:cc6a3296-5a1b-4fc2-a6ae-d9130d8b968f",
      "resource": {
        "resourceType": "Observation",
        "id": "cc6a3296-5a1b-4fc2-a6ae-d9130d8b968f",
        "meta": {
          "profile": [
            "http://hl7.eu/fhir/laboratory/StructureDefinition/Observation-resultslab-eu-lab"
          ]
        },
        "performer": [
          {
            "display": "The Central European Lab"
          }
        ],
        "category": [
          {
            "coding": [
              {
                "system": "http://terminology.hl7.org/CodeSystem/observation-category",
                "code": "laboratory"
              }
            ]
          }
        ],
        "code": {
          "coding": [
            {
              "code": "2571-8",
              "system": "http://loinc.org",
              "display": "Triglyceride [Mass/volume] in Serum or Plasma"
            }
          ],
          "text": "Triglyceride [Mass/volume] in Serum or Plasma"
        },
        "valueQuantity": {
          "system": "http://unitsofmeasure.org",
          "value": 108.3,
          "unit": "mg/dL",
          "code": "mg/dL"
        },
        "referenceRange": [
          {
            "low": {
              "value": 35,
              "code": "mg/dL",
              "system": "http://unitsofmeasure.org"
            }
          },
          {
            "high": {
              "value": 175,
              "code": "mg/dL",
              "system": "http://unitsofmeasure.org"
            }
          }
        ],
        "text": {
          "status": "generated",
          "div": "<div xmlns=\"http://www.w3.org/1999/xhtml\"><table class=\"hl7__eu__lab__report\"><tr><th>Test</th><th>28-Apr-2025</th><th>Reference&#xA0;Range</th><th>Unit</th></tr><tr><td>Triglyceride [Mass/volume] in Serum or Plasma</td><td>108.3</td><td>35 - 175</td><td></td><td>mg/dL</td></tr></table></div>"
        },
        "status": "final",
        "subject": {
          "reference": "urn:uuid:a4b59e51-fdc6-49ae-addf-780bdd21c6ac",
          "display": "Eileen Taylor"
        },
        "effectiveDateTime": "2025-04-28T05:47:02Z",
        "specimen": {
          "reference": "urn:uuid:a113f3ea-8f88-4058-a32d-5fe82d0bc8a5"
        }
      }
    },
    {
      "fullUrl": "urn:uuid:9b661727-0a8c-4660-aa8e-b3420f166b11",
      "resource": {
        "resourceType": "Observation",
        "id": "9b661727-0a8c-4660-aa8e-b3420f166b11",
        "meta": {
          "profile": [
            "http://hl7.eu/fhir/laboratory/StructureDefinition/Observation-resultslab-eu-lab"
          ]
        },
        "performer": [
          {
            "display": "The Central European Lab"
          }
        ],
        "category": [
          {
            "coding": [
              {
                "system": "http://terminology.hl7.org/CodeSystem/observation-category",
                "code": "laboratory"
              }
            ]
          }
        ],
        "code": {
          "coding": [
            {
              "code": "18262-6",
              "system": "http://loinc.org",
              "display": "Cholesterol in LDL [Mass/volume] in Serum or Plasma by Direct assay"
            }
          ],
          "text": "Cholesterol in LDL [Mass/volume] in Serum or Plasma by Direct assay"
        },
        "valueQuantity": {
          "system": "http://unitsofmeasure.org",
          "value": 139.6,
          "unit": "mg/dL",
          "code": "mg/dL"
        },
        "referenceRange": [
          {
            "low": {
              "value": 0,
              "code": "mg/dL",
              "system": "http://unitsofmeasure.org"
            }
          },
          {
            "high": {
              "value": 190,
              "code": "mg/dL",
              "system": "http://unitsofmeasure.org"
            }
          }
        ],
        "text": {
          "status": "generated",
          "div": "<div xmlns=\"http://www.w3.org/1999/xhtml\"><table class=\"hl7__eu__lab__report\"><tr><th>Test</th><th>28-Apr-2025</th><th>Reference&#xA0;Range</th><th>Unit</th></tr><tr><td>Cholesterol in LDL [Mass/volume] in Serum or Plasma by Direct assay</td><td>139.6</td><td>0 - 190</td><td></td><td>mg/dL</td></tr></table></div>"
        },
        "status": "final",
        "subject": {
          "reference": "urn:uuid:a4b59e51-fdc6-49ae-addf-780bdd21c6ac",
          "display": "Eileen Taylor"
        },
        "effectiveDateTime": "2025-04-28T05:47:02Z",
        "specimen": {
          "reference": "urn:uuid:a113f3ea-8f88-4058-a32d-5fe82d0bc8a5"
        }
      }
    },
    {
      "fullUrl": "urn:uuid:affa5936-44a6-4e6d-bc4b-679a5770e00c",
      "resource": {
        "resourceType": "Observation",
        "id": "affa5936-44a6-4e6d-bc4b-679a5770e00c",
        "meta": {
          "profile": [
            "http://hl7.eu/fhir/laboratory/StructureDefinition/Observation-resultslab-eu-lab"
          ]
        },
        "performer": [
          {
            "display": "The Central European Lab"
          }
        ],
        "category": [
          {
            "coding": [
              {
                "system": "http://terminology.hl7.org/CodeSystem/observation-category",
                "code": "laboratory"
              }
            ]
          }
        ],
        "code": {
          "coding": [
            {
              "code": "2085-9",
              "system": "http://loinc.org",
              "display": "Cholesterol in HDL [Mass/volume] in Serum or Plasma"
            }
          ],
          "text": "Cholesterol in HDL [Mass/volume] in Serum or Plasma"
        },
        "valueQuantity": {
          "system": "http://unitsofmeasure.org",
          "value": 53.4,
          "unit": "mg/dL",
          "code": "mg/dL"
        },
        "referenceRange": [
          {
            "low": {
              "value": 50,
              "code": "mg/dL",
              "system": "http://unitsofmeasure.org"
            }
          },
          {
            "high": {
              "value": 100,
              "code": "mg/dL",
              "system": "http://unitsofmeasure.org"
            }
          }
        ],
        "text": {
          "status": "generated",
          "div": "<div xmlns=\"http://www.w3.org/1999/xhtml\"><table class=\"hl7__eu__lab__report\"><tr><th>Test</th><th>28-Apr-2025</th><th>Reference&#xA0;Range</th><th>Unit</th></tr><tr><td>Cholesterol in HDL [Mass/volume] in Serum or Plasma</td><td>53.4</td><td>50 - 100</td><td></td><td>mg/dL</td></tr></table></div>"
        },
        "status": "final",
        "subject": {
          "reference": "urn:uuid:a4b59e51-fdc6-49ae-addf-780bdd21c6ac",
          "display": "Eileen Taylor"
        },
        "effectiveDateTime": "2025-04-28T05:47:02Z",
        "specimen": {
          "reference": "urn:uuid:a113f3ea-8f88-4058-a32d-5fe82d0bc8a5"
        }
      }
    },
    {
      "fullUrl": "urn:uuid:eb5e9636-3bcb-45d3-bd94-c615f2d947d5",
      "resource": {
        "resourceType": "Device",
        "id": "eb5e9636-3bcb-45d3-bd94-c615f2d947d5",
        "deviceName": [
          {
            "name": "SYNDERAI Synthetic Generator",
            "type": "manufacturer-name"
          }
        ],
        "version": [
          {
            "value": "5.0"
          }
        ],
        "text": {
          "status": "generated",
          "div": "<div xmlns=\"http://www.w3.org/1999/xhtml\">SYNDERAI Synthetic Generator v5.0</div>"
        },
        "status": "active\"",
        "distinctIdentifier": "synderai-generator-50",
        "manufacturer": "SYNDERAI Project"
      }
    },
    {
      "fullUrl": "urn:uuid:f8a6ca35-e269-459e-999b-20786e0ddf38",
      "resource": {
        "resourceType": "Provenance",
        "id": "f8a6ca35-e269-459e-999b-20786e0ddf38",
        "target": [
          {
            "reference": "Patient/a4b59e51-fdc6-49ae-addf-780bdd21c6ac"
          },
          {
            "reference": "Bundle/0ccbbd13-84eb-4f23-8c24-296eed5f5bab"
          },
          {
            "reference": "Composition/e9f77113-40dc-4aa1-ba68-5f61e31fc7bf"
          },
          {
            "reference": "PractitionerRole/f42fd99f-f34f-44d0-b519-54903543f6af"
          },
          {
            "reference": "Practitioner/7ad59d00-a2ef-495e-8adc-666650f420a7"
          },
          {
            "reference": "PractitionerRole/feb1232c-8824-447f-91f9-83cb9eb3182d"
          },
          {
            "reference": "Organization/41283d30-db54-4c08-a460-5e4e32511478"
          }
        ],
        "activity": {
          "text": "Synthetic Example Data Generation"
        },
        "policy": [
          "https://synderai.net/synderai-synthetic-data-policy"
        ],
        "agent": [
          {
            "type": {
              "text": "author"
            },
            "who": {
              "reference": "Device/eb5e9636-3bcb-45d3-bd94-c615f2d947d5"
            }
          }
        ],
        "reason": [
          {
            "text": "Interoperability Testing and Training (non-clinical use)"
          }
        ],
        "text": {
          "status": "generated",
          "div": "<div xmlns=\"http://www.w3.org/1999/xhtml\">Provenance for SYNDERAI Synthetic Example Data Resource</div>"
        },
        "recorded": "2025-04-28T07:47:02Z"
      }
    },
    {
      "fullUrl": "urn:uuid:f42fd99f-f34f-44d0-b519-54903543f6af",
      "resource": {
        "resourceType": "PractitionerRole",
        "id": "f42fd99f-f34f-44d0-b519-54903543f6af",
        "meta": {
          "profile": [
            "http://hl7.eu/fhir/base/StructureDefinition/practitionerRole-eu"
          ]
        },
        "text": {
          "status": "generated",
          "div": "<div xmlns=\"http://www.w3.org/1999/xhtml\">Laboratory Role Id: f42fd99f-f34f-44d0-b519-54903543f6af</div>"
        },
        "practitioner": {
          "reference": "urn:uuid:7ad59d00-a2ef-495e-8adc-666650f420a7"
        }
      }
    },
    {
      "fullUrl": "urn:uuid:7ad59d00-a2ef-495e-8adc-666650f420a7",
      "resource": {
        "resourceType": "Practitioner",
        "id": "7ad59d00-a2ef-495e-8adc-666650f420a7",
        "meta": {
          "profile": [
            "http://hl7.eu/fhir/base/StructureDefinition/practitioner-eu"
          ]
        },
        "identifier": [
          {
            "assigner": {
              "display": "HL7 Europe"
            },
            "system": "urn:oid:2.16.840.1.113883.2.51.999",
            "value": "d33f29e2-292e-4f59-873d-efc38863e600"
          }
        ],
        "name": [
          {
            "prefix": [
              "dr"
            ],
            "given": [
              "Ex"
            ],
            "family": "Ample"
          }
        ],
        "address": [
          {
            "line": [
              "Laboratoire Central Européenne",
              "Boulevard du Jardin Botanique 32"
            ],
            "postalCode": "1000",
            "city": "Brussels",
            "country": "Belgium"
          }
        ],
        "text": {
          "status": "generated",
          "div": "<div xmlns=\"http://www.w3.org/1999/xhtml\">Laboratory: Laboratoire Central Européenne, 1000 Brussels, Belgium</div>"
        }
      }
    }
  ],
  "type": "document",
  "timestamp": "2025-04-28T07:47:02Z"
}
