{
  "resourceType": "Bundle",
  "id": "945b15a9-6686-4983-a114-8e9911c3f37a",
  "meta": {
    "profile": [
      "http://hl7.eu/fhir/laboratory/StructureDefinition/Bundle-eu-lab"
    ]
  },
  "identifier": {
    "assigner": {
      "display": "HL7 Europe"
    },
    "system": "urn:oid:2.16.840.1.113883.2.51.999",
    "value": "e817edd2-ae04-492a-9d19-a9d9e3f7eba0"
  },
  "entry": [
    {
      "fullUrl": "urn:uuid:0e3efccf-42af-4090-be32-54b423ad0d51",
      "resource": {
        "resourceType": "Composition",
        "id": "0e3efccf-42af-4090-be32-54b423ad0d51",
        "meta": {
          "profile": [
            "http://hl7.eu/fhir/laboratory/StructureDefinition/Composition-eu-lab"
          ]
        },
        "identifier": {
          "assigner": {
            "display": "HL7 Europe"
          },
          "system": "urn:oid:2.16.840.1.113883.2.51.999",
          "value": "ebd465d8-f7d0-47da-954f-632eeb8d169b"
        },
        "author": [
          {
            "reference": "urn:uuid:19931cc1-15b5-4aeb-90a1-cab0074c376e"
          }
        ],
        "category": [
          {
            "coding": [
              {
                "code": "26436-6",
                "system": "http://loinc.org",
                "display": "Laboratory studies (set)"
              }
            ]
          }
        ],
        "type": {
          "coding": [
            {
              "code": "11502-2",
              "system": "http://loinc.org",
              "display": "Laboratory report"
            }
          ],
          "text": "Laboratory Report"
        },
        "section": [
          {
            "code": {
              "coding": [
                {
                  "code": "26436-6",
                  "system": "http://loinc.org",
                  "display": "Laboratory studies (set)"
                }
              ],
              "text": "Laboratory studies"
            },
            "section": [
              {
                "code": {
                  "coding": [
                    {
                      "code": "$18719-5",
                      "system": "http://loinc.org",
                      "display": "Chemistry studies (set)"
                    }
                  ],
                  "text": "Chemistry"
                },
                "entry": [
                  {
                    "reference": "urn:uuid:6333f2d5-cd72-44b7-9fd1-8d543f420ba1"
                  },
                  {
                    "reference": "urn:uuid:2ca3f211-d388-4e48-9647-f3acd7ef6469"
                  },
                  {
                    "reference": "urn:uuid:e53dbe29-d35c-444b-9f6b-bb299efb0613"
                  },
                  {
                    "reference": "urn:uuid:3b13b45b-7de0-41e9-bb5e-26a213dc93a4"
                  },
                  {
                    "reference": "urn:uuid:679fad92-8b3a-4666-af15-451abb6fb432"
                  },
                  {
                    "reference": "urn:uuid:c1472acf-5f1f-458a-b24d-8fea5f47cdec"
                  },
                  {
                    "reference": "urn:uuid:a25cacc2-de6b-40ca-96c2-3961064d3d97"
                  },
                  {
                    "reference": "urn:uuid:4482e407-0569-464a-b663-dedfe9455e14"
                  },
                  {
                    "reference": "urn:uuid:bab6d7d6-ab11-462a-b96e-14bff95af031"
                  },
                  {
                    "reference": "urn:uuid:11ffcbfd-1ae9-4852-8577-d055db508f1a"
                  },
                  {
                    "reference": "urn:uuid:4babfbda-882a-4add-b15c-4d01ee9a1c38"
                  },
                  {
                    "reference": "urn:uuid:9102a5df-fc37-49c1-8e3f-15a0ce833e54"
                  },
                  {
                    "reference": "urn:uuid:6ca7031e-734f-43d8-9db6-0c66e1afadf6"
                  },
                  {
                    "reference": "urn:uuid:91bd92c7-9a76-45a5-a5ff-b79cbaa286cc"
                  },
                  {
                    "reference": "urn:uuid:b8590046-e3ee-4c36-8970-d998dd8f1b65"
                  },
                  {
                    "reference": "urn:uuid:72a55d02-ac30-48db-a1c4-72803afcb04f"
                  },
                  {
                    "reference": "urn:uuid:2e05a5f6-57b0-4b5e-99d0-123169b06957"
                  },
                  {
                    "reference": "urn:uuid:a609bac9-4ddd-41d0-ab14-5efacff87d57"
                  },
                  {
                    "reference": "urn:uuid:647f7be4-4001-467f-8ddd-717717d9e608"
                  }
                ],
                "text": {
                  "status": "generated",
                  "div": "<div xmlns=\"http://www.w3.org/1999/xhtml\"><h3>Chemistry</h3><table class=\"hl7__eu__lab__report\"><thead><tr><th>Test</th><th>18-MAR-2019</th><th>Reference&#xA0;Range</th><th>Unit</th></tr></thead><tbody><tr><td>Glucose [Mass/volume] in Blood</td><td>93.5</td><td>70 - 140</td><td>mg/dL</td></tr><tr><td>Urea nitrogen [Mass/volume] in Blood</td><td>12.0</td><td>7 - 20</td><td>mg/dL</td></tr><tr><td>Creatinine [Mass/volume] in Blood</td><td><strong>3.3 H</strong></td><td>0.5 - 1.3</td><td>mg/dL</td></tr><tr><td>Calcium [Mass/volume] in Blood</td><td>10.0</td><td>8.5 - 10.5</td><td>mg/dL</td></tr><tr><td>Sodium [Moles/volume] in Blood</td><td>139.8</td><td>135 - 145</td><td>mmol/L</td></tr><tr><td>Potassium [Moles/volume] in Blood</td><td>4.9</td><td>3.5 - 5.1</td><td>mmol/L</td></tr><tr><td>Chloride [Moles/volume] in Blood</td><td>104.2</td><td>98 - 108</td><td>mmol/L</td></tr><tr><td>Carbon dioxide, total [Moles/volume] in Blood</td><td><strong>20.0 L</strong></td><td>22 - 29</td><td>mmol/L</td></tr><tr><td>Protein [Mass/volume] in Serum or Plasma</td><td>7.8</td><td>6 - 8.2</td><td>g/dL</td></tr><tr><td>Albumin [Mass/volume] in Serum or Plasma</td><td><strong>5.2 H</strong></td><td>3.5 - 5</td><td>g/dL</td></tr><tr><td>Globulin [Mass/volume] in Serum by calculation</td><td>3.2</td><td>2 - 4</td><td>g/L</td></tr><tr><td>Bilirubin.total [Mass/volume] in Serum or Plasma</td><td>1.1</td><td>0.3 - 1.2</td><td>mg/dL</td></tr><tr><td>Alkaline phosphatase [Enzymatic activity/volume] in Serum or Plasma</td><td>65.0</td><td>35 - 141</td><td>U/L</td></tr><tr><td>Alanine aminotransferase [Enzymatic activity/volume] in Serum or Plasma</td><td>51.1</td><td>7 - 60</td><td>U/L</td></tr><tr><td>Aspartate aminotransferase [Enzymatic activity/volume] in Serum or Plasma</td><td>16.2</td><td>10 - 40</td><td>U/L</td></tr><tr><td>Cholesterol [Mass/volume] in Serum or Plasma</td><td>190.4</td><td>0 - 200</td><td>mg/dL</td></tr><tr><td>Triglyceride [Mass/volume] in Serum or Plasma</td><td>157.1</td><td>0 - 199</td><td>mg/dL</td></tr><tr><td>Cholesterol in LDL [Mass/volume] in Serum or Plasma by Direct assay</td><td>125.9</td><td>0 - 130</td><td>mg/dL</td></tr><tr><td>Cholesterol in HDL [Mass/volume] in Serum or Plasma</td><td>50.1</td><td>46 - 77</td><td>mg/dL</td></tr></tbody></table></div>"
                },
                "title": "Chemistry"
              }
            ],
            "title": "Laboratory Report"
          },
          {
            "text": {
              "status": "generated",
              "div": "<div xmlns=\"http://www.w3.org/1999/xhtml\"><h3>Annotation</h3><table class=\"hl7__eu__lab__report\"><tr><th>Conclusion and Recommendations based on this report and previous findings known to us</th></tr><tr><td>The patient shows significantly elevated creatinine, suggesting impaired renal function, and low total CO₂, which may indicate mild metabolic acidosis. Albumin is slightly above normal, but other parameters including glucose, electrolytes, liver enzymes, and lipids are within or near normal limits. Renal impairment should be further evaluated and correlated clinically.</td></tr></table></div>"
            },
            "code": {
              "coding": [
                {
                  "system": "http://loinc.org",
                  "code": "48767-8",
                  "display": "Annotation comment"
                }
              ]
            },
            "title": "Annotation comment"
          }
        ],
        "status": "final",
        "subject": {
          "reference": "urn:uuid:c9fd7102-5153-45e8-b09e-72375bbb6b4f",
          "display": "Marlene Gerlach"
        },
        "date": "2019-03-18T20:24:33Z",
        "title": "Laboratory Report",
        "confidentiality": "N"
      }
    },
    {
      "fullUrl": "urn:uuid:e30c688c-0405-4e4e-9b46-e7dceb22cfb5",
      "resource": {
        "resourceType": "DiagnosticReport",
        "id": "e30c688c-0405-4e4e-9b46-e7dceb22cfb5",
        "meta": {
          "profile": [
            "http://hl7.eu/fhir/laboratory/StructureDefinition/DiagnosticReport-eu-lab"
          ]
        },
        "identifier": [
          {
            "assigner": {
              "display": "HL7 Europe"
            },
            "system": "urn:oid:2.16.840.1.113883.2.51.999",
            "value": "40bd2d8e-3df7-45f8-8222-0ed4567eac32"
          }
        ],
        "extension": [
          {
            "url": "http://hl7.org/fhir/5.0/StructureDefinition/extension-DiagnosticReport.composition",
            "valueReference": {
              "reference": "urn:uuid:ebd465d8-f7d0-47da-954f-632eeb8d169b"
            }
          }
        ],
        "category": [
          {
            "coding": [
              {
                "code": "26436-6",
                "system": "http://loinc.org",
                "display": "Laboratory studies (set)"
              }
            ]
          }
        ],
        "specimen": [
          {
            "reference": "urn:uuid:3b7696ac-def2-4354-b430-9462fb9c2cb0"
          },
          {
            "reference": "urn:uuid:99d63890-0c3e-4bde-b723-d411639030bd"
          },
          {
            "reference": "urn:uuid:c80de810-a0c2-4fdf-ac4c-d649ecaeed45"
          }
        ],
        "result": [
          {
            "reference": "urn:uuid:6333f2d5-cd72-44b7-9fd1-8d543f420ba1"
          },
          {
            "reference": "urn:uuid:2ca3f211-d388-4e48-9647-f3acd7ef6469"
          },
          {
            "reference": "urn:uuid:e53dbe29-d35c-444b-9f6b-bb299efb0613"
          },
          {
            "reference": "urn:uuid:3b13b45b-7de0-41e9-bb5e-26a213dc93a4"
          },
          {
            "reference": "urn:uuid:679fad92-8b3a-4666-af15-451abb6fb432"
          },
          {
            "reference": "urn:uuid:c1472acf-5f1f-458a-b24d-8fea5f47cdec"
          },
          {
            "reference": "urn:uuid:a25cacc2-de6b-40ca-96c2-3961064d3d97"
          },
          {
            "reference": "urn:uuid:4482e407-0569-464a-b663-dedfe9455e14"
          },
          {
            "reference": "urn:uuid:bab6d7d6-ab11-462a-b96e-14bff95af031"
          },
          {
            "reference": "urn:uuid:11ffcbfd-1ae9-4852-8577-d055db508f1a"
          },
          {
            "reference": "urn:uuid:4babfbda-882a-4add-b15c-4d01ee9a1c38"
          },
          {
            "reference": "urn:uuid:9102a5df-fc37-49c1-8e3f-15a0ce833e54"
          },
          {
            "reference": "urn:uuid:6ca7031e-734f-43d8-9db6-0c66e1afadf6"
          },
          {
            "reference": "urn:uuid:91bd92c7-9a76-45a5-a5ff-b79cbaa286cc"
          },
          {
            "reference": "urn:uuid:b8590046-e3ee-4c36-8970-d998dd8f1b65"
          },
          {
            "reference": "urn:uuid:72a55d02-ac30-48db-a1c4-72803afcb04f"
          },
          {
            "reference": "urn:uuid:2e05a5f6-57b0-4b5e-99d0-123169b06957"
          },
          {
            "reference": "urn:uuid:a609bac9-4ddd-41d0-ab14-5efacff87d57"
          },
          {
            "reference": "urn:uuid:647f7be4-4001-467f-8ddd-717717d9e608"
          }
        ],
        "status": "registered",
        "code": {
          "coding": [
            {
              "code": "11502-2",
              "system": "http://loinc.org",
              "display": "Laboratory report"
            }
          ]
        },
        "subject": {
          "reference": "urn:uuid:c9fd7102-5153-45e8-b09e-72375bbb6b4f",
          "display": "Marlene Gerlach"
        }
      }
    },
    {
      "fullUrl": "urn:uuid:c9fd7102-5153-45e8-b09e-72375bbb6b4f",
      "resource": {
        "resourceType": "Patient",
        "id": "c9fd7102-5153-45e8-b09e-72375bbb6b4f",
        "meta": {
          "security": [
            {
              "system": "http://terminology.hl7.org/CodeSystem/v3-ActReason",
              "code": "HTEST"
            },
            {
              "system": "http://terminology.hl7.org/CodeSystem/v3-ActReason",
              "code": "TRAIN"
            }
          ],
          "tag": [
            {
              "system": "https://synderai.net/fhir/CodeSystem/tags",
              "code": "synthetic",
              "display": "SYNDERAI Synthetic data"
            }
          ],
          "profile": [
            "http://hl7.eu/fhir/base/StructureDefinition/patient-eu-core"
          ]
        },
        "identifier": [
          {
            "type": {
              "coding": [
                {
                  "code": "PT",
                  "system": "http://terminology.hl7.org/CodeSystem/v2-0203"
                }
              ]
            },
            "system": "http://ec.europa.eu/identifier/eci",
            "value": "4536-398571-9"
          },
          {
            "type": {
              "coding": [
                {
                  "code": "MR",
                  "system": "http://terminology.hl7.org/CodeSystem/v2-0203"
                }
              ]
            },
            "system": "http://local.setting.eu/identifier",
            "value": "ff7a4ff6-4bac-f07f-03c9-b91b1e1cfb23"
          }
        ],
        "name": [
          {
            "family": "Gerlach"
          },
          {
            "given": [
              "Marlene"
            ]
          },
          {
            "text": "Marlene Gerlach"
          }
        ],
        "address": [
          {
            "line": [
              "Etzlerplatz 57-53"
            ],
            "use": "home",
            "type": "physical",
            "postalCode": "71522",
            "city": "Backnang",
            "country": "Germany"
          }
        ],
        "telecom": [
          {
            "system": "phone",
            "value": "+49(0)2700 61724"
          }
        ],
        "extension": [
          {
            "url": "http://hl7.org/fhir/StructureDefinition/patient-nationality",
            "valueCodeableConcept": {
              "coding": [
                {
                  "code": "DE",
                  "system": "http://hl7.org/fhir/ValueSet/country"
                }
              ]
            }
          }
        ],
        "text": {
          "status": "generated",
          "div": "<div xmlns=\"http://www.w3.org/1999/xhtml\"><table class=\"hl7__ips\"><tr><td>Marlene Gerlach</td><td>female</td><td>28-Aug-1939</td></tr></table></div>"
        },
        "gender": "female",
        "birthDate": "1939-08-28"
      }
    },
    {
      "fullUrl": "urn:uuid:8b6ea529-d75d-4c9c-8a8c-e71336303283",
      "resource": {
        "resourceType": "ServiceRequest",
        "id": "8b6ea529-d75d-4c9c-8a8c-e71336303283",
        "meta": {
          "profile": [
            "http://hl7.eu/fhir/laboratory/StructureDefinition/ServiceRequest-eu-lab"
          ]
        },
        "identifier": [
          {
            "system": "http://example.org",
            "value": "d0c58950-7fd4-44f3-bb62-5eb9868aa899"
          }
        ],
        "specimen": [
          {
            "reference": "urn:uuid:3b7696ac-def2-4354-b430-9462fb9c2cb0"
          },
          {
            "reference": "urn:uuid:99d63890-0c3e-4bde-b723-d411639030bd"
          },
          {
            "reference": "urn:uuid:c80de810-a0c2-4fdf-ac4c-d649ecaeed45"
          }
        ],
        "reasonCode": [
          {
            "coding": [
              {
                "code": "55822004",
                "system": "http://snomed.info/sct",
                "display": "Hyperlipidemia"
              }
            ]
          },
          {
            "coding": [
              {
                "code": "414545008",
                "system": "http://snomed.info/sct",
                "display": "Ischemic heart disease"
              }
            ]
          },
          {
            "coding": [
              {
                "code": "157141000119108",
                "system": "http://snomed.info/sct",
                "display": "Proteinuria due to type 2 diabetes mellitus"
              }
            ]
          },
          {
            "coding": [
              {
                "code": "90781000119102",
                "system": "http://snomed.info/sct",
                "display": "Microalbuminuria due to type 2 diabetes mellitus"
              }
            ]
          },
          {
            "coding": [
              {
                "code": "127013003",
                "system": "http://snomed.info/sct",
                "display": "Disorder of kidney due to diabetes mellitus"
              }
            ]
          },
          {
            "coding": [
              {
                "code": "271737000",
                "system": "http://snomed.info/sct",
                "display": "Anemia"
              }
            ]
          },
          {
            "coding": [
              {
                "code": "15777000",
                "system": "http://snomed.info/sct",
                "display": "Prediabetes"
              }
            ]
          },
          {
            "coding": [
              {
                "code": "59621000",
                "system": "http://snomed.info/sct",
                "display": "Essential hypertension"
              }
            ]
          }
        ],
        "status": "active",
        "intent": "order",
        "code": {
          "coding": [
            {
              "code": "108252007",
              "system": "http://snomed.info/sct",
              "display": "Laboratory procedure"
            }
          ]
        },
        "subject": {
          "reference": "urn:uuid:c9fd7102-5153-45e8-b09e-72375bbb6b4f",
          "display": "Marlene Gerlach"
        },
        "requester": {
          "reference": "urn:uuid:ff9a301e-3644-436d-861d-337087850ddc"
        }
      }
    },
    {
      "fullUrl": "urn:uuid:ff9a301e-3644-436d-861d-337087850ddc",
      "resource": {
        "resourceType": "PractitionerRole",
        "id": "ff9a301e-3644-436d-861d-337087850ddc",
        "meta": {
          "profile": [
            "http://hl7.eu/fhir/base/StructureDefinition/practitionerRole-eu"
          ]
        },
        "text": {
          "status": "generated",
          "div": "<div xmlns=\"http://www.w3.org/1999/xhtml\">Provider Role Id: ff9a301e-3644-436d-861d-337087850ddc</div>"
        },
        "organization": {
          "reference": "urn:uuid:c01646fa-d979-4357-ac87-a6c3ed03a844"
        }
      }
    },
    {
      "fullUrl": "urn:uuid:c01646fa-d979-4357-ac87-a6c3ed03a844",
      "resource": {
        "resourceType": "Organization",
        "id": "c01646fa-d979-4357-ac87-a6c3ed03a844",
        "meta": {
          "profile": [
            "http://hl7.eu/fhir/base/StructureDefinition/organization-eu"
          ]
        },
        "identifier": [
          {
            "assigner": {
              "display": "HL7 Europe"
            },
            "system": "urn:oid:2.16.840.1.113883.2.51.999",
            "value": "cc4b6129-5078-46c1-9317-95106cde49b9"
          }
        ],
        "address": [
          {
            "line": [
              "Karl-Krische-Straße 4"
            ],
            "city": "Backnang",
            "postalCode": "71522",
            "country": "Germany"
          }
        ],
        "text": {
          "status": "generated",
          "div": "<div xmlns=\"http://www.w3.org/1999/xhtml\">Provider Organization: Gesundheitszentrum</div>"
        },
        "name": "Gesundheitszentrum"
      }
    },
    {
      "fullUrl": "urn:uuid:3b7696ac-def2-4354-b430-9462fb9c2cb0",
      "resource": {
        "resourceType": "Specimen",
        "id": "3b7696ac-def2-4354-b430-9462fb9c2cb0",
        "meta": {
          "profile": [
            "http://hl7.eu/fhir/laboratory/StructureDefinition/Specimen-eu-lab"
          ]
        },
        "collection": {
          "collectedDateTime": "2019-03-18"
        },
        "text": {
          "status": "generated",
          "div": "<div xmlns=\"http://www.w3.org/1999/xhtml\"><table class=\"hl7__eu__lab__report\"><tr><th>Specimen</th><th>Collection Date</th></tr><tr><td>Whole blood specimen (specimen)</td><td><span class=\"nb\">18-Mar-2019</span></td></tr></table></div>"
        },
        "type": {
          "coding": [
            {
              "code": "258580003",
              "system": "http://snomed.info/sct",
              "display": "Whole blood specimen (specimen)"
            }
          ]
        }
      }
    },
    {
      "fullUrl": "urn:uuid:99d63890-0c3e-4bde-b723-d411639030bd",
      "resource": {
        "resourceType": "Specimen",
        "id": "99d63890-0c3e-4bde-b723-d411639030bd",
        "meta": {
          "profile": [
            "http://hl7.eu/fhir/laboratory/StructureDefinition/Specimen-eu-lab"
          ]
        },
        "collection": {
          "collectedDateTime": "2019-03-18"
        },
        "text": {
          "status": "generated",
          "div": "<div xmlns=\"http://www.w3.org/1999/xhtml\"><table class=\"hl7__eu__lab__report\"><tr><th>Specimen</th><th>Collection Date</th></tr><tr><td>Acellular blood (serum or plasma) specimen</td><td><span class=\"nb\">18-Mar-2019</span></td></tr></table></div>"
        },
        "type": {
          "coding": [
            {
              "code": "122592007",
              "system": "http://snomed.info/sct",
              "display": "Acellular blood (serum or plasma) specimen"
            }
          ]
        }
      }
    },
    {
      "fullUrl": "urn:uuid:c80de810-a0c2-4fdf-ac4c-d649ecaeed45",
      "resource": {
        "resourceType": "Specimen",
        "id": "c80de810-a0c2-4fdf-ac4c-d649ecaeed45",
        "meta": {
          "profile": [
            "http://hl7.eu/fhir/laboratory/StructureDefinition/Specimen-eu-lab"
          ]
        },
        "collection": {
          "collectedDateTime": "2019-03-18"
        },
        "text": {
          "status": "generated",
          "div": "<div xmlns=\"http://www.w3.org/1999/xhtml\"><table class=\"hl7__eu__lab__report\"><tr><th>Specimen</th><th>Collection Date</th></tr><tr><td>Serum specimen</td><td><span class=\"nb\">18-Mar-2019</span></td></tr></table></div>"
        },
        "type": {
          "coding": [
            {
              "code": "119364003",
              "system": "http://snomed.info/sct",
              "display": "Serum specimen"
            }
          ]
        }
      }
    },
    {
      "fullUrl": "urn:uuid:6333f2d5-cd72-44b7-9fd1-8d543f420ba1",
      "resource": {
        "resourceType": "Observation",
        "id": "6333f2d5-cd72-44b7-9fd1-8d543f420ba1",
        "meta": {
          "profile": [
            "http://hl7.eu/fhir/laboratory/StructureDefinition/Observation-resultslab-eu-lab"
          ]
        },
        "performer": [
          {
            "display": "The Central European Lab"
          }
        ],
        "category": [
          {
            "coding": [
              {
                "system": "http://terminology.hl7.org/CodeSystem/observation-category",
                "code": "laboratory"
              }
            ]
          }
        ],
        "code": {
          "coding": [
            {
              "code": "2339-0",
              "system": "http://loinc.org",
              "display": "Glucose [Mass/volume] in Blood"
            }
          ],
          "text": "Glucose [Mass/volume] in Blood"
        },
        "valueQuantity": {
          "system": "http://unitsofmeasure.org",
          "value": 93.5,
          "unit": "mg/dL",
          "code": "mg/dL"
        },
        "referenceRange": [
          {
            "low": {
              "value": 70,
              "code": "mg/dL",
              "system": "http://unitsofmeasure.org"
            }
          },
          {
            "high": {
              "value": 140,
              "code": "mg/dL",
              "system": "http://unitsofmeasure.org"
            }
          }
        ],
        "text": {
          "status": "generated",
          "div": "<div xmlns=\"http://www.w3.org/1999/xhtml\"><table class=\"hl7__eu__lab__report\"><tr><th>Test</th><th>18-Mar-2019</th><th>Reference&#xA0;Range</th><th>Unit</th></tr><tr><td>Glucose [Mass/volume] in Blood</td><td>93.5</td><td>70 - 140</td><td></td><td>mg/dL</td></tr></table></div>"
        },
        "status": "final",
        "subject": {
          "reference": "urn:uuid:c9fd7102-5153-45e8-b09e-72375bbb6b4f",
          "display": "Marlene Gerlach"
        },
        "effectiveDateTime": "2019-03-18T19:24:33Z",
        "specimen": {
          "reference": "urn:uuid:3b7696ac-def2-4354-b430-9462fb9c2cb0"
        }
      }
    },
    {
      "fullUrl": "urn:uuid:2ca3f211-d388-4e48-9647-f3acd7ef6469",
      "resource": {
        "resourceType": "Observation",
        "id": "2ca3f211-d388-4e48-9647-f3acd7ef6469",
        "meta": {
          "profile": [
            "http://hl7.eu/fhir/laboratory/StructureDefinition/Observation-resultslab-eu-lab"
          ]
        },
        "performer": [
          {
            "display": "The Central European Lab"
          }
        ],
        "category": [
          {
            "coding": [
              {
                "system": "http://terminology.hl7.org/CodeSystem/observation-category",
                "code": "laboratory"
              }
            ]
          }
        ],
        "code": {
          "coding": [
            {
              "code": "6299-2",
              "system": "http://loinc.org",
              "display": "Urea nitrogen [Mass/volume] in Blood"
            }
          ],
          "text": "Urea nitrogen [Mass/volume] in Blood"
        },
        "valueQuantity": {
          "system": "http://unitsofmeasure.org",
          "value": 12,
          "unit": "mg/dL",
          "code": "mg/dL"
        },
        "referenceRange": [
          {
            "low": {
              "value": 7,
              "code": "mg/dL",
              "system": "http://unitsofmeasure.org"
            }
          },
          {
            "high": {
              "value": 20,
              "code": "mg/dL",
              "system": "http://unitsofmeasure.org"
            }
          }
        ],
        "text": {
          "status": "generated",
          "div": "<div xmlns=\"http://www.w3.org/1999/xhtml\"><table class=\"hl7__eu__lab__report\"><tr><th>Test</th><th>18-Mar-2019</th><th>Reference&#xA0;Range</th><th>Unit</th></tr><tr><td>Urea nitrogen [Mass/volume] in Blood</td><td>12.0</td><td>7 - 20</td><td></td><td>mg/dL</td></tr></table></div>"
        },
        "status": "final",
        "subject": {
          "reference": "urn:uuid:c9fd7102-5153-45e8-b09e-72375bbb6b4f",
          "display": "Marlene Gerlach"
        },
        "effectiveDateTime": "2019-03-18T19:24:33Z",
        "specimen": {
          "reference": "urn:uuid:3b7696ac-def2-4354-b430-9462fb9c2cb0"
        }
      }
    },
    {
      "fullUrl": "urn:uuid:e53dbe29-d35c-444b-9f6b-bb299efb0613",
      "resource": {
        "resourceType": "Observation",
        "id": "e53dbe29-d35c-444b-9f6b-bb299efb0613",
        "meta": {
          "profile": [
            "http://hl7.eu/fhir/laboratory/StructureDefinition/Observation-resultslab-eu-lab"
          ]
        },
        "performer": [
          {
            "display": "The Central European Lab"
          }
        ],
        "category": [
          {
            "coding": [
              {
                "system": "http://terminology.hl7.org/CodeSystem/observation-category",
                "code": "laboratory"
              }
            ]
          }
        ],
        "code": {
          "coding": [
            {
              "code": "38483-4",
              "system": "http://loinc.org",
              "display": "Creatinine [Mass/volume] in Blood"
            }
          ],
          "text": "Creatinine [Mass/volume] in Blood"
        },
        "valueQuantity": {
          "system": "http://unitsofmeasure.org",
          "value": 3.3,
          "unit": "mg/dL",
          "code": "mg/dL"
        },
        "referenceRange": [
          {
            "low": {
              "value": 0.5,
              "code": "mg/dL",
              "system": "http://unitsofmeasure.org"
            }
          },
          {
            "high": {
              "value": 1.3,
              "code": "mg/dL",
              "system": "http://unitsofmeasure.org"
            }
          }
        ],
        "interpretation": [
          {
            "coding": [
              {
                "code": "H",
                "system": "http://terminology.hl7.org/CodeSystem/v3-ObservationInterpretation",
                "display": "High"
              }
            ]
          }
        ],
        "text": {
          "status": "generated",
          "div": "<div xmlns=\"http://www.w3.org/1999/xhtml\"><table class=\"hl7__eu__lab__report\"><tr><th>Test</th><th>18-Mar-2019</th><th>Reference&#xA0;Range</th><th>Unit</th></tr><tr><td>Creatinine [Mass/volume] in Blood</td><td>3.3</td><td>0.5 - 1.3</td><td>H</td><td>mg/dL</td></tr></table></div>"
        },
        "status": "final",
        "subject": {
          "reference": "urn:uuid:c9fd7102-5153-45e8-b09e-72375bbb6b4f",
          "display": "Marlene Gerlach"
        },
        "effectiveDateTime": "2019-03-18T19:24:33Z",
        "specimen": {
          "reference": "urn:uuid:3b7696ac-def2-4354-b430-9462fb9c2cb0"
        }
      }
    },
    {
      "fullUrl": "urn:uuid:3b13b45b-7de0-41e9-bb5e-26a213dc93a4",
      "resource": {
        "resourceType": "Observation",
        "id": "3b13b45b-7de0-41e9-bb5e-26a213dc93a4",
        "meta": {
          "profile": [
            "http://hl7.eu/fhir/laboratory/StructureDefinition/Observation-resultslab-eu-lab"
          ]
        },
        "performer": [
          {
            "display": "The Central European Lab"
          }
        ],
        "category": [
          {
            "coding": [
              {
                "system": "http://terminology.hl7.org/CodeSystem/observation-category",
                "code": "laboratory"
              }
            ]
          }
        ],
        "code": {
          "coding": [
            {
              "code": "49765-1",
              "system": "http://loinc.org",
              "display": "Calcium [Mass/volume] in Blood"
            }
          ],
          "text": "Calcium [Mass/volume] in Blood"
        },
        "valueQuantity": {
          "system": "http://unitsofmeasure.org",
          "value": 10,
          "unit": "mg/dL",
          "code": "mg/dL"
        },
        "referenceRange": [
          {
            "low": {
              "value": 8.5,
              "code": "mg/dL",
              "system": "http://unitsofmeasure.org"
            }
          },
          {
            "high": {
              "value": 10.5,
              "code": "mg/dL",
              "system": "http://unitsofmeasure.org"
            }
          }
        ],
        "text": {
          "status": "generated",
          "div": "<div xmlns=\"http://www.w3.org/1999/xhtml\"><table class=\"hl7__eu__lab__report\"><tr><th>Test</th><th>18-Mar-2019</th><th>Reference&#xA0;Range</th><th>Unit</th></tr><tr><td>Calcium [Mass/volume] in Blood</td><td>10.0</td><td>8.5 - 10.5</td><td></td><td>mg/dL</td></tr></table></div>"
        },
        "status": "final",
        "subject": {
          "reference": "urn:uuid:c9fd7102-5153-45e8-b09e-72375bbb6b4f",
          "display": "Marlene Gerlach"
        },
        "effectiveDateTime": "2019-03-18T19:24:33Z",
        "specimen": {
          "reference": "urn:uuid:3b7696ac-def2-4354-b430-9462fb9c2cb0"
        }
      }
    },
    {
      "fullUrl": "urn:uuid:679fad92-8b3a-4666-af15-451abb6fb432",
      "resource": {
        "resourceType": "Observation",
        "id": "679fad92-8b3a-4666-af15-451abb6fb432",
        "meta": {
          "profile": [
            "http://hl7.eu/fhir/laboratory/StructureDefinition/Observation-resultslab-eu-lab"
          ]
        },
        "performer": [
          {
            "display": "The Central European Lab"
          }
        ],
        "category": [
          {
            "coding": [
              {
                "system": "http://terminology.hl7.org/CodeSystem/observation-category",
                "code": "laboratory"
              }
            ]
          }
        ],
        "code": {
          "coding": [
            {
              "code": "2947-0",
              "system": "http://loinc.org",
              "display": "Sodium [Moles/volume] in Blood"
            }
          ],
          "text": "Sodium [Moles/volume] in Blood"
        },
        "valueQuantity": {
          "system": "http://unitsofmeasure.org",
          "value": 139.8,
          "unit": "mmol/L",
          "code": "mmol/L"
        },
        "referenceRange": [
          {
            "low": {
              "value": 135,
              "code": "mmol/L",
              "system": "http://unitsofmeasure.org"
            }
          },
          {
            "high": {
              "value": 145,
              "code": "mmol/L",
              "system": "http://unitsofmeasure.org"
            }
          }
        ],
        "text": {
          "status": "generated",
          "div": "<div xmlns=\"http://www.w3.org/1999/xhtml\"><table class=\"hl7__eu__lab__report\"><tr><th>Test</th><th>18-Mar-2019</th><th>Reference&#xA0;Range</th><th>Unit</th></tr><tr><td>Sodium [Moles/volume] in Blood</td><td>139.8</td><td>135 - 145</td><td></td><td>mmol/L</td></tr></table></div>"
        },
        "status": "final",
        "subject": {
          "reference": "urn:uuid:c9fd7102-5153-45e8-b09e-72375bbb6b4f",
          "display": "Marlene Gerlach"
        },
        "effectiveDateTime": "2019-03-18T19:24:33Z",
        "specimen": {
          "reference": "urn:uuid:3b7696ac-def2-4354-b430-9462fb9c2cb0"
        }
      }
    },
    {
      "fullUrl": "urn:uuid:c1472acf-5f1f-458a-b24d-8fea5f47cdec",
      "resource": {
        "resourceType": "Observation",
        "id": "c1472acf-5f1f-458a-b24d-8fea5f47cdec",
        "meta": {
          "profile": [
            "http://hl7.eu/fhir/laboratory/StructureDefinition/Observation-resultslab-eu-lab"
          ]
        },
        "performer": [
          {
            "display": "The Central European Lab"
          }
        ],
        "category": [
          {
            "coding": [
              {
                "system": "http://terminology.hl7.org/CodeSystem/observation-category",
                "code": "laboratory"
              }
            ]
          }
        ],
        "code": {
          "coding": [
            {
              "code": "6298-4",
              "system": "http://loinc.org",
              "display": "Potassium [Moles/volume] in Blood"
            }
          ],
          "text": "Potassium [Moles/volume] in Blood"
        },
        "valueQuantity": {
          "system": "http://unitsofmeasure.org",
          "value": 4.9,
          "unit": "mmol/L",
          "code": "mmol/L"
        },
        "referenceRange": [
          {
            "low": {
              "value": 3.5,
              "code": "mmol/L",
              "system": "http://unitsofmeasure.org"
            }
          },
          {
            "high": {
              "value": 5.1,
              "code": "mmol/L",
              "system": "http://unitsofmeasure.org"
            }
          }
        ],
        "text": {
          "status": "generated",
          "div": "<div xmlns=\"http://www.w3.org/1999/xhtml\"><table class=\"hl7__eu__lab__report\"><tr><th>Test</th><th>18-Mar-2019</th><th>Reference&#xA0;Range</th><th>Unit</th></tr><tr><td>Potassium [Moles/volume] in Blood</td><td>4.9</td><td>3.5 - 5.1</td><td></td><td>mmol/L</td></tr></table></div>"
        },
        "status": "final",
        "subject": {
          "reference": "urn:uuid:c9fd7102-5153-45e8-b09e-72375bbb6b4f",
          "display": "Marlene Gerlach"
        },
        "effectiveDateTime": "2019-03-18T19:24:33Z",
        "specimen": {
          "reference": "urn:uuid:3b7696ac-def2-4354-b430-9462fb9c2cb0"
        }
      }
    },
    {
      "fullUrl": "urn:uuid:a25cacc2-de6b-40ca-96c2-3961064d3d97",
      "resource": {
        "resourceType": "Observation",
        "id": "a25cacc2-de6b-40ca-96c2-3961064d3d97",
        "meta": {
          "profile": [
            "http://hl7.eu/fhir/laboratory/StructureDefinition/Observation-resultslab-eu-lab"
          ]
        },
        "performer": [
          {
            "display": "The Central European Lab"
          }
        ],
        "category": [
          {
            "coding": [
              {
                "system": "http://terminology.hl7.org/CodeSystem/observation-category",
                "code": "laboratory"
              }
            ]
          }
        ],
        "code": {
          "coding": [
            {
              "code": "2069-3",
              "system": "http://loinc.org",
              "display": "Chloride [Moles/volume] in Blood"
            }
          ],
          "text": "Chloride [Moles/volume] in Blood"
        },
        "valueQuantity": {
          "system": "http://unitsofmeasure.org",
          "value": 104.2,
          "unit": "mmol/L",
          "code": "mmol/L"
        },
        "referenceRange": [
          {
            "low": {
              "value": 98,
              "code": "mmol/L",
              "system": "http://unitsofmeasure.org"
            }
          },
          {
            "high": {
              "value": 108,
              "code": "mmol/L",
              "system": "http://unitsofmeasure.org"
            }
          }
        ],
        "text": {
          "status": "generated",
          "div": "<div xmlns=\"http://www.w3.org/1999/xhtml\"><table class=\"hl7__eu__lab__report\"><tr><th>Test</th><th>18-Mar-2019</th><th>Reference&#xA0;Range</th><th>Unit</th></tr><tr><td>Chloride [Moles/volume] in Blood</td><td>104.2</td><td>98 - 108</td><td></td><td>mmol/L</td></tr></table></div>"
        },
        "status": "final",
        "subject": {
          "reference": "urn:uuid:c9fd7102-5153-45e8-b09e-72375bbb6b4f",
          "display": "Marlene Gerlach"
        },
        "effectiveDateTime": "2019-03-18T19:24:33Z",
        "specimen": {
          "reference": "urn:uuid:3b7696ac-def2-4354-b430-9462fb9c2cb0"
        }
      }
    },
    {
      "fullUrl": "urn:uuid:4482e407-0569-464a-b663-dedfe9455e14",
      "resource": {
        "resourceType": "Observation",
        "id": "4482e407-0569-464a-b663-dedfe9455e14",
        "meta": {
          "profile": [
            "http://hl7.eu/fhir/laboratory/StructureDefinition/Observation-resultslab-eu-lab"
          ]
        },
        "performer": [
          {
            "display": "The Central European Lab"
          }
        ],
        "category": [
          {
            "coding": [
              {
                "system": "http://terminology.hl7.org/CodeSystem/observation-category",
                "code": "laboratory"
              }
            ]
          }
        ],
        "code": {
          "coding": [
            {
              "code": "20565-8",
              "system": "http://loinc.org",
              "display": "Carbon dioxide, total [Moles/volume] in Blood"
            }
          ],
          "text": "Carbon dioxide, total [Moles/volume] in Blood"
        },
        "valueQuantity": {
          "system": "http://unitsofmeasure.org",
          "value": 20,
          "unit": "mmol/L",
          "code": "mmol/L"
        },
        "referenceRange": [
          {
            "low": {
              "value": 22,
              "code": "mmol/L",
              "system": "http://unitsofmeasure.org"
            }
          },
          {
            "high": {
              "value": 29,
              "code": "mmol/L",
              "system": "http://unitsofmeasure.org"
            }
          }
        ],
        "interpretation": [
          {
            "coding": [
              {
                "code": "L",
                "system": "http://terminology.hl7.org/CodeSystem/v3-ObservationInterpretation",
                "display": "Low"
              }
            ]
          }
        ],
        "text": {
          "status": "generated",
          "div": "<div xmlns=\"http://www.w3.org/1999/xhtml\"><table class=\"hl7__eu__lab__report\"><tr><th>Test</th><th>18-Mar-2019</th><th>Reference&#xA0;Range</th><th>Unit</th></tr><tr><td>Carbon dioxide, total [Moles/volume] in Blood</td><td>20.0</td><td>22 - 29</td><td>L</td><td>mmol/L</td></tr></table></div>"
        },
        "status": "final",
        "subject": {
          "reference": "urn:uuid:c9fd7102-5153-45e8-b09e-72375bbb6b4f",
          "display": "Marlene Gerlach"
        },
        "effectiveDateTime": "2019-03-18T19:24:33Z",
        "specimen": {
          "reference": "urn:uuid:3b7696ac-def2-4354-b430-9462fb9c2cb0"
        }
      }
    },
    {
      "fullUrl": "urn:uuid:bab6d7d6-ab11-462a-b96e-14bff95af031",
      "resource": {
        "resourceType": "Observation",
        "id": "bab6d7d6-ab11-462a-b96e-14bff95af031",
        "meta": {
          "profile": [
            "http://hl7.eu/fhir/laboratory/StructureDefinition/Observation-resultslab-eu-lab"
          ]
        },
        "performer": [
          {
            "display": "The Central European Lab"
          }
        ],
        "category": [
          {
            "coding": [
              {
                "system": "http://terminology.hl7.org/CodeSystem/observation-category",
                "code": "laboratory"
              }
            ]
          }
        ],
        "code": {
          "coding": [
            {
              "code": "2885-2",
              "system": "http://loinc.org",
              "display": "Protein [Mass/volume] in Serum or Plasma"
            }
          ],
          "text": "Protein [Mass/volume] in Serum or Plasma"
        },
        "valueQuantity": {
          "system": "http://unitsofmeasure.org",
          "value": 7.8,
          "unit": "g/dL",
          "code": "g/dL"
        },
        "referenceRange": [
          {
            "low": {
              "value": 6,
              "code": "g/dL",
              "system": "http://unitsofmeasure.org"
            }
          },
          {
            "high": {
              "value": 8.2,
              "code": "g/dL",
              "system": "http://unitsofmeasure.org"
            }
          }
        ],
        "text": {
          "status": "generated",
          "div": "<div xmlns=\"http://www.w3.org/1999/xhtml\"><table class=\"hl7__eu__lab__report\"><tr><th>Test</th><th>18-Mar-2019</th><th>Reference&#xA0;Range</th><th>Unit</th></tr><tr><td>Protein [Mass/volume] in Serum or Plasma</td><td>7.8</td><td>6 - 8.2</td><td></td><td>g/dL</td></tr></table></div>"
        },
        "status": "final",
        "subject": {
          "reference": "urn:uuid:c9fd7102-5153-45e8-b09e-72375bbb6b4f",
          "display": "Marlene Gerlach"
        },
        "effectiveDateTime": "2019-03-18T19:24:33Z",
        "specimen": {
          "reference": "urn:uuid:99d63890-0c3e-4bde-b723-d411639030bd"
        }
      }
    },
    {
      "fullUrl": "urn:uuid:11ffcbfd-1ae9-4852-8577-d055db508f1a",
      "resource": {
        "resourceType": "Observation",
        "id": "11ffcbfd-1ae9-4852-8577-d055db508f1a",
        "meta": {
          "profile": [
            "http://hl7.eu/fhir/laboratory/StructureDefinition/Observation-resultslab-eu-lab"
          ]
        },
        "performer": [
          {
            "display": "The Central European Lab"
          }
        ],
        "category": [
          {
            "coding": [
              {
                "system": "http://terminology.hl7.org/CodeSystem/observation-category",
                "code": "laboratory"
              }
            ]
          }
        ],
        "code": {
          "coding": [
            {
              "code": "1751-7",
              "system": "http://loinc.org",
              "display": "Albumin [Mass/volume] in Serum or Plasma"
            }
          ],
          "text": "Albumin [Mass/volume] in Serum or Plasma"
        },
        "valueQuantity": {
          "system": "http://unitsofmeasure.org",
          "value": 5.2,
          "unit": "g/dL",
          "code": "g/dL"
        },
        "referenceRange": [
          {
            "low": {
              "value": 3.5,
              "code": "g/dL",
              "system": "http://unitsofmeasure.org"
            }
          },
          {
            "high": {
              "value": 5,
              "code": "g/dL",
              "system": "http://unitsofmeasure.org"
            }
          }
        ],
        "interpretation": [
          {
            "coding": [
              {
                "code": "H",
                "system": "http://terminology.hl7.org/CodeSystem/v3-ObservationInterpretation",
                "display": "High"
              }
            ]
          }
        ],
        "text": {
          "status": "generated",
          "div": "<div xmlns=\"http://www.w3.org/1999/xhtml\"><table class=\"hl7__eu__lab__report\"><tr><th>Test</th><th>18-Mar-2019</th><th>Reference&#xA0;Range</th><th>Unit</th></tr><tr><td>Albumin [Mass/volume] in Serum or Plasma</td><td>5.2</td><td>3.5 - 5</td><td>H</td><td>g/dL</td></tr></table></div>"
        },
        "status": "final",
        "subject": {
          "reference": "urn:uuid:c9fd7102-5153-45e8-b09e-72375bbb6b4f",
          "display": "Marlene Gerlach"
        },
        "effectiveDateTime": "2019-03-18T19:24:33Z",
        "specimen": {
          "reference": "urn:uuid:99d63890-0c3e-4bde-b723-d411639030bd"
        }
      }
    },
    {
      "fullUrl": "urn:uuid:4babfbda-882a-4add-b15c-4d01ee9a1c38",
      "resource": {
        "resourceType": "Observation",
        "id": "4babfbda-882a-4add-b15c-4d01ee9a1c38",
        "meta": {
          "profile": [
            "http://hl7.eu/fhir/laboratory/StructureDefinition/Observation-resultslab-eu-lab"
          ]
        },
        "performer": [
          {
            "display": "The Central European Lab"
          }
        ],
        "category": [
          {
            "coding": [
              {
                "system": "http://terminology.hl7.org/CodeSystem/observation-category",
                "code": "laboratory"
              }
            ]
          }
        ],
        "code": {
          "coding": [
            {
              "code": "10834-0",
              "system": "http://loinc.org",
              "display": "Globulin [Mass/volume] in Serum by calculation"
            }
          ],
          "text": "Globulin [Mass/volume] in Serum by calculation"
        },
        "valueQuantity": {
          "system": "http://unitsofmeasure.org",
          "value": 3.2,
          "unit": "g/L",
          "code": "g/L"
        },
        "referenceRange": [
          {
            "low": {
              "value": 2,
              "code": "g/L",
              "system": "http://unitsofmeasure.org"
            }
          },
          {
            "high": {
              "value": 4,
              "code": "g/L",
              "system": "http://unitsofmeasure.org"
            }
          }
        ],
        "text": {
          "status": "generated",
          "div": "<div xmlns=\"http://www.w3.org/1999/xhtml\"><table class=\"hl7__eu__lab__report\"><tr><th>Test</th><th>18-Mar-2019</th><th>Reference&#xA0;Range</th><th>Unit</th></tr><tr><td>Globulin [Mass/volume] in Serum by calculation</td><td>3.2</td><td>2 - 4</td><td></td><td>g/L</td></tr></table></div>"
        },
        "status": "final",
        "subject": {
          "reference": "urn:uuid:c9fd7102-5153-45e8-b09e-72375bbb6b4f",
          "display": "Marlene Gerlach"
        },
        "effectiveDateTime": "2019-03-18T19:24:33Z",
        "specimen": {
          "reference": "urn:uuid:c80de810-a0c2-4fdf-ac4c-d649ecaeed45"
        }
      }
    },
    {
      "fullUrl": "urn:uuid:9102a5df-fc37-49c1-8e3f-15a0ce833e54",
      "resource": {
        "resourceType": "Observation",
        "id": "9102a5df-fc37-49c1-8e3f-15a0ce833e54",
        "meta": {
          "profile": [
            "http://hl7.eu/fhir/laboratory/StructureDefinition/Observation-resultslab-eu-lab"
          ]
        },
        "performer": [
          {
            "display": "The Central European Lab"
          }
        ],
        "category": [
          {
            "coding": [
              {
                "system": "http://terminology.hl7.org/CodeSystem/observation-category",
                "code": "laboratory"
              }
            ]
          }
        ],
        "code": {
          "coding": [
            {
              "code": "1975-2",
              "system": "http://loinc.org",
              "display": "Bilirubin.total [Mass/volume] in Serum or Plasma"
            }
          ],
          "text": "Bilirubin.total [Mass/volume] in Serum or Plasma"
        },
        "valueQuantity": {
          "system": "http://unitsofmeasure.org",
          "value": 1.1,
          "unit": "mg/dL",
          "code": "mg/dL"
        },
        "referenceRange": [
          {
            "low": {
              "value": 0.3,
              "code": "mg/dL",
              "system": "http://unitsofmeasure.org"
            }
          },
          {
            "high": {
              "value": 1.2,
              "code": "mg/dL",
              "system": "http://unitsofmeasure.org"
            }
          }
        ],
        "text": {
          "status": "generated",
          "div": "<div xmlns=\"http://www.w3.org/1999/xhtml\"><table class=\"hl7__eu__lab__report\"><tr><th>Test</th><th>18-Mar-2019</th><th>Reference&#xA0;Range</th><th>Unit</th></tr><tr><td>Bilirubin.total [Mass/volume] in Serum or Plasma</td><td>1.1</td><td>0.3 - 1.2</td><td></td><td>mg/dL</td></tr></table></div>"
        },
        "status": "final",
        "subject": {
          "reference": "urn:uuid:c9fd7102-5153-45e8-b09e-72375bbb6b4f",
          "display": "Marlene Gerlach"
        },
        "effectiveDateTime": "2019-03-18T19:24:33Z",
        "specimen": {
          "reference": "urn:uuid:99d63890-0c3e-4bde-b723-d411639030bd"
        }
      }
    },
    {
      "fullUrl": "urn:uuid:6ca7031e-734f-43d8-9db6-0c66e1afadf6",
      "resource": {
        "resourceType": "Observation",
        "id": "6ca7031e-734f-43d8-9db6-0c66e1afadf6",
        "meta": {
          "profile": [
            "http://hl7.eu/fhir/laboratory/StructureDefinition/Observation-resultslab-eu-lab"
          ]
        },
        "performer": [
          {
            "display": "The Central European Lab"
          }
        ],
        "category": [
          {
            "coding": [
              {
                "system": "http://terminology.hl7.org/CodeSystem/observation-category",
                "code": "laboratory"
              }
            ]
          }
        ],
        "code": {
          "coding": [
            {
              "code": "6768-6",
              "system": "http://loinc.org",
              "display": "Alkaline phosphatase [Enzymatic activity/volume] in Serum or Plasma"
            }
          ],
          "text": "Alkaline phosphatase [Enzymatic activity/volume] in Serum or Plasma"
        },
        "valueQuantity": {
          "system": "http://unitsofmeasure.org",
          "value": 65,
          "unit": "U/L",
          "code": "U/L"
        },
        "referenceRange": [
          {
            "low": {
              "value": 35,
              "code": "U/L",
              "system": "http://unitsofmeasure.org"
            }
          },
          {
            "high": {
              "value": 141,
              "code": "U/L",
              "system": "http://unitsofmeasure.org"
            }
          }
        ],
        "text": {
          "status": "generated",
          "div": "<div xmlns=\"http://www.w3.org/1999/xhtml\"><table class=\"hl7__eu__lab__report\"><tr><th>Test</th><th>18-Mar-2019</th><th>Reference&#xA0;Range</th><th>Unit</th></tr><tr><td>Alkaline phosphatase [Enzymatic activity/volume] in Serum or Plasma</td><td>65.0</td><td>35 - 141</td><td></td><td>U/L</td></tr></table></div>"
        },
        "status": "final",
        "subject": {
          "reference": "urn:uuid:c9fd7102-5153-45e8-b09e-72375bbb6b4f",
          "display": "Marlene Gerlach"
        },
        "effectiveDateTime": "2019-03-18T19:24:33Z",
        "specimen": {
          "reference": "urn:uuid:99d63890-0c3e-4bde-b723-d411639030bd"
        }
      }
    },
    {
      "fullUrl": "urn:uuid:91bd92c7-9a76-45a5-a5ff-b79cbaa286cc",
      "resource": {
        "resourceType": "Observation",
        "id": "91bd92c7-9a76-45a5-a5ff-b79cbaa286cc",
        "meta": {
          "profile": [
            "http://hl7.eu/fhir/laboratory/StructureDefinition/Observation-resultslab-eu-lab"
          ]
        },
        "performer": [
          {
            "display": "The Central European Lab"
          }
        ],
        "category": [
          {
            "coding": [
              {
                "system": "http://terminology.hl7.org/CodeSystem/observation-category",
                "code": "laboratory"
              }
            ]
          }
        ],
        "code": {
          "coding": [
            {
              "code": "1742-6",
              "system": "http://loinc.org",
              "display": "Alanine aminotransferase [Enzymatic activity/volume] in Serum or Plasma"
            }
          ],
          "text": "Alanine aminotransferase [Enzymatic activity/volume] in Serum or Plasma"
        },
        "valueQuantity": {
          "system": "http://unitsofmeasure.org",
          "value": 51.1,
          "unit": "U/L",
          "code": "U/L"
        },
        "referenceRange": [
          {
            "low": {
              "value": 7,
              "code": "U/L",
              "system": "http://unitsofmeasure.org"
            }
          },
          {
            "high": {
              "value": 60,
              "code": "U/L",
              "system": "http://unitsofmeasure.org"
            }
          }
        ],
        "text": {
          "status": "generated",
          "div": "<div xmlns=\"http://www.w3.org/1999/xhtml\"><table class=\"hl7__eu__lab__report\"><tr><th>Test</th><th>18-Mar-2019</th><th>Reference&#xA0;Range</th><th>Unit</th></tr><tr><td>Alanine aminotransferase [Enzymatic activity/volume] in Serum or Plasma</td><td>51.1</td><td>7 - 60</td><td></td><td>U/L</td></tr></table></div>"
        },
        "status": "final",
        "subject": {
          "reference": "urn:uuid:c9fd7102-5153-45e8-b09e-72375bbb6b4f",
          "display": "Marlene Gerlach"
        },
        "effectiveDateTime": "2019-03-18T19:24:33Z",
        "specimen": {
          "reference": "urn:uuid:99d63890-0c3e-4bde-b723-d411639030bd"
        }
      }
    },
    {
      "fullUrl": "urn:uuid:b8590046-e3ee-4c36-8970-d998dd8f1b65",
      "resource": {
        "resourceType": "Observation",
        "id": "b8590046-e3ee-4c36-8970-d998dd8f1b65",
        "meta": {
          "profile": [
            "http://hl7.eu/fhir/laboratory/StructureDefinition/Observation-resultslab-eu-lab"
          ]
        },
        "performer": [
          {
            "display": "The Central European Lab"
          }
        ],
        "category": [
          {
            "coding": [
              {
                "system": "http://terminology.hl7.org/CodeSystem/observation-category",
                "code": "laboratory"
              }
            ]
          }
        ],
        "code": {
          "coding": [
            {
              "code": "1920-8",
              "system": "http://loinc.org",
              "display": "Aspartate aminotransferase [Enzymatic activity/volume] in Serum or Plasma"
            }
          ],
          "text": "Aspartate aminotransferase [Enzymatic activity/volume] in Serum or Plasma"
        },
        "valueQuantity": {
          "system": "http://unitsofmeasure.org",
          "value": 16.2,
          "unit": "U/L",
          "code": "U/L"
        },
        "referenceRange": [
          {
            "low": {
              "value": 10,
              "code": "U/L",
              "system": "http://unitsofmeasure.org"
            }
          },
          {
            "high": {
              "value": 40,
              "code": "U/L",
              "system": "http://unitsofmeasure.org"
            }
          }
        ],
        "text": {
          "status": "generated",
          "div": "<div xmlns=\"http://www.w3.org/1999/xhtml\"><table class=\"hl7__eu__lab__report\"><tr><th>Test</th><th>18-Mar-2019</th><th>Reference&#xA0;Range</th><th>Unit</th></tr><tr><td>Aspartate aminotransferase [Enzymatic activity/volume] in Serum or Plasma</td><td>16.2</td><td>10 - 40</td><td></td><td>U/L</td></tr></table></div>"
        },
        "status": "final",
        "subject": {
          "reference": "urn:uuid:c9fd7102-5153-45e8-b09e-72375bbb6b4f",
          "display": "Marlene Gerlach"
        },
        "effectiveDateTime": "2019-03-18T19:24:33Z",
        "specimen": {
          "reference": "urn:uuid:99d63890-0c3e-4bde-b723-d411639030bd"
        }
      }
    },
    {
      "fullUrl": "urn:uuid:72a55d02-ac30-48db-a1c4-72803afcb04f",
      "resource": {
        "resourceType": "Observation",
        "id": "72a55d02-ac30-48db-a1c4-72803afcb04f",
        "meta": {
          "profile": [
            "http://hl7.eu/fhir/laboratory/StructureDefinition/Observation-resultslab-eu-lab"
          ]
        },
        "performer": [
          {
            "display": "The Central European Lab"
          }
        ],
        "category": [
          {
            "coding": [
              {
                "system": "http://terminology.hl7.org/CodeSystem/observation-category",
                "code": "laboratory"
              }
            ]
          }
        ],
        "code": {
          "coding": [
            {
              "code": "2093-3",
              "system": "http://loinc.org",
              "display": "Cholesterol [Mass/volume] in Serum or Plasma"
            }
          ],
          "text": "Cholesterol [Mass/volume] in Serum or Plasma"
        },
        "valueQuantity": {
          "system": "http://unitsofmeasure.org",
          "value": 190.4,
          "unit": "mg/dL",
          "code": "mg/dL"
        },
        "referenceRange": [
          {
            "low": {
              "value": 0,
              "code": "mg/dL",
              "system": "http://unitsofmeasure.org"
            }
          },
          {
            "high": {
              "value": 200,
              "code": "mg/dL",
              "system": "http://unitsofmeasure.org"
            }
          }
        ],
        "text": {
          "status": "generated",
          "div": "<div xmlns=\"http://www.w3.org/1999/xhtml\"><table class=\"hl7__eu__lab__report\"><tr><th>Test</th><th>18-Mar-2019</th><th>Reference&#xA0;Range</th><th>Unit</th></tr><tr><td>Cholesterol [Mass/volume] in Serum or Plasma</td><td>190.4</td><td>0 - 200</td><td></td><td>mg/dL</td></tr></table></div>"
        },
        "status": "final",
        "subject": {
          "reference": "urn:uuid:c9fd7102-5153-45e8-b09e-72375bbb6b4f",
          "display": "Marlene Gerlach"
        },
        "effectiveDateTime": "2019-03-18T19:24:33Z",
        "specimen": {
          "reference": "urn:uuid:99d63890-0c3e-4bde-b723-d411639030bd"
        }
      }
    },
    {
      "fullUrl": "urn:uuid:2e05a5f6-57b0-4b5e-99d0-123169b06957",
      "resource": {
        "resourceType": "Observation",
        "id": "2e05a5f6-57b0-4b5e-99d0-123169b06957",
        "meta": {
          "profile": [
            "http://hl7.eu/fhir/laboratory/StructureDefinition/Observation-resultslab-eu-lab"
          ]
        },
        "performer": [
          {
            "display": "The Central European Lab"
          }
        ],
        "category": [
          {
            "coding": [
              {
                "system": "http://terminology.hl7.org/CodeSystem/observation-category",
                "code": "laboratory"
              }
            ]
          }
        ],
        "code": {
          "coding": [
            {
              "code": "2571-8",
              "system": "http://loinc.org",
              "display": "Triglyceride [Mass/volume] in Serum or Plasma"
            }
          ],
          "text": "Triglyceride [Mass/volume] in Serum or Plasma"
        },
        "valueQuantity": {
          "system": "http://unitsofmeasure.org",
          "value": 157.1,
          "unit": "mg/dL",
          "code": "mg/dL"
        },
        "referenceRange": [
          {
            "low": {
              "value": 0,
              "code": "mg/dL",
              "system": "http://unitsofmeasure.org"
            }
          },
          {
            "high": {
              "value": 199,
              "code": "mg/dL",
              "system": "http://unitsofmeasure.org"
            }
          }
        ],
        "text": {
          "status": "generated",
          "div": "<div xmlns=\"http://www.w3.org/1999/xhtml\"><table class=\"hl7__eu__lab__report\"><tr><th>Test</th><th>18-Mar-2019</th><th>Reference&#xA0;Range</th><th>Unit</th></tr><tr><td>Triglyceride [Mass/volume] in Serum or Plasma</td><td>157.1</td><td>0 - 199</td><td></td><td>mg/dL</td></tr></table></div>"
        },
        "status": "final",
        "subject": {
          "reference": "urn:uuid:c9fd7102-5153-45e8-b09e-72375bbb6b4f",
          "display": "Marlene Gerlach"
        },
        "effectiveDateTime": "2019-03-18T19:24:33Z",
        "specimen": {
          "reference": "urn:uuid:99d63890-0c3e-4bde-b723-d411639030bd"
        }
      }
    },
    {
      "fullUrl": "urn:uuid:a609bac9-4ddd-41d0-ab14-5efacff87d57",
      "resource": {
        "resourceType": "Observation",
        "id": "a609bac9-4ddd-41d0-ab14-5efacff87d57",
        "meta": {
          "profile": [
            "http://hl7.eu/fhir/laboratory/StructureDefinition/Observation-resultslab-eu-lab"
          ]
        },
        "performer": [
          {
            "display": "The Central European Lab"
          }
        ],
        "category": [
          {
            "coding": [
              {
                "system": "http://terminology.hl7.org/CodeSystem/observation-category",
                "code": "laboratory"
              }
            ]
          }
        ],
        "code": {
          "coding": [
            {
              "code": "18262-6",
              "system": "http://loinc.org",
              "display": "Cholesterol in LDL [Mass/volume] in Serum or Plasma by Direct assay"
            }
          ],
          "text": "Cholesterol in LDL [Mass/volume] in Serum or Plasma by Direct assay"
        },
        "valueQuantity": {
          "system": "http://unitsofmeasure.org",
          "value": 125.9,
          "unit": "mg/dL",
          "code": "mg/dL"
        },
        "referenceRange": [
          {
            "low": {
              "value": 0,
              "code": "mg/dL",
              "system": "http://unitsofmeasure.org"
            }
          },
          {
            "high": {
              "value": 130,
              "code": "mg/dL",
              "system": "http://unitsofmeasure.org"
            }
          }
        ],
        "text": {
          "status": "generated",
          "div": "<div xmlns=\"http://www.w3.org/1999/xhtml\"><table class=\"hl7__eu__lab__report\"><tr><th>Test</th><th>18-Mar-2019</th><th>Reference&#xA0;Range</th><th>Unit</th></tr><tr><td>Cholesterol in LDL [Mass/volume] in Serum or Plasma by Direct assay</td><td>125.9</td><td>0 - 130</td><td></td><td>mg/dL</td></tr></table></div>"
        },
        "status": "final",
        "subject": {
          "reference": "urn:uuid:c9fd7102-5153-45e8-b09e-72375bbb6b4f",
          "display": "Marlene Gerlach"
        },
        "effectiveDateTime": "2019-03-18T19:24:33Z",
        "specimen": {
          "reference": "urn:uuid:99d63890-0c3e-4bde-b723-d411639030bd"
        }
      }
    },
    {
      "fullUrl": "urn:uuid:647f7be4-4001-467f-8ddd-717717d9e608",
      "resource": {
        "resourceType": "Observation",
        "id": "647f7be4-4001-467f-8ddd-717717d9e608",
        "meta": {
          "profile": [
            "http://hl7.eu/fhir/laboratory/StructureDefinition/Observation-resultslab-eu-lab"
          ]
        },
        "performer": [
          {
            "display": "The Central European Lab"
          }
        ],
        "category": [
          {
            "coding": [
              {
                "system": "http://terminology.hl7.org/CodeSystem/observation-category",
                "code": "laboratory"
              }
            ]
          }
        ],
        "code": {
          "coding": [
            {
              "code": "2085-9",
              "system": "http://loinc.org",
              "display": "Cholesterol in HDL [Mass/volume] in Serum or Plasma"
            }
          ],
          "text": "Cholesterol in HDL [Mass/volume] in Serum or Plasma"
        },
        "valueQuantity": {
          "system": "http://unitsofmeasure.org",
          "value": 50.1,
          "unit": "mg/dL",
          "code": "mg/dL"
        },
        "referenceRange": [
          {
            "low": {
              "value": 46,
              "code": "mg/dL",
              "system": "http://unitsofmeasure.org"
            }
          },
          {
            "high": {
              "value": 77,
              "code": "mg/dL",
              "system": "http://unitsofmeasure.org"
            }
          }
        ],
        "text": {
          "status": "generated",
          "div": "<div xmlns=\"http://www.w3.org/1999/xhtml\"><table class=\"hl7__eu__lab__report\"><tr><th>Test</th><th>18-Mar-2019</th><th>Reference&#xA0;Range</th><th>Unit</th></tr><tr><td>Cholesterol in HDL [Mass/volume] in Serum or Plasma</td><td>50.1</td><td>46 - 77</td><td></td><td>mg/dL</td></tr></table></div>"
        },
        "status": "final",
        "subject": {
          "reference": "urn:uuid:c9fd7102-5153-45e8-b09e-72375bbb6b4f",
          "display": "Marlene Gerlach"
        },
        "effectiveDateTime": "2019-03-18T19:24:33Z",
        "specimen": {
          "reference": "urn:uuid:99d63890-0c3e-4bde-b723-d411639030bd"
        }
      }
    },
    {
      "fullUrl": "urn:uuid:645b7ffb-5275-4690-af6d-7739d10ff12b",
      "resource": {
        "resourceType": "Device",
        "id": "645b7ffb-5275-4690-af6d-7739d10ff12b",
        "deviceName": [
          {
            "name": "SYNDERAI Synthetic Generator",
            "type": "manufacturer-name"
          }
        ],
        "version": [
          {
            "value": "5.0"
          }
        ],
        "text": {
          "status": "generated",
          "div": "<div xmlns=\"http://www.w3.org/1999/xhtml\">SYNDERAI Synthetic Generator v5.0</div>"
        },
        "status": "active\"",
        "distinctIdentifier": "synderai-generator-50",
        "manufacturer": "SYNDERAI Project"
      }
    },
    {
      "fullUrl": "urn:uuid:b51476d2-e7fe-4fc6-be44-fcbc159bf2ed",
      "resource": {
        "resourceType": "Provenance",
        "id": "b51476d2-e7fe-4fc6-be44-fcbc159bf2ed",
        "target": [
          {
            "reference": "Patient/c9fd7102-5153-45e8-b09e-72375bbb6b4f"
          },
          {
            "reference": "Bundle/945b15a9-6686-4983-a114-8e9911c3f37a"
          },
          {
            "reference": "Composition/0e3efccf-42af-4090-be32-54b423ad0d51"
          },
          {
            "reference": "PractitionerRole/19931cc1-15b5-4aeb-90a1-cab0074c376e"
          },
          {
            "reference": "Practitioner/ec7d0fd9-31e7-4b5b-8367-2b675fb130c0"
          },
          {
            "reference": "PractitionerRole/ff9a301e-3644-436d-861d-337087850ddc"
          },
          {
            "reference": "Organization/c01646fa-d979-4357-ac87-a6c3ed03a844"
          }
        ],
        "activity": {
          "text": "Synthetic Example Data Generation"
        },
        "policy": [
          "https://synderai.net/synderai-synthetic-data-policy"
        ],
        "agent": [
          {
            "type": {
              "text": "author"
            },
            "who": {
              "reference": "Device/645b7ffb-5275-4690-af6d-7739d10ff12b"
            }
          }
        ],
        "reason": [
          {
            "text": "Interoperability Testing and Training (non-clinical use)"
          }
        ],
        "text": {
          "status": "generated",
          "div": "<div xmlns=\"http://www.w3.org/1999/xhtml\">Provenance for SYNDERAI Synthetic Example Data Resource</div>"
        },
        "recorded": "2019-03-18T20:24:33Z"
      }
    },
    {
      "fullUrl": "urn:uuid:19931cc1-15b5-4aeb-90a1-cab0074c376e",
      "resource": {
        "resourceType": "PractitionerRole",
        "id": "19931cc1-15b5-4aeb-90a1-cab0074c376e",
        "meta": {
          "profile": [
            "http://hl7.eu/fhir/base/StructureDefinition/practitionerRole-eu"
          ]
        },
        "text": {
          "status": "generated",
          "div": "<div xmlns=\"http://www.w3.org/1999/xhtml\">Laboratory Role Id: 19931cc1-15b5-4aeb-90a1-cab0074c376e</div>"
        },
        "practitioner": {
          "reference": "urn:uuid:ec7d0fd9-31e7-4b5b-8367-2b675fb130c0"
        }
      }
    },
    {
      "fullUrl": "urn:uuid:ec7d0fd9-31e7-4b5b-8367-2b675fb130c0",
      "resource": {
        "resourceType": "Practitioner",
        "id": "ec7d0fd9-31e7-4b5b-8367-2b675fb130c0",
        "meta": {
          "profile": [
            "http://hl7.eu/fhir/base/StructureDefinition/practitioner-eu"
          ]
        },
        "identifier": [
          {
            "assigner": {
              "display": "HL7 Europe"
            },
            "system": "urn:oid:2.16.840.1.113883.2.51.999",
            "value": "de63458d-e276-4be7-b6a9-a11deeddc8ad"
          }
        ],
        "name": [
          {
            "prefix": [
              "dr"
            ],
            "given": [
              "Ex"
            ],
            "family": "Ample"
          }
        ],
        "address": [
          {
            "line": [
              "Laboratoire Central Européenne",
              "Boulevard du Jardin Botanique 32"
            ],
            "postalCode": "1000",
            "city": "Brussels",
            "country": "Belgium"
          }
        ],
        "text": {
          "status": "generated",
          "div": "<div xmlns=\"http://www.w3.org/1999/xhtml\">Laboratory: Laboratoire Central Européenne, 1000 Brussels, Belgium</div>"
        }
      }
    }
  ],
  "type": "document",
  "timestamp": "2019-03-18T20:24:33Z"
}
