{
  "resourceType": "Bundle",
  "id": "7baffb1b-04cf-4334-8023-01435db5f405",
  "meta": {
    "profile": [
      "http://hl7.eu/fhir/laboratory/StructureDefinition/Bundle-eu-lab"
    ]
  },
  "identifier": {
    "assigner": {
      "display": "HL7 Europe"
    },
    "system": "urn:oid:2.16.840.1.113883.2.51.999",
    "value": "8772492c-6a0e-4855-aafc-05200bce0738"
  },
  "entry": [
    {
      "fullUrl": "urn:uuid:9cc2a78c-3fa7-4750-9872-f58974a9fc85",
      "resource": {
        "resourceType": "Composition",
        "id": "9cc2a78c-3fa7-4750-9872-f58974a9fc85",
        "meta": {
          "profile": [
            "http://hl7.eu/fhir/laboratory/StructureDefinition/Composition-eu-lab"
          ]
        },
        "identifier": {
          "assigner": {
            "display": "HL7 Europe"
          },
          "system": "urn:oid:2.16.840.1.113883.2.51.999",
          "value": "d2c62f0a-19b9-4bef-8415-93d260c1ed0f"
        },
        "author": [
          {
            "reference": "urn:uuid:34db525d-194f-418c-9b87-e6d83fa20b74"
          }
        ],
        "category": [
          {
            "coding": [
              {
                "code": "26436-6",
                "system": "http://loinc.org",
                "display": "Laboratory studies (set)"
              }
            ]
          }
        ],
        "type": {
          "coding": [
            {
              "code": "11502-2",
              "system": "http://loinc.org",
              "display": "Laboratory report"
            }
          ],
          "text": "Laboratory Report"
        },
        "section": [
          {
            "code": {
              "coding": [
                {
                  "code": "26436-6",
                  "system": "http://loinc.org",
                  "display": "Laboratory studies (set)"
                }
              ],
              "text": "Laboratory studies"
            },
            "section": [
              {
                "code": {
                  "coding": [
                    {
                      "code": "$18719-5",
                      "system": "http://loinc.org",
                      "display": "Chemistry studies (set)"
                    }
                  ],
                  "text": "Chemistry"
                },
                "entry": [
                  {
                    "reference": "urn:uuid:f1dc7e43-5895-4332-a4fc-48fd6ab3819d"
                  },
                  {
                    "reference": "urn:uuid:38d30e70-2f0d-4793-a78a-5faace301de5"
                  },
                  {
                    "reference": "urn:uuid:a8e23f95-f253-4be8-b0c8-73dd3b21e34e"
                  },
                  {
                    "reference": "urn:uuid:523b4526-410c-4bd9-8472-4601a0d6b792"
                  }
                ],
                "text": {
                  "status": "generated",
                  "div": "<div xmlns=\"http://www.w3.org/1999/xhtml\"><h3>Chemistry</h3><table class=\"hl7__eu__lab__report\"><thead><tr><th>Test</th><th>17-MAR-2020</th><th>Reference&#xA0;Range</th><th>Unit</th></tr></thead><tbody><tr><td>Cholesterol [Mass/volume] in Serum or Plasma</td><td>163.1</td><td>125 - 200</td><td>mg/dL</td></tr><tr><td>Triglyceride [Mass/volume] in Serum or Plasma</td><td>132.6</td><td>35 - 150</td><td>mg/dL</td></tr><tr><td>Cholesterol in LDL [Mass/volume] in Serum or Plasma by Direct assay</td><td>82.6</td><td>0 - 130</td><td>mg/dL</td></tr><tr><td>Cholesterol in HDL [Mass/volume] in Serum or Plasma</td><td>53.9</td><td>46 - 82</td><td>mg/dL</td></tr></tbody></table></div>"
                },
                "title": "Chemistry"
              }
            ],
            "title": "Laboratory Report"
          },
          {
            "text": {
              "status": "generated",
              "div": "<div xmlns=\"http://www.w3.org/1999/xhtml\"><h3>Annotation</h3><table class=\"hl7__eu__lab__report\"><tr><th>Conclusion and Recommendations based on this report and previous findings known to us</th></tr><tr><td>All lipid parameters (total cholesterol, triglycerides, LDL, and HDL) are within normal limits. No laboratory evidence of dyslipidemia at this time. Recommend continued routine monitoring and maintenance of a healthy lifestyle.</td></tr></table></div>"
            },
            "code": {
              "coding": [
                {
                  "system": "http://loinc.org",
                  "code": "48767-8",
                  "display": "Annotation comment"
                }
              ]
            },
            "title": "Annotation comment"
          }
        ],
        "status": "final",
        "subject": {
          "reference": "urn:uuid:e3c0736b-0b93-4ac0-b1bc-3629eaf73c43",
          "display": "Hortense Gallet"
        },
        "date": "2020-03-17T21:16:45Z",
        "title": "Laboratory Report",
        "confidentiality": "N"
      }
    },
    {
      "fullUrl": "urn:uuid:7aeff5a2-338b-4f21-a343-a17425bdd1ff",
      "resource": {
        "resourceType": "DiagnosticReport",
        "id": "7aeff5a2-338b-4f21-a343-a17425bdd1ff",
        "meta": {
          "profile": [
            "http://hl7.eu/fhir/laboratory/StructureDefinition/DiagnosticReport-eu-lab"
          ]
        },
        "identifier": [
          {
            "assigner": {
              "display": "HL7 Europe"
            },
            "system": "urn:oid:2.16.840.1.113883.2.51.999",
            "value": "3bfdada2-3041-4b0d-92e9-b654eefca03a"
          }
        ],
        "extension": [
          {
            "url": "http://hl7.org/fhir/5.0/StructureDefinition/extension-DiagnosticReport.composition",
            "valueReference": {
              "reference": "urn:uuid:d2c62f0a-19b9-4bef-8415-93d260c1ed0f"
            }
          }
        ],
        "category": [
          {
            "coding": [
              {
                "code": "26436-6",
                "system": "http://loinc.org",
                "display": "Laboratory studies (set)"
              }
            ]
          }
        ],
        "specimen": [
          {
            "reference": "urn:uuid:1b45fa0e-5c0e-475c-b604-94fffae4009d"
          }
        ],
        "result": [
          {
            "reference": "urn:uuid:f1dc7e43-5895-4332-a4fc-48fd6ab3819d"
          },
          {
            "reference": "urn:uuid:38d30e70-2f0d-4793-a78a-5faace301de5"
          },
          {
            "reference": "urn:uuid:a8e23f95-f253-4be8-b0c8-73dd3b21e34e"
          },
          {
            "reference": "urn:uuid:523b4526-410c-4bd9-8472-4601a0d6b792"
          }
        ],
        "status": "registered",
        "code": {
          "coding": [
            {
              "code": "11502-2",
              "system": "http://loinc.org",
              "display": "Laboratory report"
            }
          ]
        },
        "subject": {
          "reference": "urn:uuid:e3c0736b-0b93-4ac0-b1bc-3629eaf73c43",
          "display": "Hortense Gallet"
        }
      }
    },
    {
      "fullUrl": "urn:uuid:e3c0736b-0b93-4ac0-b1bc-3629eaf73c43",
      "resource": {
        "resourceType": "Patient",
        "id": "e3c0736b-0b93-4ac0-b1bc-3629eaf73c43",
        "meta": {
          "security": [
            {
              "system": "http://terminology.hl7.org/CodeSystem/v3-ActReason",
              "code": "HTEST"
            },
            {
              "system": "http://terminology.hl7.org/CodeSystem/v3-ActReason",
              "code": "TRAIN"
            }
          ],
          "tag": [
            {
              "system": "https://synderai.net/fhir/CodeSystem/tags",
              "code": "synthetic",
              "display": "SYNDERAI Synthetic data"
            }
          ],
          "profile": [
            "http://hl7.eu/fhir/base/StructureDefinition/patient-eu-core"
          ]
        },
        "identifier": [
          {
            "type": {
              "coding": [
                {
                  "code": "PT",
                  "system": "http://terminology.hl7.org/CodeSystem/v2-0203"
                }
              ]
            },
            "system": "http://ec.europa.eu/identifier/eci",
            "value": "7727-126450-7"
          },
          {
            "type": {
              "coding": [
                {
                  "code": "MR",
                  "system": "http://terminology.hl7.org/CodeSystem/v2-0203"
                }
              ]
            },
            "system": "http://local.setting.eu/identifier",
            "value": "7f40b956-404d-dd5b-92ca-442ee97c8277"
          }
        ],
        "name": [
          {
            "family": "Gallet"
          },
          {
            "given": [
              "Hortense"
            ]
          },
          {
            "text": "Hortense Gallet"
          }
        ],
        "address": [
          {
            "line": [
              "98, boulevard de Faure"
            ],
            "use": "home",
            "type": "physical",
            "postalCode": "03210",
            "city": "Besson",
            "country": "France"
          }
        ],
        "telecom": [
          {
            "system": "phone",
            "value": "03 26 87 89 04"
          }
        ],
        "extension": [
          {
            "url": "http://hl7.org/fhir/StructureDefinition/patient-nationality",
            "valueCodeableConcept": {
              "coding": [
                {
                  "code": "FR",
                  "system": "http://hl7.org/fhir/ValueSet/country"
                }
              ]
            }
          }
        ],
        "text": {
          "status": "generated",
          "div": "<div xmlns=\"http://www.w3.org/1999/xhtml\"><table class=\"hl7__ips\"><tr><td>Hortense Gallet</td><td>female</td><td>14-Feb-1967</td></tr></table></div>"
        },
        "gender": "female",
        "birthDate": "1967-02-14"
      }
    },
    {
      "fullUrl": "urn:uuid:231e9c79-68ee-439a-9e71-05bf146ae2b6",
      "resource": {
        "resourceType": "ServiceRequest",
        "id": "231e9c79-68ee-439a-9e71-05bf146ae2b6",
        "meta": {
          "profile": [
            "http://hl7.eu/fhir/laboratory/StructureDefinition/ServiceRequest-eu-lab"
          ]
        },
        "identifier": [
          {
            "system": "http://example.org",
            "value": "90278e4e-95ae-4bd1-b340-097a6020b86e"
          }
        ],
        "specimen": [
          {
            "reference": "urn:uuid:1b45fa0e-5c0e-475c-b604-94fffae4009d"
          }
        ],
        "reasonCode": [
          {
            "coding": [
              {
                "code": "431856006",
                "system": "http://snomed.info/sct",
                "display": "Chronic kidney disease stage 2"
              }
            ]
          },
          {
            "coding": [
              {
                "code": "90781000119102",
                "system": "http://snomed.info/sct",
                "display": "Microalbuminuria due to type 2 diabetes mellitus"
              }
            ]
          },
          {
            "coding": [
              {
                "code": "127013003",
                "system": "http://snomed.info/sct",
                "display": "Disorder of kidney due to diabetes mellitus"
              }
            ]
          },
          {
            "coding": [
              {
                "code": "431855005",
                "system": "http://snomed.info/sct",
                "display": "Chronic kidney disease stage 1"
              }
            ]
          },
          {
            "coding": [
              {
                "code": "59621000",
                "system": "http://snomed.info/sct",
                "display": "Essential hypertension"
              }
            ]
          }
        ],
        "status": "active",
        "intent": "order",
        "code": {
          "coding": [
            {
              "code": "108252007",
              "system": "http://snomed.info/sct",
              "display": "Laboratory procedure"
            }
          ]
        },
        "subject": {
          "reference": "urn:uuid:e3c0736b-0b93-4ac0-b1bc-3629eaf73c43",
          "display": "Hortense Gallet"
        },
        "requester": {
          "reference": "urn:uuid:ab00bcc8-cecb-4866-80b4-6269257b0a76"
        }
      }
    },
    {
      "fullUrl": "urn:uuid:ab00bcc8-cecb-4866-80b4-6269257b0a76",
      "resource": {
        "resourceType": "PractitionerRole",
        "id": "ab00bcc8-cecb-4866-80b4-6269257b0a76",
        "meta": {
          "profile": [
            "http://hl7.eu/fhir/base/StructureDefinition/practitionerRole-eu"
          ]
        },
        "text": {
          "status": "generated",
          "div": "<div xmlns=\"http://www.w3.org/1999/xhtml\">Provider Role Id: ab00bcc8-cecb-4866-80b4-6269257b0a76</div>"
        },
        "organization": {
          "reference": "urn:uuid:f3ae4d58-83c1-49bf-a93b-4ba7e34603b3"
        }
      }
    },
    {
      "fullUrl": "urn:uuid:f3ae4d58-83c1-49bf-a93b-4ba7e34603b3",
      "resource": {
        "resourceType": "Organization",
        "id": "f3ae4d58-83c1-49bf-a93b-4ba7e34603b3",
        "meta": {
          "profile": [
            "http://hl7.eu/fhir/base/StructureDefinition/organization-eu"
          ]
        },
        "identifier": [
          {
            "assigner": {
              "display": "HL7 Europe"
            },
            "system": "urn:oid:2.16.840.1.113883.2.51.999",
            "value": "0e920933-02f6-486e-b391-2ed330c5fe17"
          }
        ],
        "address": [
          {
            "line": [
              "Rue Jean Jaurès 140"
            ],
            "city": "Vichy",
            "postalCode": "03200",
            "country": "France"
          }
        ],
        "text": {
          "status": "generated",
          "div": "<div xmlns=\"http://www.w3.org/1999/xhtml\">Provider Organization: Centre La Chrysalide</div>"
        },
        "name": "Centre La Chrysalide"
      }
    },
    {
      "fullUrl": "urn:uuid:1b45fa0e-5c0e-475c-b604-94fffae4009d",
      "resource": {
        "resourceType": "Specimen",
        "id": "1b45fa0e-5c0e-475c-b604-94fffae4009d",
        "meta": {
          "profile": [
            "http://hl7.eu/fhir/laboratory/StructureDefinition/Specimen-eu-lab"
          ]
        },
        "collection": {
          "collectedDateTime": "2020-03-17"
        },
        "text": {
          "status": "generated",
          "div": "<div xmlns=\"http://www.w3.org/1999/xhtml\"><table class=\"hl7__eu__lab__report\"><tr><th>Specimen</th><th>Collection Date</th></tr><tr><td>Acellular blood (serum or plasma) specimen</td><td><span class=\"nb\">17-Mar-2020</span></td></tr></table></div>"
        },
        "type": {
          "coding": [
            {
              "code": "122592007",
              "system": "http://snomed.info/sct",
              "display": "Acellular blood (serum or plasma) specimen"
            }
          ]
        }
      }
    },
    {
      "fullUrl": "urn:uuid:f1dc7e43-5895-4332-a4fc-48fd6ab3819d",
      "resource": {
        "resourceType": "Observation",
        "id": "f1dc7e43-5895-4332-a4fc-48fd6ab3819d",
        "meta": {
          "profile": [
            "http://hl7.eu/fhir/laboratory/StructureDefinition/Observation-resultslab-eu-lab"
          ]
        },
        "performer": [
          {
            "display": "The Central European Lab"
          }
        ],
        "category": [
          {
            "coding": [
              {
                "system": "http://terminology.hl7.org/CodeSystem/observation-category",
                "code": "laboratory"
              }
            ]
          }
        ],
        "code": {
          "coding": [
            {
              "code": "2093-3",
              "system": "http://loinc.org",
              "display": "Cholesterol [Mass/volume] in Serum or Plasma"
            }
          ],
          "text": "Cholesterol [Mass/volume] in Serum or Plasma"
        },
        "valueQuantity": {
          "system": "http://unitsofmeasure.org",
          "value": 163.1,
          "unit": "mg/dL",
          "code": "mg/dL"
        },
        "referenceRange": [
          {
            "low": {
              "value": 125,
              "code": "mg/dL",
              "system": "http://unitsofmeasure.org"
            }
          },
          {
            "high": {
              "value": 200,
              "code": "mg/dL",
              "system": "http://unitsofmeasure.org"
            }
          }
        ],
        "text": {
          "status": "generated",
          "div": "<div xmlns=\"http://www.w3.org/1999/xhtml\"><table class=\"hl7__eu__lab__report\"><tr><th>Test</th><th>17-Mar-2020</th><th>Reference&#xA0;Range</th><th>Unit</th></tr><tr><td>Cholesterol [Mass/volume] in Serum or Plasma</td><td>163.1</td><td>125 - 200</td><td></td><td>mg/dL</td></tr></table></div>"
        },
        "status": "final",
        "subject": {
          "reference": "urn:uuid:e3c0736b-0b93-4ac0-b1bc-3629eaf73c43",
          "display": "Hortense Gallet"
        },
        "effectiveDateTime": "2020-03-17T20:16:45Z",
        "specimen": {
          "reference": "urn:uuid:1b45fa0e-5c0e-475c-b604-94fffae4009d"
        }
      }
    },
    {
      "fullUrl": "urn:uuid:38d30e70-2f0d-4793-a78a-5faace301de5",
      "resource": {
        "resourceType": "Observation",
        "id": "38d30e70-2f0d-4793-a78a-5faace301de5",
        "meta": {
          "profile": [
            "http://hl7.eu/fhir/laboratory/StructureDefinition/Observation-resultslab-eu-lab"
          ]
        },
        "performer": [
          {
            "display": "The Central European Lab"
          }
        ],
        "category": [
          {
            "coding": [
              {
                "system": "http://terminology.hl7.org/CodeSystem/observation-category",
                "code": "laboratory"
              }
            ]
          }
        ],
        "code": {
          "coding": [
            {
              "code": "2571-8",
              "system": "http://loinc.org",
              "display": "Triglyceride [Mass/volume] in Serum or Plasma"
            }
          ],
          "text": "Triglyceride [Mass/volume] in Serum or Plasma"
        },
        "valueQuantity": {
          "system": "http://unitsofmeasure.org",
          "value": 132.6,
          "unit": "mg/dL",
          "code": "mg/dL"
        },
        "referenceRange": [
          {
            "low": {
              "value": 35,
              "code": "mg/dL",
              "system": "http://unitsofmeasure.org"
            }
          },
          {
            "high": {
              "value": 150,
              "code": "mg/dL",
              "system": "http://unitsofmeasure.org"
            }
          }
        ],
        "text": {
          "status": "generated",
          "div": "<div xmlns=\"http://www.w3.org/1999/xhtml\"><table class=\"hl7__eu__lab__report\"><tr><th>Test</th><th>17-Mar-2020</th><th>Reference&#xA0;Range</th><th>Unit</th></tr><tr><td>Triglyceride [Mass/volume] in Serum or Plasma</td><td>132.6</td><td>35 - 150</td><td></td><td>mg/dL</td></tr></table></div>"
        },
        "status": "final",
        "subject": {
          "reference": "urn:uuid:e3c0736b-0b93-4ac0-b1bc-3629eaf73c43",
          "display": "Hortense Gallet"
        },
        "effectiveDateTime": "2020-03-17T20:16:45Z",
        "specimen": {
          "reference": "urn:uuid:1b45fa0e-5c0e-475c-b604-94fffae4009d"
        }
      }
    },
    {
      "fullUrl": "urn:uuid:a8e23f95-f253-4be8-b0c8-73dd3b21e34e",
      "resource": {
        "resourceType": "Observation",
        "id": "a8e23f95-f253-4be8-b0c8-73dd3b21e34e",
        "meta": {
          "profile": [
            "http://hl7.eu/fhir/laboratory/StructureDefinition/Observation-resultslab-eu-lab"
          ]
        },
        "performer": [
          {
            "display": "The Central European Lab"
          }
        ],
        "category": [
          {
            "coding": [
              {
                "system": "http://terminology.hl7.org/CodeSystem/observation-category",
                "code": "laboratory"
              }
            ]
          }
        ],
        "code": {
          "coding": [
            {
              "code": "18262-6",
              "system": "http://loinc.org",
              "display": "Cholesterol in LDL [Mass/volume] in Serum or Plasma by Direct assay"
            }
          ],
          "text": "Cholesterol in LDL [Mass/volume] in Serum or Plasma by Direct assay"
        },
        "valueQuantity": {
          "system": "http://unitsofmeasure.org",
          "value": 82.6,
          "unit": "mg/dL",
          "code": "mg/dL"
        },
        "referenceRange": [
          {
            "low": {
              "value": 0,
              "code": "mg/dL",
              "system": "http://unitsofmeasure.org"
            }
          },
          {
            "high": {
              "value": 130,
              "code": "mg/dL",
              "system": "http://unitsofmeasure.org"
            }
          }
        ],
        "text": {
          "status": "generated",
          "div": "<div xmlns=\"http://www.w3.org/1999/xhtml\"><table class=\"hl7__eu__lab__report\"><tr><th>Test</th><th>17-Mar-2020</th><th>Reference&#xA0;Range</th><th>Unit</th></tr><tr><td>Cholesterol in LDL [Mass/volume] in Serum or Plasma by Direct assay</td><td>82.6</td><td>0 - 130</td><td></td><td>mg/dL</td></tr></table></div>"
        },
        "status": "final",
        "subject": {
          "reference": "urn:uuid:e3c0736b-0b93-4ac0-b1bc-3629eaf73c43",
          "display": "Hortense Gallet"
        },
        "effectiveDateTime": "2020-03-17T20:16:45Z",
        "specimen": {
          "reference": "urn:uuid:1b45fa0e-5c0e-475c-b604-94fffae4009d"
        }
      }
    },
    {
      "fullUrl": "urn:uuid:523b4526-410c-4bd9-8472-4601a0d6b792",
      "resource": {
        "resourceType": "Observation",
        "id": "523b4526-410c-4bd9-8472-4601a0d6b792",
        "meta": {
          "profile": [
            "http://hl7.eu/fhir/laboratory/StructureDefinition/Observation-resultslab-eu-lab"
          ]
        },
        "performer": [
          {
            "display": "The Central European Lab"
          }
        ],
        "category": [
          {
            "coding": [
              {
                "system": "http://terminology.hl7.org/CodeSystem/observation-category",
                "code": "laboratory"
              }
            ]
          }
        ],
        "code": {
          "coding": [
            {
              "code": "2085-9",
              "system": "http://loinc.org",
              "display": "Cholesterol in HDL [Mass/volume] in Serum or Plasma"
            }
          ],
          "text": "Cholesterol in HDL [Mass/volume] in Serum or Plasma"
        },
        "valueQuantity": {
          "system": "http://unitsofmeasure.org",
          "value": 53.9,
          "unit": "mg/dL",
          "code": "mg/dL"
        },
        "referenceRange": [
          {
            "low": {
              "value": 46,
              "code": "mg/dL",
              "system": "http://unitsofmeasure.org"
            }
          },
          {
            "high": {
              "value": 82,
              "code": "mg/dL",
              "system": "http://unitsofmeasure.org"
            }
          }
        ],
        "text": {
          "status": "generated",
          "div": "<div xmlns=\"http://www.w3.org/1999/xhtml\"><table class=\"hl7__eu__lab__report\"><tr><th>Test</th><th>17-Mar-2020</th><th>Reference&#xA0;Range</th><th>Unit</th></tr><tr><td>Cholesterol in HDL [Mass/volume] in Serum or Plasma</td><td>53.9</td><td>46 - 82</td><td></td><td>mg/dL</td></tr></table></div>"
        },
        "status": "final",
        "subject": {
          "reference": "urn:uuid:e3c0736b-0b93-4ac0-b1bc-3629eaf73c43",
          "display": "Hortense Gallet"
        },
        "effectiveDateTime": "2020-03-17T20:16:45Z",
        "specimen": {
          "reference": "urn:uuid:1b45fa0e-5c0e-475c-b604-94fffae4009d"
        }
      }
    },
    {
      "fullUrl": "urn:uuid:af5a34a7-6649-4172-8dd5-9ca51a2beb4e",
      "resource": {
        "resourceType": "Device",
        "id": "af5a34a7-6649-4172-8dd5-9ca51a2beb4e",
        "deviceName": [
          {
            "name": "SYNDERAI Synthetic Generator",
            "type": "manufacturer-name"
          }
        ],
        "version": [
          {
            "value": "5.0"
          }
        ],
        "text": {
          "status": "generated",
          "div": "<div xmlns=\"http://www.w3.org/1999/xhtml\">SYNDERAI Synthetic Generator v5.0</div>"
        },
        "status": "active\"",
        "distinctIdentifier": "synderai-generator-50",
        "manufacturer": "SYNDERAI Project"
      }
    },
    {
      "fullUrl": "urn:uuid:9b2cc90a-02e6-45d4-aba3-c5a58b3fa63e",
      "resource": {
        "resourceType": "Provenance",
        "id": "9b2cc90a-02e6-45d4-aba3-c5a58b3fa63e",
        "target": [
          {
            "reference": "Patient/e3c0736b-0b93-4ac0-b1bc-3629eaf73c43"
          },
          {
            "reference": "Bundle/7baffb1b-04cf-4334-8023-01435db5f405"
          },
          {
            "reference": "Composition/9cc2a78c-3fa7-4750-9872-f58974a9fc85"
          },
          {
            "reference": "PractitionerRole/34db525d-194f-418c-9b87-e6d83fa20b74"
          },
          {
            "reference": "Practitioner/ab4c6189-f620-457a-aa1c-0baa2dd1f4bf"
          },
          {
            "reference": "PractitionerRole/ab00bcc8-cecb-4866-80b4-6269257b0a76"
          },
          {
            "reference": "Organization/f3ae4d58-83c1-49bf-a93b-4ba7e34603b3"
          }
        ],
        "activity": {
          "text": "Synthetic Example Data Generation"
        },
        "policy": [
          "https://synderai.net/synderai-synthetic-data-policy"
        ],
        "agent": [
          {
            "type": {
              "text": "author"
            },
            "who": {
              "reference": "Device/af5a34a7-6649-4172-8dd5-9ca51a2beb4e"
            }
          }
        ],
        "reason": [
          {
            "text": "Interoperability Testing and Training (non-clinical use)"
          }
        ],
        "text": {
          "status": "generated",
          "div": "<div xmlns=\"http://www.w3.org/1999/xhtml\">Provenance for SYNDERAI Synthetic Example Data Resource</div>"
        },
        "recorded": "2020-03-17T21:16:45Z"
      }
    },
    {
      "fullUrl": "urn:uuid:34db525d-194f-418c-9b87-e6d83fa20b74",
      "resource": {
        "resourceType": "PractitionerRole",
        "id": "34db525d-194f-418c-9b87-e6d83fa20b74",
        "meta": {
          "profile": [
            "http://hl7.eu/fhir/base/StructureDefinition/practitionerRole-eu"
          ]
        },
        "text": {
          "status": "generated",
          "div": "<div xmlns=\"http://www.w3.org/1999/xhtml\">Laboratory Role Id: 34db525d-194f-418c-9b87-e6d83fa20b74</div>"
        },
        "practitioner": {
          "reference": "urn:uuid:ab4c6189-f620-457a-aa1c-0baa2dd1f4bf"
        }
      }
    },
    {
      "fullUrl": "urn:uuid:ab4c6189-f620-457a-aa1c-0baa2dd1f4bf",
      "resource": {
        "resourceType": "Practitioner",
        "id": "ab4c6189-f620-457a-aa1c-0baa2dd1f4bf",
        "meta": {
          "profile": [
            "http://hl7.eu/fhir/base/StructureDefinition/practitioner-eu"
          ]
        },
        "identifier": [
          {
            "assigner": {
              "display": "HL7 Europe"
            },
            "system": "urn:oid:2.16.840.1.113883.2.51.999",
            "value": "7426aec6-42af-4a35-80a1-016291be0f6c"
          }
        ],
        "name": [
          {
            "prefix": [
              "dr"
            ],
            "given": [
              "Ex"
            ],
            "family": "Ample"
          }
        ],
        "address": [
          {
            "line": [
              "Laboratoire Central Européenne",
              "Boulevard du Jardin Botanique 32"
            ],
            "postalCode": "1000",
            "city": "Brussels",
            "country": "Belgium"
          }
        ],
        "text": {
          "status": "generated",
          "div": "<div xmlns=\"http://www.w3.org/1999/xhtml\">Laboratory: Laboratoire Central Européenne, 1000 Brussels, Belgium</div>"
        }
      }
    }
  ],
  "type": "document",
  "timestamp": "2020-03-17T21:16:45Z"
}
