{
  "resourceType": "Bundle",
  "id": "598d8cd0-d14b-4551-a33f-4272ff439c79",
  "meta": {
    "profile": [
      "http://hl7.eu/fhir/laboratory/StructureDefinition/Bundle-eu-lab"
    ]
  },
  "identifier": {
    "assigner": {
      "display": "HL7 Europe"
    },
    "system": "urn:oid:2.16.840.1.113883.2.51.999",
    "value": "387b78cd-41e1-4bba-9907-0cc47d3034ae"
  },
  "entry": [
    {
      "fullUrl": "urn:uuid:036d9b61-8e7f-445c-93e1-2753c88212ac",
      "resource": {
        "resourceType": "Composition",
        "id": "036d9b61-8e7f-445c-93e1-2753c88212ac",
        "meta": {
          "profile": [
            "http://hl7.eu/fhir/laboratory/StructureDefinition/Composition-eu-lab"
          ]
        },
        "identifier": {
          "assigner": {
            "display": "HL7 Europe"
          },
          "system": "urn:oid:2.16.840.1.113883.2.51.999",
          "value": "a2df5344-2360-46c7-ba58-07e8b0e566b2"
        },
        "author": [
          {
            "reference": "urn:uuid:63ad5a6e-85a1-4d44-b0b7-abbdc200edc9"
          }
        ],
        "category": [
          {
            "coding": [
              {
                "code": "26436-6",
                "system": "http://loinc.org",
                "display": "Laboratory studies (set)"
              }
            ]
          }
        ],
        "type": {
          "coding": [
            {
              "code": "11502-2",
              "system": "http://loinc.org",
              "display": "Laboratory report"
            }
          ],
          "text": "Laboratory Report"
        },
        "section": [
          {
            "code": {
              "coding": [
                {
                  "code": "26436-6",
                  "system": "http://loinc.org",
                  "display": "Laboratory studies (set)"
                }
              ],
              "text": "Laboratory studies"
            },
            "section": [
              {
                "code": {
                  "coding": [
                    {
                      "code": "$18719-5",
                      "system": "http://loinc.org",
                      "display": "Chemistry studies (set)"
                    }
                  ],
                  "text": "Chemistry"
                },
                "entry": [
                  {
                    "reference": "urn:uuid:19fcdc5e-4eb4-4395-ae5f-b1f7a2df9e0c"
                  },
                  {
                    "reference": "urn:uuid:3f156a13-d947-4db0-91b1-05d350047659"
                  },
                  {
                    "reference": "urn:uuid:af0c3cd7-0313-45c8-8d53-224e0155b3ef"
                  },
                  {
                    "reference": "urn:uuid:fe0ef568-32fe-4ee1-a2a8-f629b7e3e827"
                  },
                  {
                    "reference": "urn:uuid:765e10bc-ce3a-40c2-b916-a776d2181574"
                  },
                  {
                    "reference": "urn:uuid:c6ba2daa-ce18-4693-b1e1-6d07a617244a"
                  },
                  {
                    "reference": "urn:uuid:c4555543-2920-4438-90ac-841746588dd3"
                  },
                  {
                    "reference": "urn:uuid:3e64a82c-b5b8-4fa1-9dfd-171d6f31ca15"
                  },
                  {
                    "reference": "urn:uuid:cd959453-d740-4b4d-8e1c-088ef2dee644"
                  },
                  {
                    "reference": "urn:uuid:d625c67b-59ae-4039-9fb0-1535eea410c0"
                  },
                  {
                    "reference": "urn:uuid:e75c6179-3253-40ac-be55-c16b2737c9e0"
                  },
                  {
                    "reference": "urn:uuid:5ade5632-54d6-4935-a183-6469df781e57"
                  },
                  {
                    "reference": "urn:uuid:761545d3-4e7e-489d-8953-d62ad8c76ac5"
                  },
                  {
                    "reference": "urn:uuid:6842e2f9-f1bf-4bb3-938f-cc2ba38f5fc0"
                  },
                  {
                    "reference": "urn:uuid:96862c29-759b-4b64-b6d5-6a75c554fb82"
                  },
                  {
                    "reference": "urn:uuid:73b35d93-8a4f-493c-809d-3886a8cdf9ce"
                  },
                  {
                    "reference": "urn:uuid:cd6c76b2-9d9d-449f-8459-0a55390063c4"
                  },
                  {
                    "reference": "urn:uuid:93c87d96-f599-4d95-9593-94bee076434c"
                  }
                ],
                "text": {
                  "status": "generated",
                  "div": "<div xmlns=\"http://www.w3.org/1999/xhtml\"><h3>Chemistry</h3><table class=\"hl7__eu__lab__report\"><thead><tr><th>Test</th><th>25-MAR-2024</th><th>Reference&#xA0;Range</th><th>Unit</th></tr></thead><tbody><tr><td>Glucose [Mass/volume] in Serum or Plasma</td><td>78.7</td><td>70 - 99</td><td>mg/dL</td></tr><tr><td>Urea nitrogen [Mass/volume] in Serum or Plasma</td><td>10.3</td><td>7 - 50</td><td>mg/dL</td></tr><tr><td>Creatinine [Mass/volume] in Serum or Plasma</td><td><strong>2.1 H</strong></td><td>0.6 - 1.1</td><td>mg/dL</td></tr><tr><td>Calcium [Mass/volume] in Serum or Plasma</td><td>10.0</td><td>8.6 - 10.4</td><td>mg/dL</td></tr><tr><td>Sodium [Moles/volume] in Serum or Plasma</td><td>141.6</td><td>135 - 145</td><td>mmol/L</td></tr><tr><td>Potassium [Moles/volume] in Serum or Plasma</td><td>4.9</td><td>3.5 - 5.1</td><td>mmol/L</td></tr><tr><td>Chloride [Moles/volume] in Serum or Plasma</td><td>103.6</td><td>98 - 108</td><td>mmol/L</td></tr><tr><td>Carbon dioxide, total [Moles/volume] in Serum or Plasma</td><td>22.2</td><td>22 - 32</td><td>mmol/L</td></tr><tr><td>Ketones [Presence] in Urine by Test strip</td><td>Urine ketone test = ++</td><td></td><td></td></tr><tr><td>Hemoglobin A1c/Hemoglobin.total in Blood</td><td>4.0</td><td>4 - 6.4</td><td>%</td></tr><tr><td>Glucose [Mass/volume] in Blood</td><td>78.7</td><td>70 - 100</td><td>mg/dL</td></tr><tr><td>Urea nitrogen [Mass/volume] in Blood</td><td>10.3</td><td>7 - 43</td><td>mg/dL</td></tr><tr><td>Creatinine [Mass/volume] in Blood</td><td><strong>2.8 H</strong></td><td>0.6 - 1.1</td><td>mg/dL</td></tr><tr><td>Calcium [Mass/volume] in Blood</td><td>10.0</td><td>8.5 - 10.5</td><td>mg/dL</td></tr><tr><td>Sodium [Moles/volume] in Blood</td><td>141.6</td><td>135 - 145</td><td>mmol/L</td></tr><tr><td>Potassium [Moles/volume] in Blood</td><td>4.9</td><td>3.5 - 5.1</td><td>mmol/L</td></tr><tr><td>Chloride [Moles/volume] in Blood</td><td>103.6</td><td>98 - 108</td><td>mmol/L</td></tr><tr><td>Carbon dioxide, total [Moles/volume] in Blood</td><td>22.2</td><td>22 - 29</td><td>mmol/L</td></tr></tbody></table></div>"
                },
                "title": "Chemistry"
              },
              {
                "code": {
                  "coding": [
                    {
                      "code": "$18729-4",
                      "system": "http://loinc.org",
                      "display": "Urinalysis studies (set)"
                    }
                  ],
                  "text": "Urinalysis"
                },
                "entry": [
                  {
                    "reference": "urn:uuid:02d6ff9a-bb6b-4994-8c71-eb36d93c5919"
                  },
                  {
                    "reference": "urn:uuid:f0b266fe-3911-43c9-927e-7b38b7d6497c"
                  },
                  {
                    "reference": "urn:uuid:1f98aa4e-eb13-4dfb-879f-593bb10cb8a0"
                  },
                  {
                    "reference": "urn:uuid:31212897-0d3d-481f-a290-a19dbffe8b2f"
                  },
                  {
                    "reference": "urn:uuid:0f08e6c5-28fd-46e7-ba17-a2806db5e036"
                  },
                  {
                    "reference": "urn:uuid:2b77b9d1-804b-4f8e-85b2-f76cc16cf313"
                  },
                  {
                    "reference": "urn:uuid:598f988e-bbcd-49cd-a114-435d64e92804"
                  },
                  {
                    "reference": "urn:uuid:4734bb12-85cf-403d-9b5c-c43d645e61cb"
                  },
                  {
                    "reference": "urn:uuid:8b1bf648-7a7f-43dd-af69-a8ac36ca0191"
                  },
                  {
                    "reference": "urn:uuid:121dbaf4-511b-4022-9d04-d996689e1a9f"
                  },
                  {
                    "reference": "urn:uuid:e399b24b-d1c9-40f5-a959-42b5757cc745"
                  },
                  {
                    "reference": "urn:uuid:f5766363-8417-440b-919d-e36269ee29fa"
                  }
                ],
                "text": {
                  "status": "generated",
                  "div": "<div xmlns=\"http://www.w3.org/1999/xhtml\"><h3>Urinalysis</h3><table class=\"hl7__eu__lab__report\"><thead><tr><th>Test</th><th>25-MAR-2024</th><th>Reference&#xA0;Range</th><th>Unit</th></tr></thead><tbody><tr><td>Glucose [Mass/volume] in Urine by Test strip</td><td><strong>2.4 H</strong></td><td>0.8 - 0</td><td>mg/dL</td></tr><tr><td>Glucose [Presence] in Urine by Test strip</td><td>++</td><td></td><td></td></tr><tr><td>Bilirubin.total [Mass/volume] in Urine by Test strip</td><td>0.3</td><td>0 - 1</td><td>mg/dL</td></tr><tr><td>Bilirubin.total [Presence] in Urine by Test strip</td><td>Finding of bilirubin in urine</td><td></td><td></td></tr><tr><td>Ketones [Mass/volume] in Urine by Test strip</td><td>1.3</td><td>0 - 4</td><td>mg/dL</td></tr><tr><td>Specific gravity of Urine by Test strip</td><td><strong>1.0 L</strong></td><td>1.005 - 1.03</td><td>{nominal}</td></tr><tr><td>pH of Urine by Test strip</td><td>6.7</td><td>4.6 - 7</td><td>pH</td></tr><tr><td>Protein [Mass/volume] in Urine by Test strip</td><td><strong>346.1 H</strong></td><td>0 - 14</td><td>mg/dL</td></tr><tr><td>Protein [Presence] in Urine by Test strip</td><td>Urine protein test = ++</td><td></td><td></td></tr><tr><td>Nitrite [Presence] in Urine by Test strip</td><td>Urine nitrite negative</td><td></td><td></td></tr><tr><td>Hemoglobin [Presence] in Urine by Test strip</td><td>Urine blood test = negative</td><td></td><td></td></tr><tr><td>Leukocyte esterase [Presence] in Urine by Test strip</td><td>Urine leukocyte test negative</td><td></td><td></td></tr></tbody></table></div>"
                },
                "title": "Urinalysis"
              },
              {
                "code": {
                  "coding": [
                    {
                      "code": "$LP7846-1",
                      "system": "http://loinc.org",
                      "display": "Specimen information"
                    }
                  ],
                  "text": "Specimen information"
                },
                "entry": [
                  {
                    "reference": "urn:uuid:9b028dc8-ea46-463d-acee-d03d02a3dc9e"
                  },
                  {
                    "reference": "urn:uuid:475b9d62-d4d7-4ece-80cc-b78bb54e9dad"
                  },
                  {
                    "reference": "urn:uuid:8373c04f-04f1-4d83-b079-22d6e644ff8f"
                  },
                  {
                    "reference": "urn:uuid:b2b7cf5e-564f-4b3e-a400-61fbfa2e20e3"
                  }
                ],
                "text": {
                  "status": "generated",
                  "div": "<div xmlns=\"http://www.w3.org/1999/xhtml\"><h3>Specimen information</h3><table class=\"hl7__eu__lab__report\"><thead><tr><th>Test</th><th>25-MAR-2024</th><th>Specimen</th><th></th></tr></thead><tbody><tr><td>Appearance of Urine</td><td>Cloudy urine</td><td>Urine</td><td></td></tr><tr><td>Odor of Urine</td><td>Urine smell ammoniacal</td><td>Urine</td><td></td></tr><tr><td>Clarity of Urine</td><td>Translucent</td><td>Urine</td><td></td></tr><tr><td>Color of Urine</td><td>Brown color</td><td>Urine</td><td></td></tr></tbody></table></div>"
                },
                "title": "Specimen information"
              }
            ],
            "title": "Laboratory Report"
          },
          {
            "text": {
              "status": "generated",
              "div": "<div xmlns=\"http://www.w3.org/1999/xhtml\"><h3>Annotation</h3><table class=\"hl7__eu__lab__report\"><tr><th>Conclusion and Recommendations based on this report and previous findings known to us</th></tr><tr><td>The patient shows significantly elevated creatinine in both serum and blood, indicating impaired renal function. Urinalysis reveals marked proteinuria, glucosuria, ketonuria, low specific gravity, and abnormal urine appearance (cloudy, brown, ammoniacal), suggesting possible nephrotic syndrome or advanced diabetic nephropathy, though HbA1c and blood glucose are normal. No evidence of urinary tract infection. Recommend urgent nephrology evaluation for further assessment and management.</td></tr></table></div>"
            },
            "code": {
              "coding": [
                {
                  "system": "http://loinc.org",
                  "code": "48767-8",
                  "display": "Annotation comment"
                }
              ]
            },
            "title": "Annotation comment"
          }
        ],
        "status": "final",
        "subject": {
          "reference": "urn:uuid:15608973-d1ab-46f5-8b4c-b4da3319c91e",
          "display": "Meaghan Neary"
        },
        "date": "2024-03-25T23:11:04Z",
        "title": "Laboratory Report",
        "confidentiality": "N"
      }
    },
    {
      "fullUrl": "urn:uuid:0a88e2ad-be74-4e16-bf3c-a64597a625ed",
      "resource": {
        "resourceType": "DiagnosticReport",
        "id": "0a88e2ad-be74-4e16-bf3c-a64597a625ed",
        "meta": {
          "profile": [
            "http://hl7.eu/fhir/laboratory/StructureDefinition/DiagnosticReport-eu-lab"
          ]
        },
        "identifier": [
          {
            "assigner": {
              "display": "HL7 Europe"
            },
            "system": "urn:oid:2.16.840.1.113883.2.51.999",
            "value": "ae8e2bee-cd50-4919-a068-3ca709513931"
          }
        ],
        "extension": [
          {
            "url": "http://hl7.org/fhir/5.0/StructureDefinition/extension-DiagnosticReport.composition",
            "valueReference": {
              "reference": "urn:uuid:a2df5344-2360-46c7-ba58-07e8b0e566b2"
            }
          }
        ],
        "category": [
          {
            "coding": [
              {
                "code": "26436-6",
                "system": "http://loinc.org",
                "display": "Laboratory studies (set)"
              }
            ]
          }
        ],
        "specimen": [
          {
            "reference": "urn:uuid:7d919e75-25fa-4df3-9379-5bec3753c8d9"
          },
          {
            "reference": "urn:uuid:d1e75ab6-b9d9-40c8-9b1f-fdde3df58c7c"
          },
          {
            "reference": "urn:uuid:3412e80d-2b03-4f42-b2f1-e1cd33225979"
          }
        ],
        "result": [
          {
            "reference": "urn:uuid:19fcdc5e-4eb4-4395-ae5f-b1f7a2df9e0c"
          },
          {
            "reference": "urn:uuid:3f156a13-d947-4db0-91b1-05d350047659"
          },
          {
            "reference": "urn:uuid:af0c3cd7-0313-45c8-8d53-224e0155b3ef"
          },
          {
            "reference": "urn:uuid:fe0ef568-32fe-4ee1-a2a8-f629b7e3e827"
          },
          {
            "reference": "urn:uuid:765e10bc-ce3a-40c2-b916-a776d2181574"
          },
          {
            "reference": "urn:uuid:c6ba2daa-ce18-4693-b1e1-6d07a617244a"
          },
          {
            "reference": "urn:uuid:c4555543-2920-4438-90ac-841746588dd3"
          },
          {
            "reference": "urn:uuid:3e64a82c-b5b8-4fa1-9dfd-171d6f31ca15"
          },
          {
            "reference": "urn:uuid:9b028dc8-ea46-463d-acee-d03d02a3dc9e"
          },
          {
            "reference": "urn:uuid:475b9d62-d4d7-4ece-80cc-b78bb54e9dad"
          },
          {
            "reference": "urn:uuid:8373c04f-04f1-4d83-b079-22d6e644ff8f"
          },
          {
            "reference": "urn:uuid:b2b7cf5e-564f-4b3e-a400-61fbfa2e20e3"
          },
          {
            "reference": "urn:uuid:02d6ff9a-bb6b-4994-8c71-eb36d93c5919"
          },
          {
            "reference": "urn:uuid:f0b266fe-3911-43c9-927e-7b38b7d6497c"
          },
          {
            "reference": "urn:uuid:1f98aa4e-eb13-4dfb-879f-593bb10cb8a0"
          },
          {
            "reference": "urn:uuid:31212897-0d3d-481f-a290-a19dbffe8b2f"
          },
          {
            "reference": "urn:uuid:0f08e6c5-28fd-46e7-ba17-a2806db5e036"
          },
          {
            "reference": "urn:uuid:cd959453-d740-4b4d-8e1c-088ef2dee644"
          },
          {
            "reference": "urn:uuid:2b77b9d1-804b-4f8e-85b2-f76cc16cf313"
          },
          {
            "reference": "urn:uuid:598f988e-bbcd-49cd-a114-435d64e92804"
          },
          {
            "reference": "urn:uuid:4734bb12-85cf-403d-9b5c-c43d645e61cb"
          },
          {
            "reference": "urn:uuid:8b1bf648-7a7f-43dd-af69-a8ac36ca0191"
          },
          {
            "reference": "urn:uuid:121dbaf4-511b-4022-9d04-d996689e1a9f"
          },
          {
            "reference": "urn:uuid:e399b24b-d1c9-40f5-a959-42b5757cc745"
          },
          {
            "reference": "urn:uuid:f5766363-8417-440b-919d-e36269ee29fa"
          },
          {
            "reference": "urn:uuid:d625c67b-59ae-4039-9fb0-1535eea410c0"
          },
          {
            "reference": "urn:uuid:e75c6179-3253-40ac-be55-c16b2737c9e0"
          },
          {
            "reference": "urn:uuid:5ade5632-54d6-4935-a183-6469df781e57"
          },
          {
            "reference": "urn:uuid:761545d3-4e7e-489d-8953-d62ad8c76ac5"
          },
          {
            "reference": "urn:uuid:6842e2f9-f1bf-4bb3-938f-cc2ba38f5fc0"
          },
          {
            "reference": "urn:uuid:96862c29-759b-4b64-b6d5-6a75c554fb82"
          },
          {
            "reference": "urn:uuid:73b35d93-8a4f-493c-809d-3886a8cdf9ce"
          },
          {
            "reference": "urn:uuid:cd6c76b2-9d9d-449f-8459-0a55390063c4"
          },
          {
            "reference": "urn:uuid:93c87d96-f599-4d95-9593-94bee076434c"
          }
        ],
        "status": "registered",
        "code": {
          "coding": [
            {
              "code": "11502-2",
              "system": "http://loinc.org",
              "display": "Laboratory report"
            }
          ]
        },
        "subject": {
          "reference": "urn:uuid:15608973-d1ab-46f5-8b4c-b4da3319c91e",
          "display": "Meaghan Neary"
        }
      }
    },
    {
      "fullUrl": "urn:uuid:15608973-d1ab-46f5-8b4c-b4da3319c91e",
      "resource": {
        "resourceType": "Patient",
        "id": "15608973-d1ab-46f5-8b4c-b4da3319c91e",
        "meta": {
          "security": [
            {
              "system": "http://terminology.hl7.org/CodeSystem/v3-ActReason",
              "code": "HTEST"
            },
            {
              "system": "http://terminology.hl7.org/CodeSystem/v3-ActReason",
              "code": "TRAIN"
            }
          ],
          "tag": [
            {
              "system": "https://synderai.net/fhir/CodeSystem/tags",
              "code": "synthetic",
              "display": "SYNDERAI Synthetic data"
            }
          ],
          "profile": [
            "http://hl7.eu/fhir/base/StructureDefinition/patient-eu-core"
          ]
        },
        "identifier": [
          {
            "type": {
              "coding": [
                {
                  "code": "PT",
                  "system": "http://terminology.hl7.org/CodeSystem/v2-0203"
                }
              ]
            },
            "system": "http://ec.europa.eu/identifier/eci",
            "value": "1586-567257-8"
          },
          {
            "type": {
              "coding": [
                {
                  "code": "MR",
                  "system": "http://terminology.hl7.org/CodeSystem/v2-0203"
                }
              ]
            },
            "system": "http://local.setting.eu/identifier",
            "value": "443e6379-f231-b364-3ccb-644740a1aa2a"
          }
        ],
        "name": [
          {
            "family": "Neary"
          },
          {
            "given": [
              "Meaghan"
            ]
          },
          {
            "text": "Meaghan Neary"
          }
        ],
        "address": [
          {
            "line": [
              "64 Linskey Street"
            ],
            "use": "home",
            "type": "physical",
            "postalCode": "D02",
            "city": "Dublin",
            "country": "Ireland"
          }
        ],
        "telecom": [
          {
            "system": "phone",
            "value": "001-967-573-0911x465"
          }
        ],
        "extension": [
          {
            "url": "http://hl7.org/fhir/StructureDefinition/patient-nationality",
            "valueCodeableConcept": {
              "coding": [
                {
                  "code": "IE",
                  "system": "http://hl7.org/fhir/ValueSet/country"
                }
              ]
            }
          }
        ],
        "text": {
          "status": "generated",
          "div": "<div xmlns=\"http://www.w3.org/1999/xhtml\"><table class=\"hl7__ips\"><tr><td>Meaghan Neary</td><td>female</td><td>19-Dec-1960</td></tr></table></div>"
        },
        "gender": "female",
        "birthDate": "1960-12-19"
      }
    },
    {
      "fullUrl": "urn:uuid:468cf5fc-4662-4cde-8c0d-dd4577a69dec",
      "resource": {
        "resourceType": "ServiceRequest",
        "id": "468cf5fc-4662-4cde-8c0d-dd4577a69dec",
        "meta": {
          "profile": [
            "http://hl7.eu/fhir/laboratory/StructureDefinition/ServiceRequest-eu-lab"
          ]
        },
        "identifier": [
          {
            "system": "http://example.org",
            "value": "d6cfd924-5080-4708-a5fa-ef28aa7dd41c"
          }
        ],
        "specimen": [
          {
            "reference": "urn:uuid:7d919e75-25fa-4df3-9379-5bec3753c8d9"
          },
          {
            "reference": "urn:uuid:d1e75ab6-b9d9-40c8-9b1f-fdde3df58c7c"
          },
          {
            "reference": "urn:uuid:3412e80d-2b03-4f42-b2f1-e1cd33225979"
          }
        ],
        "reasonCode": [
          {
            "coding": [
              {
                "code": "55822004",
                "system": "http://snomed.info/sct",
                "display": "Hyperlipidemia"
              }
            ]
          },
          {
            "coding": [
              {
                "code": "433144002",
                "system": "http://snomed.info/sct",
                "display": "Chronic kidney disease stage 3"
              }
            ]
          },
          {
            "coding": [
              {
                "code": "157141000119108",
                "system": "http://snomed.info/sct",
                "display": "Proteinuria due to type 2 diabetes mellitus"
              }
            ]
          },
          {
            "coding": [
              {
                "code": "431856006",
                "system": "http://snomed.info/sct",
                "display": "Chronic kidney disease stage 2"
              }
            ]
          },
          {
            "coding": [
              {
                "code": "90781000119102",
                "system": "http://snomed.info/sct",
                "display": "Microalbuminuria due to type 2 diabetes mellitus"
              }
            ]
          },
          {
            "coding": [
              {
                "code": "127013003",
                "system": "http://snomed.info/sct",
                "display": "Disorder of kidney due to diabetes mellitus"
              }
            ]
          },
          {
            "coding": [
              {
                "code": "431855005",
                "system": "http://snomed.info/sct",
                "display": "Chronic kidney disease stage 1"
              }
            ]
          },
          {
            "coding": [
              {
                "code": "237602007",
                "system": "http://snomed.info/sct",
                "display": "Metabolic syndrome X"
              }
            ]
          },
          {
            "coding": [
              {
                "code": "271737000",
                "system": "http://snomed.info/sct",
                "display": "Anemia"
              }
            ]
          },
          {
            "coding": [
              {
                "code": "15777000",
                "system": "http://snomed.info/sct",
                "display": "Prediabetes"
              }
            ]
          },
          {
            "coding": [
              {
                "code": "59621000",
                "system": "http://snomed.info/sct",
                "display": "Essential hypertension"
              }
            ]
          }
        ],
        "status": "active",
        "intent": "order",
        "code": {
          "coding": [
            {
              "code": "108252007",
              "system": "http://snomed.info/sct",
              "display": "Laboratory procedure"
            }
          ]
        },
        "subject": {
          "reference": "urn:uuid:15608973-d1ab-46f5-8b4c-b4da3319c91e",
          "display": "Meaghan Neary"
        },
        "requester": {
          "reference": "urn:uuid:9f90283a-7b20-47b6-bb8d-f4c47ed1fda3"
        }
      }
    },
    {
      "fullUrl": "urn:uuid:9f90283a-7b20-47b6-bb8d-f4c47ed1fda3",
      "resource": {
        "resourceType": "PractitionerRole",
        "id": "9f90283a-7b20-47b6-bb8d-f4c47ed1fda3",
        "meta": {
          "profile": [
            "http://hl7.eu/fhir/base/StructureDefinition/practitionerRole-eu"
          ]
        },
        "text": {
          "status": "generated",
          "div": "<div xmlns=\"http://www.w3.org/1999/xhtml\">Provider Role Id: 9f90283a-7b20-47b6-bb8d-f4c47ed1fda3</div>"
        },
        "organization": {
          "reference": "urn:uuid:3c8620ef-f466-4f37-aecf-4844f3cada9a"
        }
      }
    },
    {
      "fullUrl": "urn:uuid:3c8620ef-f466-4f37-aecf-4844f3cada9a",
      "resource": {
        "resourceType": "Organization",
        "id": "3c8620ef-f466-4f37-aecf-4844f3cada9a",
        "meta": {
          "profile": [
            "http://hl7.eu/fhir/base/StructureDefinition/organization-eu"
          ]
        },
        "identifier": [
          {
            "assigner": {
              "display": "HL7 Europe"
            },
            "system": "urn:oid:2.16.840.1.113883.2.51.999",
            "value": "0d56c0f9-b938-46ae-9e85-f1895e98b705"
          }
        ],
        "address": [
          {
            "line": [
              "Parnell Square West nan"
            ],
            "city": "Dublin",
            "postalCode": "D01",
            "country": "Ireland"
          }
        ],
        "text": {
          "status": "generated",
          "div": "<div xmlns=\"http://www.w3.org/1999/xhtml\">Provider Organization: Rotunda Hospital</div>"
        },
        "name": "Rotunda Hospital"
      }
    },
    {
      "fullUrl": "urn:uuid:7d919e75-25fa-4df3-9379-5bec3753c8d9",
      "resource": {
        "resourceType": "Specimen",
        "id": "7d919e75-25fa-4df3-9379-5bec3753c8d9",
        "meta": {
          "profile": [
            "http://hl7.eu/fhir/laboratory/StructureDefinition/Specimen-eu-lab"
          ]
        },
        "collection": {
          "collectedDateTime": "2024-03-25"
        },
        "text": {
          "status": "generated",
          "div": "<div xmlns=\"http://www.w3.org/1999/xhtml\"><table class=\"hl7__eu__lab__report\"><tr><th>Specimen</th><th>Collection Date</th></tr><tr><td>Acellular blood (serum or plasma) specimen</td><td><span class=\"nb\">25-Mar-2024</span></td></tr></table></div>"
        },
        "type": {
          "coding": [
            {
              "code": "122592007",
              "system": "http://snomed.info/sct",
              "display": "Acellular blood (serum or plasma) specimen"
            }
          ]
        }
      }
    },
    {
      "fullUrl": "urn:uuid:d1e75ab6-b9d9-40c8-9b1f-fdde3df58c7c",
      "resource": {
        "resourceType": "Specimen",
        "id": "d1e75ab6-b9d9-40c8-9b1f-fdde3df58c7c",
        "meta": {
          "profile": [
            "http://hl7.eu/fhir/laboratory/StructureDefinition/Specimen-eu-lab"
          ]
        },
        "collection": {
          "collectedDateTime": "2024-03-25"
        },
        "text": {
          "status": "generated",
          "div": "<div xmlns=\"http://www.w3.org/1999/xhtml\"><table class=\"hl7__eu__lab__report\"><tr><th>Specimen</th><th>Collection Date</th></tr><tr><td>Urine specimen</td><td><span class=\"nb\">25-Mar-2024</span></td></tr></table></div>"
        },
        "type": {
          "coding": [
            {
              "code": "122575003",
              "system": "http://snomed.info/sct",
              "display": "Urine specimen"
            }
          ]
        }
      }
    },
    {
      "fullUrl": "urn:uuid:3412e80d-2b03-4f42-b2f1-e1cd33225979",
      "resource": {
        "resourceType": "Specimen",
        "id": "3412e80d-2b03-4f42-b2f1-e1cd33225979",
        "meta": {
          "profile": [
            "http://hl7.eu/fhir/laboratory/StructureDefinition/Specimen-eu-lab"
          ]
        },
        "collection": {
          "collectedDateTime": "2024-03-25"
        },
        "text": {
          "status": "generated",
          "div": "<div xmlns=\"http://www.w3.org/1999/xhtml\"><table class=\"hl7__eu__lab__report\"><tr><th>Specimen</th><th>Collection Date</th></tr><tr><td>Whole blood specimen (specimen)</td><td><span class=\"nb\">25-Mar-2024</span></td></tr></table></div>"
        },
        "type": {
          "coding": [
            {
              "code": "258580003",
              "system": "http://snomed.info/sct",
              "display": "Whole blood specimen (specimen)"
            }
          ]
        }
      }
    },
    {
      "fullUrl": "urn:uuid:19fcdc5e-4eb4-4395-ae5f-b1f7a2df9e0c",
      "resource": {
        "resourceType": "Observation",
        "id": "19fcdc5e-4eb4-4395-ae5f-b1f7a2df9e0c",
        "meta": {
          "profile": [
            "http://hl7.eu/fhir/laboratory/StructureDefinition/Observation-resultslab-eu-lab"
          ]
        },
        "performer": [
          {
            "display": "The Central European Lab"
          }
        ],
        "category": [
          {
            "coding": [
              {
                "system": "http://terminology.hl7.org/CodeSystem/observation-category",
                "code": "laboratory"
              }
            ]
          }
        ],
        "code": {
          "coding": [
            {
              "code": "2345-7",
              "system": "http://loinc.org",
              "display": "Glucose [Mass/volume] in Serum or Plasma"
            }
          ],
          "text": "Glucose [Mass/volume] in Serum or Plasma"
        },
        "valueQuantity": {
          "system": "http://unitsofmeasure.org",
          "value": 78.7,
          "unit": "mg/dL",
          "code": "mg/dL"
        },
        "referenceRange": [
          {
            "low": {
              "value": 70,
              "code": "mg/dL",
              "system": "http://unitsofmeasure.org"
            }
          },
          {
            "high": {
              "value": 99,
              "code": "mg/dL",
              "system": "http://unitsofmeasure.org"
            }
          }
        ],
        "text": {
          "status": "generated",
          "div": "<div xmlns=\"http://www.w3.org/1999/xhtml\"><table class=\"hl7__eu__lab__report\"><tr><th>Test</th><th>25-Mar-2024</th><th>Reference&#xA0;Range</th><th>Unit</th></tr><tr><td>Glucose [Mass/volume] in Serum or Plasma</td><td>78.7</td><td>70 - 99</td><td></td><td>mg/dL</td></tr></table></div>"
        },
        "status": "final",
        "subject": {
          "reference": "urn:uuid:15608973-d1ab-46f5-8b4c-b4da3319c91e",
          "display": "Meaghan Neary"
        },
        "effectiveDateTime": "2024-03-25T22:11:04Z",
        "specimen": {
          "reference": "urn:uuid:7d919e75-25fa-4df3-9379-5bec3753c8d9"
        }
      }
    },
    {
      "fullUrl": "urn:uuid:3f156a13-d947-4db0-91b1-05d350047659",
      "resource": {
        "resourceType": "Observation",
        "id": "3f156a13-d947-4db0-91b1-05d350047659",
        "meta": {
          "profile": [
            "http://hl7.eu/fhir/laboratory/StructureDefinition/Observation-resultslab-eu-lab"
          ]
        },
        "performer": [
          {
            "display": "The Central European Lab"
          }
        ],
        "category": [
          {
            "coding": [
              {
                "system": "http://terminology.hl7.org/CodeSystem/observation-category",
                "code": "laboratory"
              }
            ]
          }
        ],
        "code": {
          "coding": [
            {
              "code": "3094-0",
              "system": "http://loinc.org",
              "display": "Urea nitrogen [Mass/volume] in Serum or Plasma"
            }
          ],
          "text": "Urea nitrogen [Mass/volume] in Serum or Plasma"
        },
        "valueQuantity": {
          "system": "http://unitsofmeasure.org",
          "value": 10.3,
          "unit": "mg/dL",
          "code": "mg/dL"
        },
        "referenceRange": [
          {
            "low": {
              "value": 7,
              "code": "mg/dL",
              "system": "http://unitsofmeasure.org"
            }
          },
          {
            "high": {
              "value": 50,
              "code": "mg/dL",
              "system": "http://unitsofmeasure.org"
            }
          }
        ],
        "text": {
          "status": "generated",
          "div": "<div xmlns=\"http://www.w3.org/1999/xhtml\"><table class=\"hl7__eu__lab__report\"><tr><th>Test</th><th>25-Mar-2024</th><th>Reference&#xA0;Range</th><th>Unit</th></tr><tr><td>Urea nitrogen [Mass/volume] in Serum or Plasma</td><td>10.3</td><td>7 - 50</td><td></td><td>mg/dL</td></tr></table></div>"
        },
        "status": "final",
        "subject": {
          "reference": "urn:uuid:15608973-d1ab-46f5-8b4c-b4da3319c91e",
          "display": "Meaghan Neary"
        },
        "effectiveDateTime": "2024-03-25T22:11:04Z",
        "specimen": {
          "reference": "urn:uuid:7d919e75-25fa-4df3-9379-5bec3753c8d9"
        }
      }
    },
    {
      "fullUrl": "urn:uuid:af0c3cd7-0313-45c8-8d53-224e0155b3ef",
      "resource": {
        "resourceType": "Observation",
        "id": "af0c3cd7-0313-45c8-8d53-224e0155b3ef",
        "meta": {
          "profile": [
            "http://hl7.eu/fhir/laboratory/StructureDefinition/Observation-resultslab-eu-lab"
          ]
        },
        "performer": [
          {
            "display": "The Central European Lab"
          }
        ],
        "category": [
          {
            "coding": [
              {
                "system": "http://terminology.hl7.org/CodeSystem/observation-category",
                "code": "laboratory"
              }
            ]
          }
        ],
        "code": {
          "coding": [
            {
              "code": "2160-0",
              "system": "http://loinc.org",
              "display": "Creatinine [Mass/volume] in Serum or Plasma"
            }
          ],
          "text": "Creatinine [Mass/volume] in Serum or Plasma"
        },
        "valueQuantity": {
          "system": "http://unitsofmeasure.org",
          "value": 2.1,
          "unit": "mg/dL",
          "code": "mg/dL"
        },
        "referenceRange": [
          {
            "low": {
              "value": 0.6,
              "code": "mg/dL",
              "system": "http://unitsofmeasure.org"
            }
          },
          {
            "high": {
              "value": 1.1,
              "code": "mg/dL",
              "system": "http://unitsofmeasure.org"
            }
          }
        ],
        "interpretation": [
          {
            "coding": [
              {
                "code": "H",
                "system": "http://terminology.hl7.org/CodeSystem/v3-ObservationInterpretation",
                "display": "High"
              }
            ]
          }
        ],
        "text": {
          "status": "generated",
          "div": "<div xmlns=\"http://www.w3.org/1999/xhtml\"><table class=\"hl7__eu__lab__report\"><tr><th>Test</th><th>25-Mar-2024</th><th>Reference&#xA0;Range</th><th>Unit</th></tr><tr><td>Creatinine [Mass/volume] in Serum or Plasma</td><td>2.1</td><td>0.6 - 1.1</td><td>H</td><td>mg/dL</td></tr></table></div>"
        },
        "status": "final",
        "subject": {
          "reference": "urn:uuid:15608973-d1ab-46f5-8b4c-b4da3319c91e",
          "display": "Meaghan Neary"
        },
        "effectiveDateTime": "2024-03-25T22:11:04Z",
        "specimen": {
          "reference": "urn:uuid:7d919e75-25fa-4df3-9379-5bec3753c8d9"
        }
      }
    },
    {
      "fullUrl": "urn:uuid:fe0ef568-32fe-4ee1-a2a8-f629b7e3e827",
      "resource": {
        "resourceType": "Observation",
        "id": "fe0ef568-32fe-4ee1-a2a8-f629b7e3e827",
        "meta": {
          "profile": [
            "http://hl7.eu/fhir/laboratory/StructureDefinition/Observation-resultslab-eu-lab"
          ]
        },
        "performer": [
          {
            "display": "The Central European Lab"
          }
        ],
        "category": [
          {
            "coding": [
              {
                "system": "http://terminology.hl7.org/CodeSystem/observation-category",
                "code": "laboratory"
              }
            ]
          }
        ],
        "code": {
          "coding": [
            {
              "code": "17861-6",
              "system": "http://loinc.org",
              "display": "Calcium [Mass/volume] in Serum or Plasma"
            }
          ],
          "text": "Calcium [Mass/volume] in Serum or Plasma"
        },
        "valueQuantity": {
          "system": "http://unitsofmeasure.org",
          "value": 10,
          "unit": "mg/dL",
          "code": "mg/dL"
        },
        "referenceRange": [
          {
            "low": {
              "value": 8.6,
              "code": "mg/dL",
              "system": "http://unitsofmeasure.org"
            }
          },
          {
            "high": {
              "value": 10.4,
              "code": "mg/dL",
              "system": "http://unitsofmeasure.org"
            }
          }
        ],
        "text": {
          "status": "generated",
          "div": "<div xmlns=\"http://www.w3.org/1999/xhtml\"><table class=\"hl7__eu__lab__report\"><tr><th>Test</th><th>25-Mar-2024</th><th>Reference&#xA0;Range</th><th>Unit</th></tr><tr><td>Calcium [Mass/volume] in Serum or Plasma</td><td>10.0</td><td>8.6 - 10.4</td><td></td><td>mg/dL</td></tr></table></div>"
        },
        "status": "final",
        "subject": {
          "reference": "urn:uuid:15608973-d1ab-46f5-8b4c-b4da3319c91e",
          "display": "Meaghan Neary"
        },
        "effectiveDateTime": "2024-03-25T22:11:04Z",
        "specimen": {
          "reference": "urn:uuid:7d919e75-25fa-4df3-9379-5bec3753c8d9"
        }
      }
    },
    {
      "fullUrl": "urn:uuid:765e10bc-ce3a-40c2-b916-a776d2181574",
      "resource": {
        "resourceType": "Observation",
        "id": "765e10bc-ce3a-40c2-b916-a776d2181574",
        "meta": {
          "profile": [
            "http://hl7.eu/fhir/laboratory/StructureDefinition/Observation-resultslab-eu-lab"
          ]
        },
        "performer": [
          {
            "display": "The Central European Lab"
          }
        ],
        "category": [
          {
            "coding": [
              {
                "system": "http://terminology.hl7.org/CodeSystem/observation-category",
                "code": "laboratory"
              }
            ]
          }
        ],
        "code": {
          "coding": [
            {
              "code": "2951-2",
              "system": "http://loinc.org",
              "display": "Sodium [Moles/volume] in Serum or Plasma"
            }
          ],
          "text": "Sodium [Moles/volume] in Serum or Plasma"
        },
        "valueQuantity": {
          "system": "http://unitsofmeasure.org",
          "value": 141.6,
          "unit": "mmol/L",
          "code": "mmol/L"
        },
        "referenceRange": [
          {
            "low": {
              "value": 135,
              "code": "mmol/L",
              "system": "http://unitsofmeasure.org"
            }
          },
          {
            "high": {
              "value": 145,
              "code": "mmol/L",
              "system": "http://unitsofmeasure.org"
            }
          }
        ],
        "text": {
          "status": "generated",
          "div": "<div xmlns=\"http://www.w3.org/1999/xhtml\"><table class=\"hl7__eu__lab__report\"><tr><th>Test</th><th>25-Mar-2024</th><th>Reference&#xA0;Range</th><th>Unit</th></tr><tr><td>Sodium [Moles/volume] in Serum or Plasma</td><td>141.6</td><td>135 - 145</td><td></td><td>mmol/L</td></tr></table></div>"
        },
        "status": "final",
        "subject": {
          "reference": "urn:uuid:15608973-d1ab-46f5-8b4c-b4da3319c91e",
          "display": "Meaghan Neary"
        },
        "effectiveDateTime": "2024-03-25T22:11:04Z",
        "specimen": {
          "reference": "urn:uuid:7d919e75-25fa-4df3-9379-5bec3753c8d9"
        }
      }
    },
    {
      "fullUrl": "urn:uuid:c6ba2daa-ce18-4693-b1e1-6d07a617244a",
      "resource": {
        "resourceType": "Observation",
        "id": "c6ba2daa-ce18-4693-b1e1-6d07a617244a",
        "meta": {
          "profile": [
            "http://hl7.eu/fhir/laboratory/StructureDefinition/Observation-resultslab-eu-lab"
          ]
        },
        "performer": [
          {
            "display": "The Central European Lab"
          }
        ],
        "category": [
          {
            "coding": [
              {
                "system": "http://terminology.hl7.org/CodeSystem/observation-category",
                "code": "laboratory"
              }
            ]
          }
        ],
        "code": {
          "coding": [
            {
              "code": "2823-3",
              "system": "http://loinc.org",
              "display": "Potassium [Moles/volume] in Serum or Plasma"
            }
          ],
          "text": "Potassium [Moles/volume] in Serum or Plasma"
        },
        "valueQuantity": {
          "system": "http://unitsofmeasure.org",
          "value": 4.9,
          "unit": "mmol/L",
          "code": "mmol/L"
        },
        "referenceRange": [
          {
            "low": {
              "value": 3.5,
              "code": "mmol/L",
              "system": "http://unitsofmeasure.org"
            }
          },
          {
            "high": {
              "value": 5.1,
              "code": "mmol/L",
              "system": "http://unitsofmeasure.org"
            }
          }
        ],
        "text": {
          "status": "generated",
          "div": "<div xmlns=\"http://www.w3.org/1999/xhtml\"><table class=\"hl7__eu__lab__report\"><tr><th>Test</th><th>25-Mar-2024</th><th>Reference&#xA0;Range</th><th>Unit</th></tr><tr><td>Potassium [Moles/volume] in Serum or Plasma</td><td>4.9</td><td>3.5 - 5.1</td><td></td><td>mmol/L</td></tr></table></div>"
        },
        "status": "final",
        "subject": {
          "reference": "urn:uuid:15608973-d1ab-46f5-8b4c-b4da3319c91e",
          "display": "Meaghan Neary"
        },
        "effectiveDateTime": "2024-03-25T22:11:04Z",
        "specimen": {
          "reference": "urn:uuid:7d919e75-25fa-4df3-9379-5bec3753c8d9"
        }
      }
    },
    {
      "fullUrl": "urn:uuid:c4555543-2920-4438-90ac-841746588dd3",
      "resource": {
        "resourceType": "Observation",
        "id": "c4555543-2920-4438-90ac-841746588dd3",
        "meta": {
          "profile": [
            "http://hl7.eu/fhir/laboratory/StructureDefinition/Observation-resultslab-eu-lab"
          ]
        },
        "performer": [
          {
            "display": "The Central European Lab"
          }
        ],
        "category": [
          {
            "coding": [
              {
                "system": "http://terminology.hl7.org/CodeSystem/observation-category",
                "code": "laboratory"
              }
            ]
          }
        ],
        "code": {
          "coding": [
            {
              "code": "2075-0",
              "system": "http://loinc.org",
              "display": "Chloride [Moles/volume] in Serum or Plasma"
            }
          ],
          "text": "Chloride [Moles/volume] in Serum or Plasma"
        },
        "valueQuantity": {
          "system": "http://unitsofmeasure.org",
          "value": 103.6,
          "unit": "mmol/L",
          "code": "mmol/L"
        },
        "referenceRange": [
          {
            "low": {
              "value": 98,
              "code": "mmol/L",
              "system": "http://unitsofmeasure.org"
            }
          },
          {
            "high": {
              "value": 108,
              "code": "mmol/L",
              "system": "http://unitsofmeasure.org"
            }
          }
        ],
        "text": {
          "status": "generated",
          "div": "<div xmlns=\"http://www.w3.org/1999/xhtml\"><table class=\"hl7__eu__lab__report\"><tr><th>Test</th><th>25-Mar-2024</th><th>Reference&#xA0;Range</th><th>Unit</th></tr><tr><td>Chloride [Moles/volume] in Serum or Plasma</td><td>103.6</td><td>98 - 108</td><td></td><td>mmol/L</td></tr></table></div>"
        },
        "status": "final",
        "subject": {
          "reference": "urn:uuid:15608973-d1ab-46f5-8b4c-b4da3319c91e",
          "display": "Meaghan Neary"
        },
        "effectiveDateTime": "2024-03-25T22:11:04Z",
        "specimen": {
          "reference": "urn:uuid:7d919e75-25fa-4df3-9379-5bec3753c8d9"
        }
      }
    },
    {
      "fullUrl": "urn:uuid:3e64a82c-b5b8-4fa1-9dfd-171d6f31ca15",
      "resource": {
        "resourceType": "Observation",
        "id": "3e64a82c-b5b8-4fa1-9dfd-171d6f31ca15",
        "meta": {
          "profile": [
            "http://hl7.eu/fhir/laboratory/StructureDefinition/Observation-resultslab-eu-lab"
          ]
        },
        "performer": [
          {
            "display": "The Central European Lab"
          }
        ],
        "category": [
          {
            "coding": [
              {
                "system": "http://terminology.hl7.org/CodeSystem/observation-category",
                "code": "laboratory"
              }
            ]
          }
        ],
        "code": {
          "coding": [
            {
              "code": "2028-9",
              "system": "http://loinc.org",
              "display": "Carbon dioxide, total [Moles/volume] in Serum or Plasma"
            }
          ],
          "text": "Carbon dioxide, total [Moles/volume] in Serum or Plasma"
        },
        "valueQuantity": {
          "system": "http://unitsofmeasure.org",
          "value": 22.2,
          "unit": "mmol/L",
          "code": "mmol/L"
        },
        "referenceRange": [
          {
            "low": {
              "value": 22,
              "code": "mmol/L",
              "system": "http://unitsofmeasure.org"
            }
          },
          {
            "high": {
              "value": 32,
              "code": "mmol/L",
              "system": "http://unitsofmeasure.org"
            }
          }
        ],
        "text": {
          "status": "generated",
          "div": "<div xmlns=\"http://www.w3.org/1999/xhtml\"><table class=\"hl7__eu__lab__report\"><tr><th>Test</th><th>25-Mar-2024</th><th>Reference&#xA0;Range</th><th>Unit</th></tr><tr><td>Carbon dioxide, total [Moles/volume] in Serum or Plasma</td><td>22.2</td><td>22 - 32</td><td></td><td>mmol/L</td></tr></table></div>"
        },
        "status": "final",
        "subject": {
          "reference": "urn:uuid:15608973-d1ab-46f5-8b4c-b4da3319c91e",
          "display": "Meaghan Neary"
        },
        "effectiveDateTime": "2024-03-25T22:11:04Z",
        "specimen": {
          "reference": "urn:uuid:7d919e75-25fa-4df3-9379-5bec3753c8d9"
        }
      }
    },
    {
      "fullUrl": "urn:uuid:9b028dc8-ea46-463d-acee-d03d02a3dc9e",
      "resource": {
        "resourceType": "Observation",
        "id": "9b028dc8-ea46-463d-acee-d03d02a3dc9e",
        "meta": {
          "profile": [
            "http://hl7.eu/fhir/laboratory/StructureDefinition/Observation-resultslab-eu-lab"
          ]
        },
        "performer": [
          {
            "display": "The Central European Lab"
          }
        ],
        "category": [
          {
            "coding": [
              {
                "system": "http://terminology.hl7.org/CodeSystem/observation-category",
                "code": "laboratory"
              }
            ]
          }
        ],
        "code": {
          "coding": [
            {
              "code": "5767-9",
              "system": "http://loinc.org",
              "display": "Appearance of Urine"
            }
          ],
          "text": "Appearance of Urine"
        },
        "text": {
          "status": "generated",
          "div": "<div xmlns=\"http://www.w3.org/1999/xhtml\"><table class=\"hl7__eu__lab__report\"><tr><th>Test</th><th>25-Mar-2024</th><th>Reference&#xA0;Range</th><th>Unit</th></tr><tr><td>Appearance of Urine</td></tr></table></div>"
        },
        "status": "final",
        "subject": {
          "reference": "urn:uuid:15608973-d1ab-46f5-8b4c-b4da3319c91e",
          "display": "Meaghan Neary"
        },
        "effectiveDateTime": "2024-03-25T22:11:04Z",
        "specimen": {
          "reference": "urn:uuid:d1e75ab6-b9d9-40c8-9b1f-fdde3df58c7c"
        }
      }
    },
    {
      "fullUrl": "urn:uuid:475b9d62-d4d7-4ece-80cc-b78bb54e9dad",
      "resource": {
        "resourceType": "Observation",
        "id": "475b9d62-d4d7-4ece-80cc-b78bb54e9dad",
        "meta": {
          "profile": [
            "http://hl7.eu/fhir/laboratory/StructureDefinition/Observation-resultslab-eu-lab"
          ]
        },
        "performer": [
          {
            "display": "The Central European Lab"
          }
        ],
        "category": [
          {
            "coding": [
              {
                "system": "http://terminology.hl7.org/CodeSystem/observation-category",
                "code": "laboratory"
              }
            ]
          }
        ],
        "code": {
          "coding": [
            {
              "code": "34533-0",
              "system": "http://loinc.org",
              "display": "Odor of Urine"
            }
          ],
          "text": "Odor of Urine"
        },
        "text": {
          "status": "generated",
          "div": "<div xmlns=\"http://www.w3.org/1999/xhtml\"><table class=\"hl7__eu__lab__report\"><tr><th>Test</th><th>25-Mar-2024</th><th>Reference&#xA0;Range</th><th>Unit</th></tr><tr><td>Odor of Urine</td></tr></table></div>"
        },
        "status": "final",
        "subject": {
          "reference": "urn:uuid:15608973-d1ab-46f5-8b4c-b4da3319c91e",
          "display": "Meaghan Neary"
        },
        "effectiveDateTime": "2024-03-25T22:11:04Z",
        "specimen": {
          "reference": "urn:uuid:d1e75ab6-b9d9-40c8-9b1f-fdde3df58c7c"
        }
      }
    },
    {
      "fullUrl": "urn:uuid:8373c04f-04f1-4d83-b079-22d6e644ff8f",
      "resource": {
        "resourceType": "Observation",
        "id": "8373c04f-04f1-4d83-b079-22d6e644ff8f",
        "meta": {
          "profile": [
            "http://hl7.eu/fhir/laboratory/StructureDefinition/Observation-resultslab-eu-lab"
          ]
        },
        "performer": [
          {
            "display": "The Central European Lab"
          }
        ],
        "category": [
          {
            "coding": [
              {
                "system": "http://terminology.hl7.org/CodeSystem/observation-category",
                "code": "laboratory"
              }
            ]
          }
        ],
        "code": {
          "coding": [
            {
              "code": "32167-9",
              "system": "http://loinc.org",
              "display": "Clarity of Urine"
            }
          ],
          "text": "Clarity of Urine"
        },
        "text": {
          "status": "generated",
          "div": "<div xmlns=\"http://www.w3.org/1999/xhtml\"><table class=\"hl7__eu__lab__report\"><tr><th>Test</th><th>25-Mar-2024</th><th>Reference&#xA0;Range</th><th>Unit</th></tr><tr><td>Clarity of Urine</td></tr></table></div>"
        },
        "status": "final",
        "subject": {
          "reference": "urn:uuid:15608973-d1ab-46f5-8b4c-b4da3319c91e",
          "display": "Meaghan Neary"
        },
        "effectiveDateTime": "2024-03-25T22:11:04Z",
        "specimen": {
          "reference": "urn:uuid:d1e75ab6-b9d9-40c8-9b1f-fdde3df58c7c"
        }
      }
    },
    {
      "fullUrl": "urn:uuid:b2b7cf5e-564f-4b3e-a400-61fbfa2e20e3",
      "resource": {
        "resourceType": "Observation",
        "id": "b2b7cf5e-564f-4b3e-a400-61fbfa2e20e3",
        "meta": {
          "profile": [
            "http://hl7.eu/fhir/laboratory/StructureDefinition/Observation-resultslab-eu-lab"
          ]
        },
        "performer": [
          {
            "display": "The Central European Lab"
          }
        ],
        "category": [
          {
            "coding": [
              {
                "system": "http://terminology.hl7.org/CodeSystem/observation-category",
                "code": "laboratory"
              }
            ]
          }
        ],
        "code": {
          "coding": [
            {
              "code": "5778-6",
              "system": "http://loinc.org",
              "display": "Color of Urine"
            }
          ],
          "text": "Color of Urine"
        },
        "text": {
          "status": "generated",
          "div": "<div xmlns=\"http://www.w3.org/1999/xhtml\"><table class=\"hl7__eu__lab__report\"><tr><th>Test</th><th>25-Mar-2024</th><th>Reference&#xA0;Range</th><th>Unit</th></tr><tr><td>Color of Urine</td></tr></table></div>"
        },
        "status": "final",
        "subject": {
          "reference": "urn:uuid:15608973-d1ab-46f5-8b4c-b4da3319c91e",
          "display": "Meaghan Neary"
        },
        "effectiveDateTime": "2024-03-25T22:11:04Z",
        "specimen": {
          "reference": "urn:uuid:d1e75ab6-b9d9-40c8-9b1f-fdde3df58c7c"
        }
      }
    },
    {
      "fullUrl": "urn:uuid:02d6ff9a-bb6b-4994-8c71-eb36d93c5919",
      "resource": {
        "resourceType": "Observation",
        "id": "02d6ff9a-bb6b-4994-8c71-eb36d93c5919",
        "meta": {
          "profile": [
            "http://hl7.eu/fhir/laboratory/StructureDefinition/Observation-resultslab-eu-lab"
          ]
        },
        "performer": [
          {
            "display": "The Central European Lab"
          }
        ],
        "category": [
          {
            "coding": [
              {
                "system": "http://terminology.hl7.org/CodeSystem/observation-category",
                "code": "laboratory"
              }
            ]
          }
        ],
        "code": {
          "coding": [
            {
              "code": "5792-7",
              "system": "http://loinc.org",
              "display": "Glucose [Mass/volume] in Urine by Test strip"
            }
          ],
          "text": "Glucose [Mass/volume] in Urine by Test strip"
        },
        "valueQuantity": {
          "system": "http://unitsofmeasure.org",
          "value": 2.4,
          "unit": "mg/dL",
          "code": "mg/dL"
        },
        "referenceRange": [
          {
            "low": {
              "value": 0.8,
              "code": "mg/dL",
              "system": "http://unitsofmeasure.org"
            }
          },
          {
            "high": {
              "value": 0,
              "code": "mg/dL",
              "system": "http://unitsofmeasure.org"
            }
          }
        ],
        "interpretation": [
          {
            "coding": [
              {
                "code": "H",
                "system": "http://terminology.hl7.org/CodeSystem/v3-ObservationInterpretation",
                "display": "High"
              }
            ]
          }
        ],
        "text": {
          "status": "generated",
          "div": "<div xmlns=\"http://www.w3.org/1999/xhtml\"><table class=\"hl7__eu__lab__report\"><tr><th>Test</th><th>25-Mar-2024</th><th>Reference&#xA0;Range</th><th>Unit</th></tr><tr><td>Glucose [Mass/volume] in Urine by Test strip</td><td>2.4</td><td>0.8 - 0</td><td>H</td><td>mg/dL</td></tr></table></div>"
        },
        "status": "final",
        "subject": {
          "reference": "urn:uuid:15608973-d1ab-46f5-8b4c-b4da3319c91e",
          "display": "Meaghan Neary"
        },
        "effectiveDateTime": "2024-03-25T22:11:04Z",
        "specimen": {
          "reference": "urn:uuid:d1e75ab6-b9d9-40c8-9b1f-fdde3df58c7c"
        }
      }
    },
    {
      "fullUrl": "urn:uuid:f0b266fe-3911-43c9-927e-7b38b7d6497c",
      "resource": {
        "resourceType": "Observation",
        "id": "f0b266fe-3911-43c9-927e-7b38b7d6497c",
        "meta": {
          "profile": [
            "http://hl7.eu/fhir/laboratory/StructureDefinition/Observation-resultslab-eu-lab"
          ]
        },
        "performer": [
          {
            "display": "The Central European Lab"
          }
        ],
        "category": [
          {
            "coding": [
              {
                "system": "http://terminology.hl7.org/CodeSystem/observation-category",
                "code": "laboratory"
              }
            ]
          }
        ],
        "code": {
          "coding": [
            {
              "code": "25428-4",
              "system": "http://loinc.org",
              "display": "Glucose [Presence] in Urine by Test strip"
            }
          ],
          "text": "Glucose [Presence] in Urine by Test strip"
        },
        "text": {
          "status": "generated",
          "div": "<div xmlns=\"http://www.w3.org/1999/xhtml\"><table class=\"hl7__eu__lab__report\"><tr><th>Test</th><th>25-Mar-2024</th><th>Reference&#xA0;Range</th><th>Unit</th></tr><tr><td>Glucose [Presence] in Urine by Test strip</td></tr></table></div>"
        },
        "status": "final",
        "subject": {
          "reference": "urn:uuid:15608973-d1ab-46f5-8b4c-b4da3319c91e",
          "display": "Meaghan Neary"
        },
        "effectiveDateTime": "2024-03-25T22:11:04Z",
        "specimen": {
          "reference": "urn:uuid:d1e75ab6-b9d9-40c8-9b1f-fdde3df58c7c"
        }
      }
    },
    {
      "fullUrl": "urn:uuid:1f98aa4e-eb13-4dfb-879f-593bb10cb8a0",
      "resource": {
        "resourceType": "Observation",
        "id": "1f98aa4e-eb13-4dfb-879f-593bb10cb8a0",
        "meta": {
          "profile": [
            "http://hl7.eu/fhir/laboratory/StructureDefinition/Observation-resultslab-eu-lab"
          ]
        },
        "performer": [
          {
            "display": "The Central European Lab"
          }
        ],
        "category": [
          {
            "coding": [
              {
                "system": "http://terminology.hl7.org/CodeSystem/observation-category",
                "code": "laboratory"
              }
            ]
          }
        ],
        "code": {
          "coding": [
            {
              "code": "20505-4",
              "system": "http://loinc.org",
              "display": "Bilirubin.total [Mass/volume] in Urine by Test strip"
            }
          ],
          "text": "Bilirubin.total [Mass/volume] in Urine by Test strip"
        },
        "valueQuantity": {
          "system": "http://unitsofmeasure.org",
          "value": 0.3,
          "unit": "mg/dL",
          "code": "mg/dL"
        },
        "referenceRange": [
          {
            "low": {
              "value": 0,
              "code": "mg/dL",
              "system": "http://unitsofmeasure.org"
            }
          },
          {
            "high": {
              "value": 1,
              "code": "mg/dL",
              "system": "http://unitsofmeasure.org"
            }
          }
        ],
        "text": {
          "status": "generated",
          "div": "<div xmlns=\"http://www.w3.org/1999/xhtml\"><table class=\"hl7__eu__lab__report\"><tr><th>Test</th><th>25-Mar-2024</th><th>Reference&#xA0;Range</th><th>Unit</th></tr><tr><td>Bilirubin.total [Mass/volume] in Urine by Test strip</td><td>0.3</td><td>0 - 1</td><td></td><td>mg/dL</td></tr></table></div>"
        },
        "status": "final",
        "subject": {
          "reference": "urn:uuid:15608973-d1ab-46f5-8b4c-b4da3319c91e",
          "display": "Meaghan Neary"
        },
        "effectiveDateTime": "2024-03-25T22:11:04Z",
        "specimen": {
          "reference": "urn:uuid:d1e75ab6-b9d9-40c8-9b1f-fdde3df58c7c"
        }
      }
    },
    {
      "fullUrl": "urn:uuid:31212897-0d3d-481f-a290-a19dbffe8b2f",
      "resource": {
        "resourceType": "Observation",
        "id": "31212897-0d3d-481f-a290-a19dbffe8b2f",
        "meta": {
          "profile": [
            "http://hl7.eu/fhir/laboratory/StructureDefinition/Observation-resultslab-eu-lab"
          ]
        },
        "performer": [
          {
            "display": "The Central European Lab"
          }
        ],
        "category": [
          {
            "coding": [
              {
                "system": "http://terminology.hl7.org/CodeSystem/observation-category",
                "code": "laboratory"
              }
            ]
          }
        ],
        "code": {
          "coding": [
            {
              "code": "5770-3",
              "system": "http://loinc.org",
              "display": "Bilirubin.total [Presence] in Urine by Test strip"
            }
          ],
          "text": "Bilirubin.total [Presence] in Urine by Test strip"
        },
        "text": {
          "status": "generated",
          "div": "<div xmlns=\"http://www.w3.org/1999/xhtml\"><table class=\"hl7__eu__lab__report\"><tr><th>Test</th><th>25-Mar-2024</th><th>Reference&#xA0;Range</th><th>Unit</th></tr><tr><td>Bilirubin.total [Presence] in Urine by Test strip</td></tr></table></div>"
        },
        "status": "final",
        "subject": {
          "reference": "urn:uuid:15608973-d1ab-46f5-8b4c-b4da3319c91e",
          "display": "Meaghan Neary"
        },
        "effectiveDateTime": "2024-03-25T22:11:04Z",
        "specimen": {
          "reference": "urn:uuid:d1e75ab6-b9d9-40c8-9b1f-fdde3df58c7c"
        }
      }
    },
    {
      "fullUrl": "urn:uuid:0f08e6c5-28fd-46e7-ba17-a2806db5e036",
      "resource": {
        "resourceType": "Observation",
        "id": "0f08e6c5-28fd-46e7-ba17-a2806db5e036",
        "meta": {
          "profile": [
            "http://hl7.eu/fhir/laboratory/StructureDefinition/Observation-resultslab-eu-lab"
          ]
        },
        "performer": [
          {
            "display": "The Central European Lab"
          }
        ],
        "category": [
          {
            "coding": [
              {
                "system": "http://terminology.hl7.org/CodeSystem/observation-category",
                "code": "laboratory"
              }
            ]
          }
        ],
        "code": {
          "coding": [
            {
              "code": "5797-6",
              "system": "http://loinc.org",
              "display": "Ketones [Mass/volume] in Urine by Test strip"
            }
          ],
          "text": "Ketones [Mass/volume] in Urine by Test strip"
        },
        "valueQuantity": {
          "system": "http://unitsofmeasure.org",
          "value": 1.3,
          "unit": "mg/dL",
          "code": "mg/dL"
        },
        "referenceRange": [
          {
            "low": {
              "value": 0,
              "code": "mg/dL",
              "system": "http://unitsofmeasure.org"
            }
          },
          {
            "high": {
              "value": 4,
              "code": "mg/dL",
              "system": "http://unitsofmeasure.org"
            }
          }
        ],
        "text": {
          "status": "generated",
          "div": "<div xmlns=\"http://www.w3.org/1999/xhtml\"><table class=\"hl7__eu__lab__report\"><tr><th>Test</th><th>25-Mar-2024</th><th>Reference&#xA0;Range</th><th>Unit</th></tr><tr><td>Ketones [Mass/volume] in Urine by Test strip</td><td>1.3</td><td>0 - 4</td><td></td><td>mg/dL</td></tr></table></div>"
        },
        "status": "final",
        "subject": {
          "reference": "urn:uuid:15608973-d1ab-46f5-8b4c-b4da3319c91e",
          "display": "Meaghan Neary"
        },
        "effectiveDateTime": "2024-03-25T22:11:04Z",
        "specimen": {
          "reference": "urn:uuid:d1e75ab6-b9d9-40c8-9b1f-fdde3df58c7c"
        }
      }
    },
    {
      "fullUrl": "urn:uuid:cd959453-d740-4b4d-8e1c-088ef2dee644",
      "resource": {
        "resourceType": "Observation",
        "id": "cd959453-d740-4b4d-8e1c-088ef2dee644",
        "meta": {
          "profile": [
            "http://hl7.eu/fhir/laboratory/StructureDefinition/Observation-resultslab-eu-lab"
          ]
        },
        "performer": [
          {
            "display": "The Central European Lab"
          }
        ],
        "category": [
          {
            "coding": [
              {
                "system": "http://terminology.hl7.org/CodeSystem/observation-category",
                "code": "laboratory"
              }
            ]
          }
        ],
        "code": {
          "coding": [
            {
              "code": "2514-8",
              "system": "http://loinc.org",
              "display": "Ketones [Presence] in Urine by Test strip"
            }
          ],
          "text": "Ketones [Presence] in Urine by Test strip"
        },
        "text": {
          "status": "generated",
          "div": "<div xmlns=\"http://www.w3.org/1999/xhtml\"><table class=\"hl7__eu__lab__report\"><tr><th>Test</th><th>25-Mar-2024</th><th>Reference&#xA0;Range</th><th>Unit</th></tr><tr><td>Ketones [Presence] in Urine by Test strip</td></tr></table></div>"
        },
        "status": "final",
        "subject": {
          "reference": "urn:uuid:15608973-d1ab-46f5-8b4c-b4da3319c91e",
          "display": "Meaghan Neary"
        },
        "effectiveDateTime": "2024-03-25T22:11:04Z",
        "specimen": {
          "reference": "urn:uuid:d1e75ab6-b9d9-40c8-9b1f-fdde3df58c7c"
        }
      }
    },
    {
      "fullUrl": "urn:uuid:2b77b9d1-804b-4f8e-85b2-f76cc16cf313",
      "resource": {
        "resourceType": "Observation",
        "id": "2b77b9d1-804b-4f8e-85b2-f76cc16cf313",
        "meta": {
          "profile": [
            "http://hl7.eu/fhir/laboratory/StructureDefinition/Observation-resultslab-eu-lab"
          ]
        },
        "performer": [
          {
            "display": "The Central European Lab"
          }
        ],
        "category": [
          {
            "coding": [
              {
                "system": "http://terminology.hl7.org/CodeSystem/observation-category",
                "code": "laboratory"
              }
            ]
          }
        ],
        "code": {
          "coding": [
            {
              "code": "5811-5",
              "system": "http://loinc.org",
              "display": "Specific gravity of Urine by Test strip"
            }
          ],
          "text": "Specific gravity of Urine by Test strip"
        },
        "valueQuantity": {
          "system": "http://unitsofmeasure.org",
          "value": 1,
          "unit": "{nominal}",
          "code": "{nominal}"
        },
        "referenceRange": [
          {
            "low": {
              "value": 1.005,
              "code": "g/mL",
              "system": "http://unitsofmeasure.org"
            }
          },
          {
            "high": {
              "value": 1.03,
              "code": "g/mL",
              "system": "http://unitsofmeasure.org"
            }
          }
        ],
        "interpretation": [
          {
            "coding": [
              {
                "code": "L",
                "system": "http://terminology.hl7.org/CodeSystem/v3-ObservationInterpretation",
                "display": "Low"
              }
            ]
          }
        ],
        "text": {
          "status": "generated",
          "div": "<div xmlns=\"http://www.w3.org/1999/xhtml\"><table class=\"hl7__eu__lab__report\"><tr><th>Test</th><th>25-Mar-2024</th><th>Reference&#xA0;Range</th><th>Unit</th></tr><tr><td>Specific gravity of Urine by Test strip</td><td>1.0</td><td>1.005 - 1.03</td><td>L</td><td>{nominal}</td></tr></table></div>"
        },
        "status": "final",
        "subject": {
          "reference": "urn:uuid:15608973-d1ab-46f5-8b4c-b4da3319c91e",
          "display": "Meaghan Neary"
        },
        "effectiveDateTime": "2024-03-25T22:11:04Z",
        "specimen": {
          "reference": "urn:uuid:d1e75ab6-b9d9-40c8-9b1f-fdde3df58c7c"
        }
      }
    },
    {
      "fullUrl": "urn:uuid:598f988e-bbcd-49cd-a114-435d64e92804",
      "resource": {
        "resourceType": "Observation",
        "id": "598f988e-bbcd-49cd-a114-435d64e92804",
        "meta": {
          "profile": [
            "http://hl7.eu/fhir/laboratory/StructureDefinition/Observation-resultslab-eu-lab"
          ]
        },
        "performer": [
          {
            "display": "The Central European Lab"
          }
        ],
        "category": [
          {
            "coding": [
              {
                "system": "http://terminology.hl7.org/CodeSystem/observation-category",
                "code": "laboratory"
              }
            ]
          }
        ],
        "code": {
          "coding": [
            {
              "code": "5803-2",
              "system": "http://loinc.org",
              "display": "pH of Urine by Test strip"
            }
          ],
          "text": "pH of Urine by Test strip"
        },
        "valueQuantity": {
          "system": "http://unitsofmeasure.org",
          "value": 6.7,
          "unit": "pH",
          "code": "pH"
        },
        "referenceRange": [
          {
            "low": {
              "value": 4.6,
              "code": "pH",
              "system": "http://unitsofmeasure.org"
            }
          },
          {
            "high": {
              "value": 7,
              "code": "pH",
              "system": "http://unitsofmeasure.org"
            }
          }
        ],
        "text": {
          "status": "generated",
          "div": "<div xmlns=\"http://www.w3.org/1999/xhtml\"><table class=\"hl7__eu__lab__report\"><tr><th>Test</th><th>25-Mar-2024</th><th>Reference&#xA0;Range</th><th>Unit</th></tr><tr><td>pH of Urine by Test strip</td><td>6.7</td><td>4.6 - 7</td><td></td><td>pH</td></tr></table></div>"
        },
        "status": "final",
        "subject": {
          "reference": "urn:uuid:15608973-d1ab-46f5-8b4c-b4da3319c91e",
          "display": "Meaghan Neary"
        },
        "effectiveDateTime": "2024-03-25T22:11:04Z",
        "specimen": {
          "reference": "urn:uuid:d1e75ab6-b9d9-40c8-9b1f-fdde3df58c7c"
        }
      }
    },
    {
      "fullUrl": "urn:uuid:4734bb12-85cf-403d-9b5c-c43d645e61cb",
      "resource": {
        "resourceType": "Observation",
        "id": "4734bb12-85cf-403d-9b5c-c43d645e61cb",
        "meta": {
          "profile": [
            "http://hl7.eu/fhir/laboratory/StructureDefinition/Observation-resultslab-eu-lab"
          ]
        },
        "performer": [
          {
            "display": "The Central European Lab"
          }
        ],
        "category": [
          {
            "coding": [
              {
                "system": "http://terminology.hl7.org/CodeSystem/observation-category",
                "code": "laboratory"
              }
            ]
          }
        ],
        "code": {
          "coding": [
            {
              "code": "5804-0",
              "system": "http://loinc.org",
              "display": "Protein [Mass/volume] in Urine by Test strip"
            }
          ],
          "text": "Protein [Mass/volume] in Urine by Test strip"
        },
        "valueQuantity": {
          "system": "http://unitsofmeasure.org",
          "value": 346.1,
          "unit": "mg/dL",
          "code": "mg/dL"
        },
        "referenceRange": [
          {
            "low": {
              "value": 0,
              "code": "mg/dL",
              "system": "http://unitsofmeasure.org"
            }
          },
          {
            "high": {
              "value": 14,
              "code": "mg/dL",
              "system": "http://unitsofmeasure.org"
            }
          }
        ],
        "interpretation": [
          {
            "coding": [
              {
                "code": "H",
                "system": "http://terminology.hl7.org/CodeSystem/v3-ObservationInterpretation",
                "display": "High"
              }
            ]
          }
        ],
        "text": {
          "status": "generated",
          "div": "<div xmlns=\"http://www.w3.org/1999/xhtml\"><table class=\"hl7__eu__lab__report\"><tr><th>Test</th><th>25-Mar-2024</th><th>Reference&#xA0;Range</th><th>Unit</th></tr><tr><td>Protein [Mass/volume] in Urine by Test strip</td><td>346.1</td><td>0 - 14</td><td>H</td><td>mg/dL</td></tr></table></div>"
        },
        "status": "final",
        "subject": {
          "reference": "urn:uuid:15608973-d1ab-46f5-8b4c-b4da3319c91e",
          "display": "Meaghan Neary"
        },
        "effectiveDateTime": "2024-03-25T22:11:04Z",
        "specimen": {
          "reference": "urn:uuid:d1e75ab6-b9d9-40c8-9b1f-fdde3df58c7c"
        }
      }
    },
    {
      "fullUrl": "urn:uuid:8b1bf648-7a7f-43dd-af69-a8ac36ca0191",
      "resource": {
        "resourceType": "Observation",
        "id": "8b1bf648-7a7f-43dd-af69-a8ac36ca0191",
        "meta": {
          "profile": [
            "http://hl7.eu/fhir/laboratory/StructureDefinition/Observation-resultslab-eu-lab"
          ]
        },
        "performer": [
          {
            "display": "The Central European Lab"
          }
        ],
        "category": [
          {
            "coding": [
              {
                "system": "http://terminology.hl7.org/CodeSystem/observation-category",
                "code": "laboratory"
              }
            ]
          }
        ],
        "code": {
          "coding": [
            {
              "code": "20454-5",
              "system": "http://loinc.org",
              "display": "Protein [Presence] in Urine by Test strip"
            }
          ],
          "text": "Protein [Presence] in Urine by Test strip"
        },
        "text": {
          "status": "generated",
          "div": "<div xmlns=\"http://www.w3.org/1999/xhtml\"><table class=\"hl7__eu__lab__report\"><tr><th>Test</th><th>25-Mar-2024</th><th>Reference&#xA0;Range</th><th>Unit</th></tr><tr><td>Protein [Presence] in Urine by Test strip</td></tr></table></div>"
        },
        "status": "final",
        "subject": {
          "reference": "urn:uuid:15608973-d1ab-46f5-8b4c-b4da3319c91e",
          "display": "Meaghan Neary"
        },
        "effectiveDateTime": "2024-03-25T22:11:04Z",
        "specimen": {
          "reference": "urn:uuid:d1e75ab6-b9d9-40c8-9b1f-fdde3df58c7c"
        }
      }
    },
    {
      "fullUrl": "urn:uuid:121dbaf4-511b-4022-9d04-d996689e1a9f",
      "resource": {
        "resourceType": "Observation",
        "id": "121dbaf4-511b-4022-9d04-d996689e1a9f",
        "meta": {
          "profile": [
            "http://hl7.eu/fhir/laboratory/StructureDefinition/Observation-resultslab-eu-lab"
          ]
        },
        "performer": [
          {
            "display": "The Central European Lab"
          }
        ],
        "category": [
          {
            "coding": [
              {
                "system": "http://terminology.hl7.org/CodeSystem/observation-category",
                "code": "laboratory"
              }
            ]
          }
        ],
        "code": {
          "coding": [
            {
              "code": "5802-4",
              "system": "http://loinc.org",
              "display": "Nitrite [Presence] in Urine by Test strip"
            }
          ],
          "text": "Nitrite [Presence] in Urine by Test strip"
        },
        "text": {
          "status": "generated",
          "div": "<div xmlns=\"http://www.w3.org/1999/xhtml\"><table class=\"hl7__eu__lab__report\"><tr><th>Test</th><th>25-Mar-2024</th><th>Reference&#xA0;Range</th><th>Unit</th></tr><tr><td>Nitrite [Presence] in Urine by Test strip</td></tr></table></div>"
        },
        "status": "final",
        "subject": {
          "reference": "urn:uuid:15608973-d1ab-46f5-8b4c-b4da3319c91e",
          "display": "Meaghan Neary"
        },
        "effectiveDateTime": "2024-03-25T22:11:04Z",
        "specimen": {
          "reference": "urn:uuid:d1e75ab6-b9d9-40c8-9b1f-fdde3df58c7c"
        }
      }
    },
    {
      "fullUrl": "urn:uuid:e399b24b-d1c9-40f5-a959-42b5757cc745",
      "resource": {
        "resourceType": "Observation",
        "id": "e399b24b-d1c9-40f5-a959-42b5757cc745",
        "meta": {
          "profile": [
            "http://hl7.eu/fhir/laboratory/StructureDefinition/Observation-resultslab-eu-lab"
          ]
        },
        "performer": [
          {
            "display": "The Central European Lab"
          }
        ],
        "category": [
          {
            "coding": [
              {
                "system": "http://terminology.hl7.org/CodeSystem/observation-category",
                "code": "laboratory"
              }
            ]
          }
        ],
        "code": {
          "coding": [
            {
              "code": "5794-3",
              "system": "http://loinc.org",
              "display": "Hemoglobin [Presence] in Urine by Test strip"
            }
          ],
          "text": "Hemoglobin [Presence] in Urine by Test strip"
        },
        "text": {
          "status": "generated",
          "div": "<div xmlns=\"http://www.w3.org/1999/xhtml\"><table class=\"hl7__eu__lab__report\"><tr><th>Test</th><th>25-Mar-2024</th><th>Reference&#xA0;Range</th><th>Unit</th></tr><tr><td>Hemoglobin [Presence] in Urine by Test strip</td></tr></table></div>"
        },
        "status": "final",
        "subject": {
          "reference": "urn:uuid:15608973-d1ab-46f5-8b4c-b4da3319c91e",
          "display": "Meaghan Neary"
        },
        "effectiveDateTime": "2024-03-25T22:11:04Z",
        "specimen": {
          "reference": "urn:uuid:d1e75ab6-b9d9-40c8-9b1f-fdde3df58c7c"
        }
      }
    },
    {
      "fullUrl": "urn:uuid:f5766363-8417-440b-919d-e36269ee29fa",
      "resource": {
        "resourceType": "Observation",
        "id": "f5766363-8417-440b-919d-e36269ee29fa",
        "meta": {
          "profile": [
            "http://hl7.eu/fhir/laboratory/StructureDefinition/Observation-resultslab-eu-lab"
          ]
        },
        "performer": [
          {
            "display": "The Central European Lab"
          }
        ],
        "category": [
          {
            "coding": [
              {
                "system": "http://terminology.hl7.org/CodeSystem/observation-category",
                "code": "laboratory"
              }
            ]
          }
        ],
        "code": {
          "coding": [
            {
              "code": "5799-2",
              "system": "http://loinc.org",
              "display": "Leukocyte esterase [Presence] in Urine by Test strip"
            }
          ],
          "text": "Leukocyte esterase [Presence] in Urine by Test strip"
        },
        "text": {
          "status": "generated",
          "div": "<div xmlns=\"http://www.w3.org/1999/xhtml\"><table class=\"hl7__eu__lab__report\"><tr><th>Test</th><th>25-Mar-2024</th><th>Reference&#xA0;Range</th><th>Unit</th></tr><tr><td>Leukocyte esterase [Presence] in Urine by Test strip</td></tr></table></div>"
        },
        "status": "final",
        "subject": {
          "reference": "urn:uuid:15608973-d1ab-46f5-8b4c-b4da3319c91e",
          "display": "Meaghan Neary"
        },
        "effectiveDateTime": "2024-03-25T22:11:04Z",
        "specimen": {
          "reference": "urn:uuid:d1e75ab6-b9d9-40c8-9b1f-fdde3df58c7c"
        }
      }
    },
    {
      "fullUrl": "urn:uuid:d625c67b-59ae-4039-9fb0-1535eea410c0",
      "resource": {
        "resourceType": "Observation",
        "id": "d625c67b-59ae-4039-9fb0-1535eea410c0",
        "meta": {
          "profile": [
            "http://hl7.eu/fhir/laboratory/StructureDefinition/Observation-resultslab-eu-lab"
          ]
        },
        "performer": [
          {
            "display": "The Central European Lab"
          }
        ],
        "category": [
          {
            "coding": [
              {
                "system": "http://terminology.hl7.org/CodeSystem/observation-category",
                "code": "laboratory"
              }
            ]
          }
        ],
        "code": {
          "coding": [
            {
              "code": "4548-4",
              "system": "http://loinc.org",
              "display": "Hemoglobin A1c/Hemoglobin.total in Blood"
            }
          ],
          "text": "Hemoglobin A1c/Hemoglobin.total in Blood"
        },
        "valueQuantity": {
          "system": "http://unitsofmeasure.org",
          "value": 4,
          "unit": "%",
          "code": "%"
        },
        "referenceRange": [
          {
            "low": {
              "value": 4,
              "code": "%",
              "system": "http://unitsofmeasure.org"
            }
          },
          {
            "high": {
              "value": 6.4,
              "code": "%",
              "system": "http://unitsofmeasure.org"
            }
          }
        ],
        "text": {
          "status": "generated",
          "div": "<div xmlns=\"http://www.w3.org/1999/xhtml\"><table class=\"hl7__eu__lab__report\"><tr><th>Test</th><th>25-Mar-2024</th><th>Reference&#xA0;Range</th><th>Unit</th></tr><tr><td>Hemoglobin A1c/Hemoglobin.total in Blood</td><td>4.0</td><td>4 - 6.4</td><td></td><td>%</td></tr></table></div>"
        },
        "status": "final",
        "subject": {
          "reference": "urn:uuid:15608973-d1ab-46f5-8b4c-b4da3319c91e",
          "display": "Meaghan Neary"
        },
        "effectiveDateTime": "2024-03-25T22:11:04Z",
        "specimen": {
          "reference": "urn:uuid:3412e80d-2b03-4f42-b2f1-e1cd33225979"
        }
      }
    },
    {
      "fullUrl": "urn:uuid:e75c6179-3253-40ac-be55-c16b2737c9e0",
      "resource": {
        "resourceType": "Observation",
        "id": "e75c6179-3253-40ac-be55-c16b2737c9e0",
        "meta": {
          "profile": [
            "http://hl7.eu/fhir/laboratory/StructureDefinition/Observation-resultslab-eu-lab"
          ]
        },
        "performer": [
          {
            "display": "The Central European Lab"
          }
        ],
        "category": [
          {
            "coding": [
              {
                "system": "http://terminology.hl7.org/CodeSystem/observation-category",
                "code": "laboratory"
              }
            ]
          }
        ],
        "code": {
          "coding": [
            {
              "code": "2339-0",
              "system": "http://loinc.org",
              "display": "Glucose [Mass/volume] in Blood"
            }
          ],
          "text": "Glucose [Mass/volume] in Blood"
        },
        "valueQuantity": {
          "system": "http://unitsofmeasure.org",
          "value": 78.7,
          "unit": "mg/dL",
          "code": "mg/dL"
        },
        "referenceRange": [
          {
            "low": {
              "value": 70,
              "code": "mg/dL",
              "system": "http://unitsofmeasure.org"
            }
          },
          {
            "high": {
              "value": 100,
              "code": "mg/dL",
              "system": "http://unitsofmeasure.org"
            }
          }
        ],
        "text": {
          "status": "generated",
          "div": "<div xmlns=\"http://www.w3.org/1999/xhtml\"><table class=\"hl7__eu__lab__report\"><tr><th>Test</th><th>25-Mar-2024</th><th>Reference&#xA0;Range</th><th>Unit</th></tr><tr><td>Glucose [Mass/volume] in Blood</td><td>78.7</td><td>70 - 100</td><td></td><td>mg/dL</td></tr></table></div>"
        },
        "status": "final",
        "subject": {
          "reference": "urn:uuid:15608973-d1ab-46f5-8b4c-b4da3319c91e",
          "display": "Meaghan Neary"
        },
        "effectiveDateTime": "2024-03-25T22:11:04Z",
        "specimen": {
          "reference": "urn:uuid:3412e80d-2b03-4f42-b2f1-e1cd33225979"
        }
      }
    },
    {
      "fullUrl": "urn:uuid:5ade5632-54d6-4935-a183-6469df781e57",
      "resource": {
        "resourceType": "Observation",
        "id": "5ade5632-54d6-4935-a183-6469df781e57",
        "meta": {
          "profile": [
            "http://hl7.eu/fhir/laboratory/StructureDefinition/Observation-resultslab-eu-lab"
          ]
        },
        "performer": [
          {
            "display": "The Central European Lab"
          }
        ],
        "category": [
          {
            "coding": [
              {
                "system": "http://terminology.hl7.org/CodeSystem/observation-category",
                "code": "laboratory"
              }
            ]
          }
        ],
        "code": {
          "coding": [
            {
              "code": "6299-2",
              "system": "http://loinc.org",
              "display": "Urea nitrogen [Mass/volume] in Blood"
            }
          ],
          "text": "Urea nitrogen [Mass/volume] in Blood"
        },
        "valueQuantity": {
          "system": "http://unitsofmeasure.org",
          "value": 10.3,
          "unit": "mg/dL",
          "code": "mg/dL"
        },
        "referenceRange": [
          {
            "low": {
              "value": 7,
              "code": "mg/dL",
              "system": "http://unitsofmeasure.org"
            }
          },
          {
            "high": {
              "value": 43,
              "code": "mg/dL",
              "system": "http://unitsofmeasure.org"
            }
          }
        ],
        "text": {
          "status": "generated",
          "div": "<div xmlns=\"http://www.w3.org/1999/xhtml\"><table class=\"hl7__eu__lab__report\"><tr><th>Test</th><th>25-Mar-2024</th><th>Reference&#xA0;Range</th><th>Unit</th></tr><tr><td>Urea nitrogen [Mass/volume] in Blood</td><td>10.3</td><td>7 - 43</td><td></td><td>mg/dL</td></tr></table></div>"
        },
        "status": "final",
        "subject": {
          "reference": "urn:uuid:15608973-d1ab-46f5-8b4c-b4da3319c91e",
          "display": "Meaghan Neary"
        },
        "effectiveDateTime": "2024-03-25T22:11:04Z",
        "specimen": {
          "reference": "urn:uuid:3412e80d-2b03-4f42-b2f1-e1cd33225979"
        }
      }
    },
    {
      "fullUrl": "urn:uuid:761545d3-4e7e-489d-8953-d62ad8c76ac5",
      "resource": {
        "resourceType": "Observation",
        "id": "761545d3-4e7e-489d-8953-d62ad8c76ac5",
        "meta": {
          "profile": [
            "http://hl7.eu/fhir/laboratory/StructureDefinition/Observation-resultslab-eu-lab"
          ]
        },
        "performer": [
          {
            "display": "The Central European Lab"
          }
        ],
        "category": [
          {
            "coding": [
              {
                "system": "http://terminology.hl7.org/CodeSystem/observation-category",
                "code": "laboratory"
              }
            ]
          }
        ],
        "code": {
          "coding": [
            {
              "code": "38483-4",
              "system": "http://loinc.org",
              "display": "Creatinine [Mass/volume] in Blood"
            }
          ],
          "text": "Creatinine [Mass/volume] in Blood"
        },
        "valueQuantity": {
          "system": "http://unitsofmeasure.org",
          "value": 2.8,
          "unit": "mg/dL",
          "code": "mg/dL"
        },
        "referenceRange": [
          {
            "low": {
              "value": 0.6,
              "code": "mg/dL",
              "system": "http://unitsofmeasure.org"
            }
          },
          {
            "high": {
              "value": 1.1,
              "code": "mg/dL",
              "system": "http://unitsofmeasure.org"
            }
          }
        ],
        "interpretation": [
          {
            "coding": [
              {
                "code": "H",
                "system": "http://terminology.hl7.org/CodeSystem/v3-ObservationInterpretation",
                "display": "High"
              }
            ]
          }
        ],
        "text": {
          "status": "generated",
          "div": "<div xmlns=\"http://www.w3.org/1999/xhtml\"><table class=\"hl7__eu__lab__report\"><tr><th>Test</th><th>25-Mar-2024</th><th>Reference&#xA0;Range</th><th>Unit</th></tr><tr><td>Creatinine [Mass/volume] in Blood</td><td>2.8</td><td>0.6 - 1.1</td><td>H</td><td>mg/dL</td></tr></table></div>"
        },
        "status": "final",
        "subject": {
          "reference": "urn:uuid:15608973-d1ab-46f5-8b4c-b4da3319c91e",
          "display": "Meaghan Neary"
        },
        "effectiveDateTime": "2024-03-25T22:11:04Z",
        "specimen": {
          "reference": "urn:uuid:3412e80d-2b03-4f42-b2f1-e1cd33225979"
        }
      }
    },
    {
      "fullUrl": "urn:uuid:6842e2f9-f1bf-4bb3-938f-cc2ba38f5fc0",
      "resource": {
        "resourceType": "Observation",
        "id": "6842e2f9-f1bf-4bb3-938f-cc2ba38f5fc0",
        "meta": {
          "profile": [
            "http://hl7.eu/fhir/laboratory/StructureDefinition/Observation-resultslab-eu-lab"
          ]
        },
        "performer": [
          {
            "display": "The Central European Lab"
          }
        ],
        "category": [
          {
            "coding": [
              {
                "system": "http://terminology.hl7.org/CodeSystem/observation-category",
                "code": "laboratory"
              }
            ]
          }
        ],
        "code": {
          "coding": [
            {
              "code": "49765-1",
              "system": "http://loinc.org",
              "display": "Calcium [Mass/volume] in Blood"
            }
          ],
          "text": "Calcium [Mass/volume] in Blood"
        },
        "valueQuantity": {
          "system": "http://unitsofmeasure.org",
          "value": 10,
          "unit": "mg/dL",
          "code": "mg/dL"
        },
        "referenceRange": [
          {
            "low": {
              "value": 8.5,
              "code": "mg/dL",
              "system": "http://unitsofmeasure.org"
            }
          },
          {
            "high": {
              "value": 10.5,
              "code": "mg/dL",
              "system": "http://unitsofmeasure.org"
            }
          }
        ],
        "text": {
          "status": "generated",
          "div": "<div xmlns=\"http://www.w3.org/1999/xhtml\"><table class=\"hl7__eu__lab__report\"><tr><th>Test</th><th>25-Mar-2024</th><th>Reference&#xA0;Range</th><th>Unit</th></tr><tr><td>Calcium [Mass/volume] in Blood</td><td>10.0</td><td>8.5 - 10.5</td><td></td><td>mg/dL</td></tr></table></div>"
        },
        "status": "final",
        "subject": {
          "reference": "urn:uuid:15608973-d1ab-46f5-8b4c-b4da3319c91e",
          "display": "Meaghan Neary"
        },
        "effectiveDateTime": "2024-03-25T22:11:04Z",
        "specimen": {
          "reference": "urn:uuid:3412e80d-2b03-4f42-b2f1-e1cd33225979"
        }
      }
    },
    {
      "fullUrl": "urn:uuid:96862c29-759b-4b64-b6d5-6a75c554fb82",
      "resource": {
        "resourceType": "Observation",
        "id": "96862c29-759b-4b64-b6d5-6a75c554fb82",
        "meta": {
          "profile": [
            "http://hl7.eu/fhir/laboratory/StructureDefinition/Observation-resultslab-eu-lab"
          ]
        },
        "performer": [
          {
            "display": "The Central European Lab"
          }
        ],
        "category": [
          {
            "coding": [
              {
                "system": "http://terminology.hl7.org/CodeSystem/observation-category",
                "code": "laboratory"
              }
            ]
          }
        ],
        "code": {
          "coding": [
            {
              "code": "2947-0",
              "system": "http://loinc.org",
              "display": "Sodium [Moles/volume] in Blood"
            }
          ],
          "text": "Sodium [Moles/volume] in Blood"
        },
        "valueQuantity": {
          "system": "http://unitsofmeasure.org",
          "value": 141.6,
          "unit": "mmol/L",
          "code": "mmol/L"
        },
        "referenceRange": [
          {
            "low": {
              "value": 135,
              "code": "mmol/L",
              "system": "http://unitsofmeasure.org"
            }
          },
          {
            "high": {
              "value": 145,
              "code": "mmol/L",
              "system": "http://unitsofmeasure.org"
            }
          }
        ],
        "text": {
          "status": "generated",
          "div": "<div xmlns=\"http://www.w3.org/1999/xhtml\"><table class=\"hl7__eu__lab__report\"><tr><th>Test</th><th>25-Mar-2024</th><th>Reference&#xA0;Range</th><th>Unit</th></tr><tr><td>Sodium [Moles/volume] in Blood</td><td>141.6</td><td>135 - 145</td><td></td><td>mmol/L</td></tr></table></div>"
        },
        "status": "final",
        "subject": {
          "reference": "urn:uuid:15608973-d1ab-46f5-8b4c-b4da3319c91e",
          "display": "Meaghan Neary"
        },
        "effectiveDateTime": "2024-03-25T22:11:04Z",
        "specimen": {
          "reference": "urn:uuid:3412e80d-2b03-4f42-b2f1-e1cd33225979"
        }
      }
    },
    {
      "fullUrl": "urn:uuid:73b35d93-8a4f-493c-809d-3886a8cdf9ce",
      "resource": {
        "resourceType": "Observation",
        "id": "73b35d93-8a4f-493c-809d-3886a8cdf9ce",
        "meta": {
          "profile": [
            "http://hl7.eu/fhir/laboratory/StructureDefinition/Observation-resultslab-eu-lab"
          ]
        },
        "performer": [
          {
            "display": "The Central European Lab"
          }
        ],
        "category": [
          {
            "coding": [
              {
                "system": "http://terminology.hl7.org/CodeSystem/observation-category",
                "code": "laboratory"
              }
            ]
          }
        ],
        "code": {
          "coding": [
            {
              "code": "6298-4",
              "system": "http://loinc.org",
              "display": "Potassium [Moles/volume] in Blood"
            }
          ],
          "text": "Potassium [Moles/volume] in Blood"
        },
        "valueQuantity": {
          "system": "http://unitsofmeasure.org",
          "value": 4.9,
          "unit": "mmol/L",
          "code": "mmol/L"
        },
        "referenceRange": [
          {
            "low": {
              "value": 3.5,
              "code": "mmol/L",
              "system": "http://unitsofmeasure.org"
            }
          },
          {
            "high": {
              "value": 5.1,
              "code": "mmol/L",
              "system": "http://unitsofmeasure.org"
            }
          }
        ],
        "text": {
          "status": "generated",
          "div": "<div xmlns=\"http://www.w3.org/1999/xhtml\"><table class=\"hl7__eu__lab__report\"><tr><th>Test</th><th>25-Mar-2024</th><th>Reference&#xA0;Range</th><th>Unit</th></tr><tr><td>Potassium [Moles/volume] in Blood</td><td>4.9</td><td>3.5 - 5.1</td><td></td><td>mmol/L</td></tr></table></div>"
        },
        "status": "final",
        "subject": {
          "reference": "urn:uuid:15608973-d1ab-46f5-8b4c-b4da3319c91e",
          "display": "Meaghan Neary"
        },
        "effectiveDateTime": "2024-03-25T22:11:04Z",
        "specimen": {
          "reference": "urn:uuid:3412e80d-2b03-4f42-b2f1-e1cd33225979"
        }
      }
    },
    {
      "fullUrl": "urn:uuid:cd6c76b2-9d9d-449f-8459-0a55390063c4",
      "resource": {
        "resourceType": "Observation",
        "id": "cd6c76b2-9d9d-449f-8459-0a55390063c4",
        "meta": {
          "profile": [
            "http://hl7.eu/fhir/laboratory/StructureDefinition/Observation-resultslab-eu-lab"
          ]
        },
        "performer": [
          {
            "display": "The Central European Lab"
          }
        ],
        "category": [
          {
            "coding": [
              {
                "system": "http://terminology.hl7.org/CodeSystem/observation-category",
                "code": "laboratory"
              }
            ]
          }
        ],
        "code": {
          "coding": [
            {
              "code": "2069-3",
              "system": "http://loinc.org",
              "display": "Chloride [Moles/volume] in Blood"
            }
          ],
          "text": "Chloride [Moles/volume] in Blood"
        },
        "valueQuantity": {
          "system": "http://unitsofmeasure.org",
          "value": 103.6,
          "unit": "mmol/L",
          "code": "mmol/L"
        },
        "referenceRange": [
          {
            "low": {
              "value": 98,
              "code": "mmol/L",
              "system": "http://unitsofmeasure.org"
            }
          },
          {
            "high": {
              "value": 108,
              "code": "mmol/L",
              "system": "http://unitsofmeasure.org"
            }
          }
        ],
        "text": {
          "status": "generated",
          "div": "<div xmlns=\"http://www.w3.org/1999/xhtml\"><table class=\"hl7__eu__lab__report\"><tr><th>Test</th><th>25-Mar-2024</th><th>Reference&#xA0;Range</th><th>Unit</th></tr><tr><td>Chloride [Moles/volume] in Blood</td><td>103.6</td><td>98 - 108</td><td></td><td>mmol/L</td></tr></table></div>"
        },
        "status": "final",
        "subject": {
          "reference": "urn:uuid:15608973-d1ab-46f5-8b4c-b4da3319c91e",
          "display": "Meaghan Neary"
        },
        "effectiveDateTime": "2024-03-25T22:11:04Z",
        "specimen": {
          "reference": "urn:uuid:3412e80d-2b03-4f42-b2f1-e1cd33225979"
        }
      }
    },
    {
      "fullUrl": "urn:uuid:93c87d96-f599-4d95-9593-94bee076434c",
      "resource": {
        "resourceType": "Observation",
        "id": "93c87d96-f599-4d95-9593-94bee076434c",
        "meta": {
          "profile": [
            "http://hl7.eu/fhir/laboratory/StructureDefinition/Observation-resultslab-eu-lab"
          ]
        },
        "performer": [
          {
            "display": "The Central European Lab"
          }
        ],
        "category": [
          {
            "coding": [
              {
                "system": "http://terminology.hl7.org/CodeSystem/observation-category",
                "code": "laboratory"
              }
            ]
          }
        ],
        "code": {
          "coding": [
            {
              "code": "20565-8",
              "system": "http://loinc.org",
              "display": "Carbon dioxide, total [Moles/volume] in Blood"
            }
          ],
          "text": "Carbon dioxide, total [Moles/volume] in Blood"
        },
        "valueQuantity": {
          "system": "http://unitsofmeasure.org",
          "value": 22.2,
          "unit": "mmol/L",
          "code": "mmol/L"
        },
        "referenceRange": [
          {
            "low": {
              "value": 22,
              "code": "mmol/L",
              "system": "http://unitsofmeasure.org"
            }
          },
          {
            "high": {
              "value": 29,
              "code": "mmol/L",
              "system": "http://unitsofmeasure.org"
            }
          }
        ],
        "text": {
          "status": "generated",
          "div": "<div xmlns=\"http://www.w3.org/1999/xhtml\"><table class=\"hl7__eu__lab__report\"><tr><th>Test</th><th>25-Mar-2024</th><th>Reference&#xA0;Range</th><th>Unit</th></tr><tr><td>Carbon dioxide, total [Moles/volume] in Blood</td><td>22.2</td><td>22 - 29</td><td></td><td>mmol/L</td></tr></table></div>"
        },
        "status": "final",
        "subject": {
          "reference": "urn:uuid:15608973-d1ab-46f5-8b4c-b4da3319c91e",
          "display": "Meaghan Neary"
        },
        "effectiveDateTime": "2024-03-25T22:11:04Z",
        "specimen": {
          "reference": "urn:uuid:3412e80d-2b03-4f42-b2f1-e1cd33225979"
        }
      }
    },
    {
      "fullUrl": "urn:uuid:e255231e-4bf9-4483-9dfe-47adb43e257a",
      "resource": {
        "resourceType": "Device",
        "id": "e255231e-4bf9-4483-9dfe-47adb43e257a",
        "deviceName": [
          {
            "name": "SYNDERAI Synthetic Generator",
            "type": "manufacturer-name"
          }
        ],
        "version": [
          {
            "value": "5.0"
          }
        ],
        "text": {
          "status": "generated",
          "div": "<div xmlns=\"http://www.w3.org/1999/xhtml\">SYNDERAI Synthetic Generator v5.0</div>"
        },
        "status": "active\"",
        "distinctIdentifier": "synderai-generator-50",
        "manufacturer": "SYNDERAI Project"
      }
    },
    {
      "fullUrl": "urn:uuid:ddc9fe4c-93bf-4661-90f9-427537dcfaa9",
      "resource": {
        "resourceType": "Provenance",
        "id": "ddc9fe4c-93bf-4661-90f9-427537dcfaa9",
        "target": [
          {
            "reference": "Patient/15608973-d1ab-46f5-8b4c-b4da3319c91e"
          },
          {
            "reference": "Bundle/598d8cd0-d14b-4551-a33f-4272ff439c79"
          },
          {
            "reference": "Composition/036d9b61-8e7f-445c-93e1-2753c88212ac"
          },
          {
            "reference": "PractitionerRole/63ad5a6e-85a1-4d44-b0b7-abbdc200edc9"
          },
          {
            "reference": "Practitioner/8bc3c479-1625-44c9-8510-a60cde2fe881"
          },
          {
            "reference": "PractitionerRole/9f90283a-7b20-47b6-bb8d-f4c47ed1fda3"
          },
          {
            "reference": "Organization/3c8620ef-f466-4f37-aecf-4844f3cada9a"
          }
        ],
        "activity": {
          "text": "Synthetic Example Data Generation"
        },
        "policy": [
          "https://synderai.net/synderai-synthetic-data-policy"
        ],
        "agent": [
          {
            "type": {
              "text": "author"
            },
            "who": {
              "reference": "Device/e255231e-4bf9-4483-9dfe-47adb43e257a"
            }
          }
        ],
        "reason": [
          {
            "text": "Interoperability Testing and Training (non-clinical use)"
          }
        ],
        "text": {
          "status": "generated",
          "div": "<div xmlns=\"http://www.w3.org/1999/xhtml\">Provenance for SYNDERAI Synthetic Example Data Resource</div>"
        },
        "recorded": "2024-03-25T23:11:04Z"
      }
    },
    {
      "fullUrl": "urn:uuid:63ad5a6e-85a1-4d44-b0b7-abbdc200edc9",
      "resource": {
        "resourceType": "PractitionerRole",
        "id": "63ad5a6e-85a1-4d44-b0b7-abbdc200edc9",
        "meta": {
          "profile": [
            "http://hl7.eu/fhir/base/StructureDefinition/practitionerRole-eu"
          ]
        },
        "text": {
          "status": "generated",
          "div": "<div xmlns=\"http://www.w3.org/1999/xhtml\">Laboratory Role Id: 63ad5a6e-85a1-4d44-b0b7-abbdc200edc9</div>"
        },
        "practitioner": {
          "reference": "urn:uuid:8bc3c479-1625-44c9-8510-a60cde2fe881"
        }
      }
    },
    {
      "fullUrl": "urn:uuid:8bc3c479-1625-44c9-8510-a60cde2fe881",
      "resource": {
        "resourceType": "Practitioner",
        "id": "8bc3c479-1625-44c9-8510-a60cde2fe881",
        "meta": {
          "profile": [
            "http://hl7.eu/fhir/base/StructureDefinition/practitioner-eu"
          ]
        },
        "identifier": [
          {
            "assigner": {
              "display": "HL7 Europe"
            },
            "system": "urn:oid:2.16.840.1.113883.2.51.999",
            "value": "e054e6bf-9c63-4caf-b30b-0d16dbc6b79e"
          }
        ],
        "name": [
          {
            "prefix": [
              "dr"
            ],
            "given": [
              "Ex"
            ],
            "family": "Ample"
          }
        ],
        "address": [
          {
            "line": [
              "Laboratoire Central Européenne",
              "Boulevard du Jardin Botanique 32"
            ],
            "postalCode": "1000",
            "city": "Brussels",
            "country": "Belgium"
          }
        ],
        "text": {
          "status": "generated",
          "div": "<div xmlns=\"http://www.w3.org/1999/xhtml\">Laboratory: Laboratoire Central Européenne, 1000 Brussels, Belgium</div>"
        }
      }
    }
  ],
  "type": "document",
  "timestamp": "2024-03-25T23:11:04Z"
}
