{
  "resourceType": "Bundle",
  "id": "ac8fa2f2-fce2-4374-bae4-52cdadd33489",
  "meta": {
    "profile": [
      "http://hl7.eu/fhir/laboratory/StructureDefinition/Bundle-eu-lab"
    ]
  },
  "identifier": {
    "assigner": {
      "display": "HL7 Europe"
    },
    "system": "urn:oid:2.16.840.1.113883.2.51.999",
    "value": "379e6c94-2adb-410a-8d0e-6f19bbb4eb09"
  },
  "entry": [
    {
      "fullUrl": "urn:uuid:0e659c88-5c36-4f20-9e73-2e501903074d",
      "resource": {
        "resourceType": "Composition",
        "id": "0e659c88-5c36-4f20-9e73-2e501903074d",
        "meta": {
          "profile": [
            "http://hl7.eu/fhir/laboratory/StructureDefinition/Composition-eu-lab"
          ]
        },
        "identifier": {
          "assigner": {
            "display": "HL7 Europe"
          },
          "system": "urn:oid:2.16.840.1.113883.2.51.999",
          "value": "7ddf3cee-9cab-402b-a1b3-24fb52b2cfb5"
        },
        "author": [
          {
            "reference": "urn:uuid:9a13f85f-f2b4-40f8-a01f-1af85902997b"
          }
        ],
        "category": [
          {
            "coding": [
              {
                "code": "26436-6",
                "system": "http://loinc.org",
                "display": "Laboratory studies (set)"
              }
            ]
          }
        ],
        "type": {
          "coding": [
            {
              "code": "11502-2",
              "system": "http://loinc.org",
              "display": "Laboratory report"
            }
          ],
          "text": "Laboratory Report"
        },
        "section": [
          {
            "code": {
              "coding": [
                {
                  "code": "26436-6",
                  "system": "http://loinc.org",
                  "display": "Laboratory studies (set)"
                }
              ],
              "text": "Laboratory studies"
            },
            "section": [
              {
                "code": {
                  "coding": [
                    {
                      "code": "$18719-5",
                      "system": "http://loinc.org",
                      "display": "Chemistry studies (set)"
                    }
                  ],
                  "text": "Chemistry"
                },
                "entry": [
                  {
                    "reference": "urn:uuid:fde663b4-7dc6-426c-86bc-491126e7da7e"
                  },
                  {
                    "reference": "urn:uuid:cdd60e40-bcdc-4771-a6e9-34fed8b680ef"
                  },
                  {
                    "reference": "urn:uuid:f2e7e821-5735-4d98-a958-4c00ce0b180b"
                  },
                  {
                    "reference": "urn:uuid:ebe0ff52-d1cc-4f20-b18b-06fe327b717b"
                  },
                  {
                    "reference": "urn:uuid:c9735fcc-f243-432a-b49e-c54ad040e5f5"
                  },
                  {
                    "reference": "urn:uuid:63cf5ed7-842f-4004-a456-7d1c05623b00"
                  },
                  {
                    "reference": "urn:uuid:756d74c6-8254-4696-8500-ae0a4059261b"
                  },
                  {
                    "reference": "urn:uuid:2485e12c-0d37-44f4-a3ce-e9c1c4f702f0"
                  },
                  {
                    "reference": "urn:uuid:1fb825bf-28a3-44cb-a661-760525d7d3b8"
                  },
                  {
                    "reference": "urn:uuid:4ba36920-8186-47e2-bca2-3521c68c1f6d"
                  },
                  {
                    "reference": "urn:uuid:624f9beb-b947-4947-8e1c-2b7f1e45b81b"
                  },
                  {
                    "reference": "urn:uuid:f0b4f136-61a4-4f77-b89a-3420529a5763"
                  },
                  {
                    "reference": "urn:uuid:bbfbb859-2f6b-45ab-8947-efe9b1e4b47c"
                  },
                  {
                    "reference": "urn:uuid:f0f16123-2ab3-4f8f-a8e4-6c90ce3b1ab5"
                  },
                  {
                    "reference": "urn:uuid:c6c295c7-05da-4fcd-a27f-92fcf2600a4e"
                  },
                  {
                    "reference": "urn:uuid:b63648bc-f3e0-4a5f-ab53-c3818a861fc1"
                  },
                  {
                    "reference": "urn:uuid:8ccb0d94-085b-435c-9570-4cfe7026fb66"
                  },
                  {
                    "reference": "urn:uuid:cd309877-c78b-4df8-89e9-d604e143f68b"
                  }
                ],
                "text": {
                  "status": "generated",
                  "div": "<div xmlns=\"http://www.w3.org/1999/xhtml\"><h3>Chemistry</h3><table class=\"hl7__eu__lab__report\"><thead><tr><th>Test</th><th>23-APR-2025</th><th>Reference&#xA0;Range</th><th>Unit</th></tr></thead><tbody><tr><td>Glucose [Mass/volume] in Serum or Plasma</td><td>97.2</td><td>70 - 140</td><td>mg/dL</td></tr><tr><td>Urea nitrogen [Mass/volume] in Serum or Plasma</td><td>18.1</td><td>7 - 20</td><td>mg/dL</td></tr><tr><td>Creatinine [Mass/volume] in Serum or Plasma</td><td><strong>2.0 H</strong></td><td>0.9 - 1.3</td><td>mg/dL</td></tr><tr><td>Calcium [Mass/volume] in Serum or Plasma</td><td>9.4</td><td>8.5 - 10.5</td><td>mg/dL</td></tr><tr><td>Sodium [Moles/volume] in Serum or Plasma</td><td>141.2</td><td>135 - 145</td><td>mmol/L</td></tr><tr><td>Potassium [Moles/volume] in Serum or Plasma</td><td>4.3</td><td>3.5 - 5</td><td>mmol/L</td></tr><tr><td>Chloride [Moles/volume] in Serum or Plasma</td><td><strong>110.2 H</strong></td><td>98 - 108</td><td>mmol/L</td></tr><tr><td>Carbon dioxide, total [Moles/volume] in Serum or Plasma</td><td>25.3</td><td>22 - 29</td><td>mmol/L</td></tr><tr><td>Ketones [Presence] in Urine by Test strip</td><td>Urine ketone test = ++</td><td></td><td></td></tr><tr><td>Hemoglobin A1c/Hemoglobin.total in Blood</td><td><strong>3.2 L</strong></td><td>4.3 - 6.4</td><td>%</td></tr><tr><td>Glucose [Mass/volume] in Blood</td><td>97.2</td><td>70 - 140</td><td>mg/dL</td></tr><tr><td>Urea nitrogen [Mass/volume] in Blood</td><td>18.1</td><td>7 - 20</td><td>mg/dL</td></tr><tr><td>Creatinine [Mass/volume] in Blood</td><td><strong>5.2 H</strong></td><td>0.6 - 1.3</td><td>mg/dL</td></tr><tr><td>Calcium [Mass/volume] in Blood</td><td>9.4</td><td>8.5 - 10.5</td><td>mg/dL</td></tr><tr><td>Sodium [Moles/volume] in Blood</td><td>141.2</td><td>135 - 145</td><td>mmol/L</td></tr><tr><td>Potassium [Moles/volume] in Blood</td><td>4.3</td><td>3.5 - 5.3</td><td>mmol/L</td></tr><tr><td>Chloride [Moles/volume] in Blood</td><td><strong>110.2 H</strong></td><td>98 - 110</td><td>mmol/L</td></tr><tr><td>Carbon dioxide, total [Moles/volume] in Blood</td><td>25.3</td><td>22 - 29</td><td>mmol/L</td></tr></tbody></table></div>"
                },
                "title": "Chemistry"
              },
              {
                "code": {
                  "coding": [
                    {
                      "code": "$18729-4",
                      "system": "http://loinc.org",
                      "display": "Urinalysis studies (set)"
                    }
                  ],
                  "text": "Urinalysis"
                },
                "entry": [
                  {
                    "reference": "urn:uuid:201d98a6-291d-4c61-b180-471b6b5d7d7e"
                  },
                  {
                    "reference": "urn:uuid:d223b888-f483-4497-a8e0-dc5597fb845b"
                  },
                  {
                    "reference": "urn:uuid:5f8e3b06-b8dc-4d1d-b41a-638230604117"
                  },
                  {
                    "reference": "urn:uuid:50070710-430e-409d-9051-97dfcd35371d"
                  },
                  {
                    "reference": "urn:uuid:86dc2a39-02cc-4f6b-9c95-ff3eda0a45d8"
                  },
                  {
                    "reference": "urn:uuid:9f014fda-21b4-4931-9a29-d339b57fba1e"
                  },
                  {
                    "reference": "urn:uuid:c626593a-3a97-46ee-91ce-04db33cacd4a"
                  },
                  {
                    "reference": "urn:uuid:e92a54b0-0354-4616-8f62-59292bb18aec"
                  },
                  {
                    "reference": "urn:uuid:2b8a2e4f-3b8f-42a7-bdd7-f75edee9fb0f"
                  },
                  {
                    "reference": "urn:uuid:96d8548a-8ceb-476d-b4ea-b47f428e2c4e"
                  },
                  {
                    "reference": "urn:uuid:16f3eac9-fb66-45f4-94ce-6b7158d282ee"
                  },
                  {
                    "reference": "urn:uuid:6696effd-7aad-4ed5-bc56-9d0db5370a26"
                  }
                ],
                "text": {
                  "status": "generated",
                  "div": "<div xmlns=\"http://www.w3.org/1999/xhtml\"><h3>Urinalysis</h3><table class=\"hl7__eu__lab__report\"><thead><tr><th>Test</th><th>23-APR-2025</th><th>Reference&#xA0;Range</th><th>Unit</th></tr></thead><tbody><tr><td>Glucose [Mass/volume] in Urine by Test strip</td><td>0.6</td><td>0 - 0.8</td><td>mg/dL</td></tr><tr><td>Glucose [Presence] in Urine by Test strip</td><td>++</td><td></td><td></td></tr><tr><td>Bilirubin.total [Mass/volume] in Urine by Test strip</td><td><strong>1.5 H</strong></td><td>0.2 - 1</td><td>mg/dL</td></tr><tr><td>Bilirubin.total [Presence] in Urine by Test strip</td><td>Finding of bilirubin in urine</td><td></td><td></td></tr><tr><td>Ketones [Mass/volume] in Urine by Test strip</td><td><strong>13.7 H</strong></td><td>0 - 5</td><td>mg/dL</td></tr><tr><td>Specific gravity of Urine by Test strip</td><td><strong>1.0 L</strong></td><td>1.005 - 1.03</td><td>{nominal}</td></tr><tr><td>pH of Urine by Test strip</td><td>6.4</td><td>4.6 - 7</td><td>pH</td></tr><tr><td>Protein [Mass/volume] in Urine by Test strip</td><td><strong>398.6 H</strong></td><td>0 - 150</td><td>mg/dL</td></tr><tr><td>Protein [Presence] in Urine by Test strip</td><td>Urine protein test = ++</td><td></td><td></td></tr><tr><td>Nitrite [Presence] in Urine by Test strip</td><td>Urine nitrite negative</td><td></td><td></td></tr><tr><td>Hemoglobin [Presence] in Urine by Test strip</td><td>Urine blood test = negative</td><td></td><td></td></tr><tr><td>Leukocyte esterase [Presence] in Urine by Test strip</td><td>Urine leukocyte test negative</td><td></td><td></td></tr></tbody></table></div>"
                },
                "title": "Urinalysis"
              },
              {
                "code": {
                  "coding": [
                    {
                      "code": "$LP7846-1",
                      "system": "http://loinc.org",
                      "display": "Specimen information"
                    }
                  ],
                  "text": "Specimen information"
                },
                "entry": [
                  {
                    "reference": "urn:uuid:71761f73-559c-483b-ad6d-80b31a978733"
                  },
                  {
                    "reference": "urn:uuid:10721864-6861-4b39-81c9-6bd7153b4439"
                  },
                  {
                    "reference": "urn:uuid:4d81af13-2250-4cba-acdc-7e57e8bc8949"
                  },
                  {
                    "reference": "urn:uuid:d761f9c2-2809-47fc-980a-55c476654fbd"
                  }
                ],
                "text": {
                  "status": "generated",
                  "div": "<div xmlns=\"http://www.w3.org/1999/xhtml\"><h3>Specimen information</h3><table class=\"hl7__eu__lab__report\"><thead><tr><th>Test</th><th>23-APR-2025</th><th>Specimen</th><th></th></tr></thead><tbody><tr><td>Appearance of Urine</td><td>Cloudy urine</td><td>Urine</td><td></td></tr><tr><td>Odor of Urine</td><td>Urine smell ammoniacal</td><td>Urine</td><td></td></tr><tr><td>Clarity of Urine</td><td>Translucent</td><td>Urine</td><td></td></tr><tr><td>Color of Urine</td><td>Brown color</td><td>Urine</td><td></td></tr></tbody></table></div>"
                },
                "title": "Specimen information"
              }
            ],
            "title": "Laboratory Report"
          },
          {
            "text": {
              "status": "generated",
              "div": "<div xmlns=\"http://www.w3.org/1999/xhtml\"><h3>Annotation</h3><table class=\"hl7__eu__lab__report\"><tr><th>Conclusion and Recommendations based on this report and previous findings known to us</th></tr><tr><td>The patient shows significantly elevated creatinine in both serum and blood, indicating impaired renal function, along with high urine protein, ketones, and bilirubin, and low urine specific gravity. Urine is cloudy, brown, and ammoniacal. HbA1c is low, suggesting no chronic hyperglycemia. Findings are consistent with acute or chronic kidney dysfunction, possible nephrotic syndrome, and possible hepatic involvement. Prompt nephrology evaluation is recommended.</td></tr></table></div>"
            },
            "code": {
              "coding": [
                {
                  "system": "http://loinc.org",
                  "code": "48767-8",
                  "display": "Annotation comment"
                }
              ]
            },
            "title": "Annotation comment"
          }
        ],
        "status": "final",
        "subject": {
          "reference": "urn:uuid:d5eac5a3-4cd3-42f0-9c5f-150442ba066e",
          "display": "Θεμιστοκλής Λιναρδάκη"
        },
        "date": "2025-04-23T08:16:00Z",
        "title": "Laboratory Report",
        "confidentiality": "N"
      }
    },
    {
      "fullUrl": "urn:uuid:96bbe385-21db-4bf6-aea7-a8643bbe2930",
      "resource": {
        "resourceType": "DiagnosticReport",
        "id": "96bbe385-21db-4bf6-aea7-a8643bbe2930",
        "meta": {
          "profile": [
            "http://hl7.eu/fhir/laboratory/StructureDefinition/DiagnosticReport-eu-lab"
          ]
        },
        "identifier": [
          {
            "assigner": {
              "display": "HL7 Europe"
            },
            "system": "urn:oid:2.16.840.1.113883.2.51.999",
            "value": "0cc6a598-5b73-4d7e-87af-bda03e39fcb4"
          }
        ],
        "extension": [
          {
            "url": "http://hl7.org/fhir/5.0/StructureDefinition/extension-DiagnosticReport.composition",
            "valueReference": {
              "reference": "urn:uuid:7ddf3cee-9cab-402b-a1b3-24fb52b2cfb5"
            }
          }
        ],
        "category": [
          {
            "coding": [
              {
                "code": "26436-6",
                "system": "http://loinc.org",
                "display": "Laboratory studies (set)"
              }
            ]
          }
        ],
        "specimen": [
          {
            "reference": "urn:uuid:0b10b7bd-b1a0-4e0f-aa5d-e54afc91dcf1"
          },
          {
            "reference": "urn:uuid:b10bba48-bda0-48f2-82a2-c8782cea5b16"
          },
          {
            "reference": "urn:uuid:4ef86b12-7605-47bc-8dec-6d4efd17cc01"
          }
        ],
        "result": [
          {
            "reference": "urn:uuid:fde663b4-7dc6-426c-86bc-491126e7da7e"
          },
          {
            "reference": "urn:uuid:cdd60e40-bcdc-4771-a6e9-34fed8b680ef"
          },
          {
            "reference": "urn:uuid:f2e7e821-5735-4d98-a958-4c00ce0b180b"
          },
          {
            "reference": "urn:uuid:ebe0ff52-d1cc-4f20-b18b-06fe327b717b"
          },
          {
            "reference": "urn:uuid:c9735fcc-f243-432a-b49e-c54ad040e5f5"
          },
          {
            "reference": "urn:uuid:63cf5ed7-842f-4004-a456-7d1c05623b00"
          },
          {
            "reference": "urn:uuid:756d74c6-8254-4696-8500-ae0a4059261b"
          },
          {
            "reference": "urn:uuid:2485e12c-0d37-44f4-a3ce-e9c1c4f702f0"
          },
          {
            "reference": "urn:uuid:71761f73-559c-483b-ad6d-80b31a978733"
          },
          {
            "reference": "urn:uuid:10721864-6861-4b39-81c9-6bd7153b4439"
          },
          {
            "reference": "urn:uuid:4d81af13-2250-4cba-acdc-7e57e8bc8949"
          },
          {
            "reference": "urn:uuid:d761f9c2-2809-47fc-980a-55c476654fbd"
          },
          {
            "reference": "urn:uuid:201d98a6-291d-4c61-b180-471b6b5d7d7e"
          },
          {
            "reference": "urn:uuid:d223b888-f483-4497-a8e0-dc5597fb845b"
          },
          {
            "reference": "urn:uuid:5f8e3b06-b8dc-4d1d-b41a-638230604117"
          },
          {
            "reference": "urn:uuid:50070710-430e-409d-9051-97dfcd35371d"
          },
          {
            "reference": "urn:uuid:86dc2a39-02cc-4f6b-9c95-ff3eda0a45d8"
          },
          {
            "reference": "urn:uuid:1fb825bf-28a3-44cb-a661-760525d7d3b8"
          },
          {
            "reference": "urn:uuid:9f014fda-21b4-4931-9a29-d339b57fba1e"
          },
          {
            "reference": "urn:uuid:c626593a-3a97-46ee-91ce-04db33cacd4a"
          },
          {
            "reference": "urn:uuid:e92a54b0-0354-4616-8f62-59292bb18aec"
          },
          {
            "reference": "urn:uuid:2b8a2e4f-3b8f-42a7-bdd7-f75edee9fb0f"
          },
          {
            "reference": "urn:uuid:96d8548a-8ceb-476d-b4ea-b47f428e2c4e"
          },
          {
            "reference": "urn:uuid:16f3eac9-fb66-45f4-94ce-6b7158d282ee"
          },
          {
            "reference": "urn:uuid:6696effd-7aad-4ed5-bc56-9d0db5370a26"
          },
          {
            "reference": "urn:uuid:4ba36920-8186-47e2-bca2-3521c68c1f6d"
          },
          {
            "reference": "urn:uuid:624f9beb-b947-4947-8e1c-2b7f1e45b81b"
          },
          {
            "reference": "urn:uuid:f0b4f136-61a4-4f77-b89a-3420529a5763"
          },
          {
            "reference": "urn:uuid:bbfbb859-2f6b-45ab-8947-efe9b1e4b47c"
          },
          {
            "reference": "urn:uuid:f0f16123-2ab3-4f8f-a8e4-6c90ce3b1ab5"
          },
          {
            "reference": "urn:uuid:c6c295c7-05da-4fcd-a27f-92fcf2600a4e"
          },
          {
            "reference": "urn:uuid:b63648bc-f3e0-4a5f-ab53-c3818a861fc1"
          },
          {
            "reference": "urn:uuid:8ccb0d94-085b-435c-9570-4cfe7026fb66"
          },
          {
            "reference": "urn:uuid:cd309877-c78b-4df8-89e9-d604e143f68b"
          }
        ],
        "status": "registered",
        "code": {
          "coding": [
            {
              "code": "11502-2",
              "system": "http://loinc.org",
              "display": "Laboratory report"
            }
          ]
        },
        "subject": {
          "reference": "urn:uuid:d5eac5a3-4cd3-42f0-9c5f-150442ba066e",
          "display": "Θεμιστοκλής Λιναρδάκη"
        }
      }
    },
    {
      "fullUrl": "urn:uuid:d5eac5a3-4cd3-42f0-9c5f-150442ba066e",
      "resource": {
        "resourceType": "Patient",
        "id": "d5eac5a3-4cd3-42f0-9c5f-150442ba066e",
        "meta": {
          "security": [
            {
              "system": "http://terminology.hl7.org/CodeSystem/v3-ActReason",
              "code": "HTEST"
            },
            {
              "system": "http://terminology.hl7.org/CodeSystem/v3-ActReason",
              "code": "TRAIN"
            }
          ],
          "tag": [
            {
              "system": "https://synderai.net/fhir/CodeSystem/tags",
              "code": "synthetic",
              "display": "SYNDERAI Synthetic data"
            }
          ],
          "profile": [
            "http://hl7.eu/fhir/base/StructureDefinition/patient-eu-core"
          ]
        },
        "identifier": [
          {
            "type": {
              "coding": [
                {
                  "code": "PT",
                  "system": "http://terminology.hl7.org/CodeSystem/v2-0203"
                }
              ]
            },
            "system": "http://ec.europa.eu/identifier/eci",
            "value": "5962-476889-7"
          },
          {
            "type": {
              "coding": [
                {
                  "code": "MR",
                  "system": "http://terminology.hl7.org/CodeSystem/v2-0203"
                }
              ]
            },
            "system": "http://local.setting.eu/identifier",
            "value": "925e2603-2ef9-6bdf-1330-2ebf526636c4"
          }
        ],
        "name": [
          {
            "family": "Λιναρδάκη"
          },
          {
            "given": [
              "Θεμιστοκλής"
            ]
          },
          {
            "text": "Θεμιστοκλής Λιναρδάκη"
          }
        ],
        "address": [
          {
            "line": [
              "Αμαρύνθου 54-58"
            ],
            "use": "home",
            "type": "physical",
            "postalCode": "262 21",
            "city": "Πάτρα",
            "country": "Greece"
          }
        ],
        "telecom": [
          {
            "system": "phone",
            "value": "+302226364480"
          }
        ],
        "extension": [
          {
            "url": "http://hl7.org/fhir/StructureDefinition/patient-nationality",
            "valueCodeableConcept": {
              "coding": [
                {
                  "code": "GR",
                  "system": "http://hl7.org/fhir/ValueSet/country"
                }
              ]
            }
          }
        ],
        "text": {
          "status": "generated",
          "div": "<div xmlns=\"http://www.w3.org/1999/xhtml\"><table class=\"hl7__ips\"><tr><td>Θεμιστοκλής Λιναρδάκη</td><td>male</td><td>21-Jan-1974</td></tr></table></div>"
        },
        "gender": "male",
        "birthDate": "1974-01-21"
      }
    },
    {
      "fullUrl": "urn:uuid:02748f47-dc8d-4cf1-a496-6a6a89084f36",
      "resource": {
        "resourceType": "ServiceRequest",
        "id": "02748f47-dc8d-4cf1-a496-6a6a89084f36",
        "meta": {
          "profile": [
            "http://hl7.eu/fhir/laboratory/StructureDefinition/ServiceRequest-eu-lab"
          ]
        },
        "identifier": [
          {
            "system": "http://example.org",
            "value": "6091b6c6-f32f-429d-a6c7-91d07bafc42d"
          }
        ],
        "specimen": [
          {
            "reference": "urn:uuid:0b10b7bd-b1a0-4e0f-aa5d-e54afc91dcf1"
          },
          {
            "reference": "urn:uuid:b10bba48-bda0-48f2-82a2-c8782cea5b16"
          },
          {
            "reference": "urn:uuid:4ef86b12-7605-47bc-8dec-6d4efd17cc01"
          }
        ],
        "reasonCode": [
          {
            "coding": [
              {
                "code": "237602007",
                "system": "http://snomed.info/sct",
                "display": "Metabolic syndrome X"
              }
            ]
          },
          {
            "coding": [
              {
                "code": "433144002",
                "system": "http://snomed.info/sct",
                "display": "Chronic kidney disease stage 3"
              }
            ]
          },
          {
            "coding": [
              {
                "code": "157141000119108",
                "system": "http://snomed.info/sct",
                "display": "Proteinuria due to type 2 diabetes mellitus"
              }
            ]
          },
          {
            "coding": [
              {
                "code": "431856006",
                "system": "http://snomed.info/sct",
                "display": "Chronic kidney disease stage 2"
              }
            ]
          },
          {
            "coding": [
              {
                "code": "90781000119102",
                "system": "http://snomed.info/sct",
                "display": "Microalbuminuria due to type 2 diabetes mellitus"
              }
            ]
          },
          {
            "coding": [
              {
                "code": "127013003",
                "system": "http://snomed.info/sct",
                "display": "Disorder of kidney due to diabetes mellitus"
              }
            ]
          },
          {
            "coding": [
              {
                "code": "431855005",
                "system": "http://snomed.info/sct",
                "display": "Chronic kidney disease stage 1"
              }
            ]
          },
          {
            "coding": [
              {
                "code": "59621000",
                "system": "http://snomed.info/sct",
                "display": "Essential hypertension"
              }
            ]
          },
          {
            "coding": [
              {
                "code": "15777000",
                "system": "http://snomed.info/sct",
                "display": "Prediabetes"
              }
            ]
          },
          {
            "coding": [
              {
                "code": "271737000",
                "system": "http://snomed.info/sct",
                "display": "Anemia"
              }
            ]
          }
        ],
        "status": "active",
        "intent": "order",
        "code": {
          "coding": [
            {
              "code": "108252007",
              "system": "http://snomed.info/sct",
              "display": "Laboratory procedure"
            }
          ]
        },
        "subject": {
          "reference": "urn:uuid:d5eac5a3-4cd3-42f0-9c5f-150442ba066e",
          "display": "Θεμιστοκλής Λιναρδάκη"
        },
        "requester": {
          "reference": "urn:uuid:f576c05e-719f-49e6-a1c6-61d2e751eb67"
        }
      }
    },
    {
      "fullUrl": "urn:uuid:f576c05e-719f-49e6-a1c6-61d2e751eb67",
      "resource": {
        "resourceType": "PractitionerRole",
        "id": "f576c05e-719f-49e6-a1c6-61d2e751eb67",
        "meta": {
          "profile": [
            "http://hl7.eu/fhir/base/StructureDefinition/practitionerRole-eu"
          ]
        },
        "text": {
          "status": "generated",
          "div": "<div xmlns=\"http://www.w3.org/1999/xhtml\">Provider Role Id: f576c05e-719f-49e6-a1c6-61d2e751eb67</div>"
        },
        "organization": {
          "reference": "urn:uuid:bef5a66d-3d8f-4421-aff4-758f1e2fb6ba"
        }
      }
    },
    {
      "fullUrl": "urn:uuid:bef5a66d-3d8f-4421-aff4-758f1e2fb6ba",
      "resource": {
        "resourceType": "Organization",
        "id": "bef5a66d-3d8f-4421-aff4-758f1e2fb6ba",
        "meta": {
          "profile": [
            "http://hl7.eu/fhir/base/StructureDefinition/organization-eu"
          ]
        },
        "identifier": [
          {
            "assigner": {
              "display": "HL7 Europe"
            },
            "system": "urn:oid:2.16.840.1.113883.2.51.999",
            "value": "708eaf20-a7c0-47da-abc1-f4cfc493cd16"
          }
        ],
        "address": [
          {
            "line": [
              "211 Odós Filellinon"
            ],
            "city": "Patras",
            "postalCode": "262 21",
            "country": "Greece"
          }
        ],
        "text": {
          "status": "generated",
          "div": "<div xmlns=\"http://www.w3.org/1999/xhtml\">Provider Organization: Dr. Dimitris Economou</div>"
        },
        "name": "Dr. Dimitris Economou"
      }
    },
    {
      "fullUrl": "urn:uuid:0b10b7bd-b1a0-4e0f-aa5d-e54afc91dcf1",
      "resource": {
        "resourceType": "Specimen",
        "id": "0b10b7bd-b1a0-4e0f-aa5d-e54afc91dcf1",
        "meta": {
          "profile": [
            "http://hl7.eu/fhir/laboratory/StructureDefinition/Specimen-eu-lab"
          ]
        },
        "collection": {
          "collectedDateTime": "2025-04-23"
        },
        "text": {
          "status": "generated",
          "div": "<div xmlns=\"http://www.w3.org/1999/xhtml\"><table class=\"hl7__eu__lab__report\"><tr><th>Specimen</th><th>Collection Date</th></tr><tr><td>Acellular blood (serum or plasma) specimen</td><td><span class=\"nb\">23-Apr-2025</span></td></tr></table></div>"
        },
        "type": {
          "coding": [
            {
              "code": "122592007",
              "system": "http://snomed.info/sct",
              "display": "Acellular blood (serum or plasma) specimen"
            }
          ]
        }
      }
    },
    {
      "fullUrl": "urn:uuid:b10bba48-bda0-48f2-82a2-c8782cea5b16",
      "resource": {
        "resourceType": "Specimen",
        "id": "b10bba48-bda0-48f2-82a2-c8782cea5b16",
        "meta": {
          "profile": [
            "http://hl7.eu/fhir/laboratory/StructureDefinition/Specimen-eu-lab"
          ]
        },
        "collection": {
          "collectedDateTime": "2025-04-23"
        },
        "text": {
          "status": "generated",
          "div": "<div xmlns=\"http://www.w3.org/1999/xhtml\"><table class=\"hl7__eu__lab__report\"><tr><th>Specimen</th><th>Collection Date</th></tr><tr><td>Urine specimen</td><td><span class=\"nb\">23-Apr-2025</span></td></tr></table></div>"
        },
        "type": {
          "coding": [
            {
              "code": "122575003",
              "system": "http://snomed.info/sct",
              "display": "Urine specimen"
            }
          ]
        }
      }
    },
    {
      "fullUrl": "urn:uuid:4ef86b12-7605-47bc-8dec-6d4efd17cc01",
      "resource": {
        "resourceType": "Specimen",
        "id": "4ef86b12-7605-47bc-8dec-6d4efd17cc01",
        "meta": {
          "profile": [
            "http://hl7.eu/fhir/laboratory/StructureDefinition/Specimen-eu-lab"
          ]
        },
        "collection": {
          "collectedDateTime": "2025-04-23"
        },
        "text": {
          "status": "generated",
          "div": "<div xmlns=\"http://www.w3.org/1999/xhtml\"><table class=\"hl7__eu__lab__report\"><tr><th>Specimen</th><th>Collection Date</th></tr><tr><td>Whole blood specimen (specimen)</td><td><span class=\"nb\">23-Apr-2025</span></td></tr></table></div>"
        },
        "type": {
          "coding": [
            {
              "code": "258580003",
              "system": "http://snomed.info/sct",
              "display": "Whole blood specimen (specimen)"
            }
          ]
        }
      }
    },
    {
      "fullUrl": "urn:uuid:fde663b4-7dc6-426c-86bc-491126e7da7e",
      "resource": {
        "resourceType": "Observation",
        "id": "fde663b4-7dc6-426c-86bc-491126e7da7e",
        "meta": {
          "profile": [
            "http://hl7.eu/fhir/laboratory/StructureDefinition/Observation-resultslab-eu-lab"
          ]
        },
        "performer": [
          {
            "display": "The Central European Lab"
          }
        ],
        "category": [
          {
            "coding": [
              {
                "system": "http://terminology.hl7.org/CodeSystem/observation-category",
                "code": "laboratory"
              }
            ]
          }
        ],
        "code": {
          "coding": [
            {
              "code": "2345-7",
              "system": "http://loinc.org",
              "display": "Glucose [Mass/volume] in Serum or Plasma"
            }
          ],
          "text": "Glucose [Mass/volume] in Serum or Plasma"
        },
        "valueQuantity": {
          "system": "http://unitsofmeasure.org",
          "value": 97.2,
          "unit": "mg/dL",
          "code": "mg/dL"
        },
        "referenceRange": [
          {
            "low": {
              "value": 70,
              "code": "mg/dL",
              "system": "http://unitsofmeasure.org"
            }
          },
          {
            "high": {
              "value": 140,
              "code": "mg/dL",
              "system": "http://unitsofmeasure.org"
            }
          }
        ],
        "text": {
          "status": "generated",
          "div": "<div xmlns=\"http://www.w3.org/1999/xhtml\"><table class=\"hl7__eu__lab__report\"><tr><th>Test</th><th>23-Apr-2025</th><th>Reference&#xA0;Range</th><th>Unit</th></tr><tr><td>Glucose [Mass/volume] in Serum or Plasma</td><td>97.2</td><td>70 - 140</td><td></td><td>mg/dL</td></tr></table></div>"
        },
        "status": "final",
        "subject": {
          "reference": "urn:uuid:d5eac5a3-4cd3-42f0-9c5f-150442ba066e",
          "display": "Θεμιστοκλής Λιναρδάκη"
        },
        "effectiveDateTime": "2025-04-23T06:16:00Z",
        "specimen": {
          "reference": "urn:uuid:0b10b7bd-b1a0-4e0f-aa5d-e54afc91dcf1"
        }
      }
    },
    {
      "fullUrl": "urn:uuid:cdd60e40-bcdc-4771-a6e9-34fed8b680ef",
      "resource": {
        "resourceType": "Observation",
        "id": "cdd60e40-bcdc-4771-a6e9-34fed8b680ef",
        "meta": {
          "profile": [
            "http://hl7.eu/fhir/laboratory/StructureDefinition/Observation-resultslab-eu-lab"
          ]
        },
        "performer": [
          {
            "display": "The Central European Lab"
          }
        ],
        "category": [
          {
            "coding": [
              {
                "system": "http://terminology.hl7.org/CodeSystem/observation-category",
                "code": "laboratory"
              }
            ]
          }
        ],
        "code": {
          "coding": [
            {
              "code": "3094-0",
              "system": "http://loinc.org",
              "display": "Urea nitrogen [Mass/volume] in Serum or Plasma"
            }
          ],
          "text": "Urea nitrogen [Mass/volume] in Serum or Plasma"
        },
        "valueQuantity": {
          "system": "http://unitsofmeasure.org",
          "value": 18.1,
          "unit": "mg/dL",
          "code": "mg/dL"
        },
        "referenceRange": [
          {
            "low": {
              "value": 7,
              "code": "mg/dL",
              "system": "http://unitsofmeasure.org"
            }
          },
          {
            "high": {
              "value": 20,
              "code": "mg/dL",
              "system": "http://unitsofmeasure.org"
            }
          }
        ],
        "text": {
          "status": "generated",
          "div": "<div xmlns=\"http://www.w3.org/1999/xhtml\"><table class=\"hl7__eu__lab__report\"><tr><th>Test</th><th>23-Apr-2025</th><th>Reference&#xA0;Range</th><th>Unit</th></tr><tr><td>Urea nitrogen [Mass/volume] in Serum or Plasma</td><td>18.1</td><td>7 - 20</td><td></td><td>mg/dL</td></tr></table></div>"
        },
        "status": "final",
        "subject": {
          "reference": "urn:uuid:d5eac5a3-4cd3-42f0-9c5f-150442ba066e",
          "display": "Θεμιστοκλής Λιναρδάκη"
        },
        "effectiveDateTime": "2025-04-23T06:16:00Z",
        "specimen": {
          "reference": "urn:uuid:0b10b7bd-b1a0-4e0f-aa5d-e54afc91dcf1"
        }
      }
    },
    {
      "fullUrl": "urn:uuid:f2e7e821-5735-4d98-a958-4c00ce0b180b",
      "resource": {
        "resourceType": "Observation",
        "id": "f2e7e821-5735-4d98-a958-4c00ce0b180b",
        "meta": {
          "profile": [
            "http://hl7.eu/fhir/laboratory/StructureDefinition/Observation-resultslab-eu-lab"
          ]
        },
        "performer": [
          {
            "display": "The Central European Lab"
          }
        ],
        "category": [
          {
            "coding": [
              {
                "system": "http://terminology.hl7.org/CodeSystem/observation-category",
                "code": "laboratory"
              }
            ]
          }
        ],
        "code": {
          "coding": [
            {
              "code": "2160-0",
              "system": "http://loinc.org",
              "display": "Creatinine [Mass/volume] in Serum or Plasma"
            }
          ],
          "text": "Creatinine [Mass/volume] in Serum or Plasma"
        },
        "valueQuantity": {
          "system": "http://unitsofmeasure.org",
          "value": 2,
          "unit": "mg/dL",
          "code": "mg/dL"
        },
        "referenceRange": [
          {
            "low": {
              "value": 0.9,
              "code": "mg/dL",
              "system": "http://unitsofmeasure.org"
            }
          },
          {
            "high": {
              "value": 1.3,
              "code": "mg/dL",
              "system": "http://unitsofmeasure.org"
            }
          }
        ],
        "interpretation": [
          {
            "coding": [
              {
                "code": "H",
                "system": "http://terminology.hl7.org/CodeSystem/v3-ObservationInterpretation",
                "display": "High"
              }
            ]
          }
        ],
        "text": {
          "status": "generated",
          "div": "<div xmlns=\"http://www.w3.org/1999/xhtml\"><table class=\"hl7__eu__lab__report\"><tr><th>Test</th><th>23-Apr-2025</th><th>Reference&#xA0;Range</th><th>Unit</th></tr><tr><td>Creatinine [Mass/volume] in Serum or Plasma</td><td>2.0</td><td>0.9 - 1.3</td><td>H</td><td>mg/dL</td></tr></table></div>"
        },
        "status": "final",
        "subject": {
          "reference": "urn:uuid:d5eac5a3-4cd3-42f0-9c5f-150442ba066e",
          "display": "Θεμιστοκλής Λιναρδάκη"
        },
        "effectiveDateTime": "2025-04-23T06:16:00Z",
        "specimen": {
          "reference": "urn:uuid:0b10b7bd-b1a0-4e0f-aa5d-e54afc91dcf1"
        }
      }
    },
    {
      "fullUrl": "urn:uuid:ebe0ff52-d1cc-4f20-b18b-06fe327b717b",
      "resource": {
        "resourceType": "Observation",
        "id": "ebe0ff52-d1cc-4f20-b18b-06fe327b717b",
        "meta": {
          "profile": [
            "http://hl7.eu/fhir/laboratory/StructureDefinition/Observation-resultslab-eu-lab"
          ]
        },
        "performer": [
          {
            "display": "The Central European Lab"
          }
        ],
        "category": [
          {
            "coding": [
              {
                "system": "http://terminology.hl7.org/CodeSystem/observation-category",
                "code": "laboratory"
              }
            ]
          }
        ],
        "code": {
          "coding": [
            {
              "code": "17861-6",
              "system": "http://loinc.org",
              "display": "Calcium [Mass/volume] in Serum or Plasma"
            }
          ],
          "text": "Calcium [Mass/volume] in Serum or Plasma"
        },
        "valueQuantity": {
          "system": "http://unitsofmeasure.org",
          "value": 9.4,
          "unit": "mg/dL",
          "code": "mg/dL"
        },
        "referenceRange": [
          {
            "low": {
              "value": 8.5,
              "code": "mg/dL",
              "system": "http://unitsofmeasure.org"
            }
          },
          {
            "high": {
              "value": 10.5,
              "code": "mg/dL",
              "system": "http://unitsofmeasure.org"
            }
          }
        ],
        "text": {
          "status": "generated",
          "div": "<div xmlns=\"http://www.w3.org/1999/xhtml\"><table class=\"hl7__eu__lab__report\"><tr><th>Test</th><th>23-Apr-2025</th><th>Reference&#xA0;Range</th><th>Unit</th></tr><tr><td>Calcium [Mass/volume] in Serum or Plasma</td><td>9.4</td><td>8.5 - 10.5</td><td></td><td>mg/dL</td></tr></table></div>"
        },
        "status": "final",
        "subject": {
          "reference": "urn:uuid:d5eac5a3-4cd3-42f0-9c5f-150442ba066e",
          "display": "Θεμιστοκλής Λιναρδάκη"
        },
        "effectiveDateTime": "2025-04-23T06:16:00Z",
        "specimen": {
          "reference": "urn:uuid:0b10b7bd-b1a0-4e0f-aa5d-e54afc91dcf1"
        }
      }
    },
    {
      "fullUrl": "urn:uuid:c9735fcc-f243-432a-b49e-c54ad040e5f5",
      "resource": {
        "resourceType": "Observation",
        "id": "c9735fcc-f243-432a-b49e-c54ad040e5f5",
        "meta": {
          "profile": [
            "http://hl7.eu/fhir/laboratory/StructureDefinition/Observation-resultslab-eu-lab"
          ]
        },
        "performer": [
          {
            "display": "The Central European Lab"
          }
        ],
        "category": [
          {
            "coding": [
              {
                "system": "http://terminology.hl7.org/CodeSystem/observation-category",
                "code": "laboratory"
              }
            ]
          }
        ],
        "code": {
          "coding": [
            {
              "code": "2951-2",
              "system": "http://loinc.org",
              "display": "Sodium [Moles/volume] in Serum or Plasma"
            }
          ],
          "text": "Sodium [Moles/volume] in Serum or Plasma"
        },
        "valueQuantity": {
          "system": "http://unitsofmeasure.org",
          "value": 141.2,
          "unit": "mmol/L",
          "code": "mmol/L"
        },
        "referenceRange": [
          {
            "low": {
              "value": 135,
              "code": "mmol/L",
              "system": "http://unitsofmeasure.org"
            }
          },
          {
            "high": {
              "value": 145,
              "code": "mmol/L",
              "system": "http://unitsofmeasure.org"
            }
          }
        ],
        "text": {
          "status": "generated",
          "div": "<div xmlns=\"http://www.w3.org/1999/xhtml\"><table class=\"hl7__eu__lab__report\"><tr><th>Test</th><th>23-Apr-2025</th><th>Reference&#xA0;Range</th><th>Unit</th></tr><tr><td>Sodium [Moles/volume] in Serum or Plasma</td><td>141.2</td><td>135 - 145</td><td></td><td>mmol/L</td></tr></table></div>"
        },
        "status": "final",
        "subject": {
          "reference": "urn:uuid:d5eac5a3-4cd3-42f0-9c5f-150442ba066e",
          "display": "Θεμιστοκλής Λιναρδάκη"
        },
        "effectiveDateTime": "2025-04-23T06:16:00Z",
        "specimen": {
          "reference": "urn:uuid:0b10b7bd-b1a0-4e0f-aa5d-e54afc91dcf1"
        }
      }
    },
    {
      "fullUrl": "urn:uuid:63cf5ed7-842f-4004-a456-7d1c05623b00",
      "resource": {
        "resourceType": "Observation",
        "id": "63cf5ed7-842f-4004-a456-7d1c05623b00",
        "meta": {
          "profile": [
            "http://hl7.eu/fhir/laboratory/StructureDefinition/Observation-resultslab-eu-lab"
          ]
        },
        "performer": [
          {
            "display": "The Central European Lab"
          }
        ],
        "category": [
          {
            "coding": [
              {
                "system": "http://terminology.hl7.org/CodeSystem/observation-category",
                "code": "laboratory"
              }
            ]
          }
        ],
        "code": {
          "coding": [
            {
              "code": "2823-3",
              "system": "http://loinc.org",
              "display": "Potassium [Moles/volume] in Serum or Plasma"
            }
          ],
          "text": "Potassium [Moles/volume] in Serum or Plasma"
        },
        "valueQuantity": {
          "system": "http://unitsofmeasure.org",
          "value": 4.3,
          "unit": "mmol/L",
          "code": "mmol/L"
        },
        "referenceRange": [
          {
            "low": {
              "value": 3.5,
              "code": "mmol/L",
              "system": "http://unitsofmeasure.org"
            }
          },
          {
            "high": {
              "value": 5,
              "code": "mmol/L",
              "system": "http://unitsofmeasure.org"
            }
          }
        ],
        "text": {
          "status": "generated",
          "div": "<div xmlns=\"http://www.w3.org/1999/xhtml\"><table class=\"hl7__eu__lab__report\"><tr><th>Test</th><th>23-Apr-2025</th><th>Reference&#xA0;Range</th><th>Unit</th></tr><tr><td>Potassium [Moles/volume] in Serum or Plasma</td><td>4.3</td><td>3.5 - 5</td><td></td><td>mmol/L</td></tr></table></div>"
        },
        "status": "final",
        "subject": {
          "reference": "urn:uuid:d5eac5a3-4cd3-42f0-9c5f-150442ba066e",
          "display": "Θεμιστοκλής Λιναρδάκη"
        },
        "effectiveDateTime": "2025-04-23T06:16:00Z",
        "specimen": {
          "reference": "urn:uuid:0b10b7bd-b1a0-4e0f-aa5d-e54afc91dcf1"
        }
      }
    },
    {
      "fullUrl": "urn:uuid:756d74c6-8254-4696-8500-ae0a4059261b",
      "resource": {
        "resourceType": "Observation",
        "id": "756d74c6-8254-4696-8500-ae0a4059261b",
        "meta": {
          "profile": [
            "http://hl7.eu/fhir/laboratory/StructureDefinition/Observation-resultslab-eu-lab"
          ]
        },
        "performer": [
          {
            "display": "The Central European Lab"
          }
        ],
        "category": [
          {
            "coding": [
              {
                "system": "http://terminology.hl7.org/CodeSystem/observation-category",
                "code": "laboratory"
              }
            ]
          }
        ],
        "code": {
          "coding": [
            {
              "code": "2075-0",
              "system": "http://loinc.org",
              "display": "Chloride [Moles/volume] in Serum or Plasma"
            }
          ],
          "text": "Chloride [Moles/volume] in Serum or Plasma"
        },
        "valueQuantity": {
          "system": "http://unitsofmeasure.org",
          "value": 110.2,
          "unit": "mmol/L",
          "code": "mmol/L"
        },
        "referenceRange": [
          {
            "low": {
              "value": 98,
              "code": "mmol/L",
              "system": "http://unitsofmeasure.org"
            }
          },
          {
            "high": {
              "value": 108,
              "code": "mmol/L",
              "system": "http://unitsofmeasure.org"
            }
          }
        ],
        "interpretation": [
          {
            "coding": [
              {
                "code": "H",
                "system": "http://terminology.hl7.org/CodeSystem/v3-ObservationInterpretation",
                "display": "High"
              }
            ]
          }
        ],
        "text": {
          "status": "generated",
          "div": "<div xmlns=\"http://www.w3.org/1999/xhtml\"><table class=\"hl7__eu__lab__report\"><tr><th>Test</th><th>23-Apr-2025</th><th>Reference&#xA0;Range</th><th>Unit</th></tr><tr><td>Chloride [Moles/volume] in Serum or Plasma</td><td>110.2</td><td>98 - 108</td><td>H</td><td>mmol/L</td></tr></table></div>"
        },
        "status": "final",
        "subject": {
          "reference": "urn:uuid:d5eac5a3-4cd3-42f0-9c5f-150442ba066e",
          "display": "Θεμιστοκλής Λιναρδάκη"
        },
        "effectiveDateTime": "2025-04-23T06:16:00Z",
        "specimen": {
          "reference": "urn:uuid:0b10b7bd-b1a0-4e0f-aa5d-e54afc91dcf1"
        }
      }
    },
    {
      "fullUrl": "urn:uuid:2485e12c-0d37-44f4-a3ce-e9c1c4f702f0",
      "resource": {
        "resourceType": "Observation",
        "id": "2485e12c-0d37-44f4-a3ce-e9c1c4f702f0",
        "meta": {
          "profile": [
            "http://hl7.eu/fhir/laboratory/StructureDefinition/Observation-resultslab-eu-lab"
          ]
        },
        "performer": [
          {
            "display": "The Central European Lab"
          }
        ],
        "category": [
          {
            "coding": [
              {
                "system": "http://terminology.hl7.org/CodeSystem/observation-category",
                "code": "laboratory"
              }
            ]
          }
        ],
        "code": {
          "coding": [
            {
              "code": "2028-9",
              "system": "http://loinc.org",
              "display": "Carbon dioxide, total [Moles/volume] in Serum or Plasma"
            }
          ],
          "text": "Carbon dioxide, total [Moles/volume] in Serum or Plasma"
        },
        "valueQuantity": {
          "system": "http://unitsofmeasure.org",
          "value": 25.3,
          "unit": "mmol/L",
          "code": "mmol/L"
        },
        "referenceRange": [
          {
            "low": {
              "value": 22,
              "code": "mmol/L",
              "system": "http://unitsofmeasure.org"
            }
          },
          {
            "high": {
              "value": 29,
              "code": "mmol/L",
              "system": "http://unitsofmeasure.org"
            }
          }
        ],
        "text": {
          "status": "generated",
          "div": "<div xmlns=\"http://www.w3.org/1999/xhtml\"><table class=\"hl7__eu__lab__report\"><tr><th>Test</th><th>23-Apr-2025</th><th>Reference&#xA0;Range</th><th>Unit</th></tr><tr><td>Carbon dioxide, total [Moles/volume] in Serum or Plasma</td><td>25.3</td><td>22 - 29</td><td></td><td>mmol/L</td></tr></table></div>"
        },
        "status": "final",
        "subject": {
          "reference": "urn:uuid:d5eac5a3-4cd3-42f0-9c5f-150442ba066e",
          "display": "Θεμιστοκλής Λιναρδάκη"
        },
        "effectiveDateTime": "2025-04-23T06:16:00Z",
        "specimen": {
          "reference": "urn:uuid:0b10b7bd-b1a0-4e0f-aa5d-e54afc91dcf1"
        }
      }
    },
    {
      "fullUrl": "urn:uuid:71761f73-559c-483b-ad6d-80b31a978733",
      "resource": {
        "resourceType": "Observation",
        "id": "71761f73-559c-483b-ad6d-80b31a978733",
        "meta": {
          "profile": [
            "http://hl7.eu/fhir/laboratory/StructureDefinition/Observation-resultslab-eu-lab"
          ]
        },
        "performer": [
          {
            "display": "The Central European Lab"
          }
        ],
        "category": [
          {
            "coding": [
              {
                "system": "http://terminology.hl7.org/CodeSystem/observation-category",
                "code": "laboratory"
              }
            ]
          }
        ],
        "code": {
          "coding": [
            {
              "code": "5767-9",
              "system": "http://loinc.org",
              "display": "Appearance of Urine"
            }
          ],
          "text": "Appearance of Urine"
        },
        "text": {
          "status": "generated",
          "div": "<div xmlns=\"http://www.w3.org/1999/xhtml\"><table class=\"hl7__eu__lab__report\"><tr><th>Test</th><th>23-Apr-2025</th><th>Reference&#xA0;Range</th><th>Unit</th></tr><tr><td>Appearance of Urine</td></tr></table></div>"
        },
        "status": "final",
        "subject": {
          "reference": "urn:uuid:d5eac5a3-4cd3-42f0-9c5f-150442ba066e",
          "display": "Θεμιστοκλής Λιναρδάκη"
        },
        "effectiveDateTime": "2025-04-23T06:16:00Z",
        "specimen": {
          "reference": "urn:uuid:b10bba48-bda0-48f2-82a2-c8782cea5b16"
        }
      }
    },
    {
      "fullUrl": "urn:uuid:10721864-6861-4b39-81c9-6bd7153b4439",
      "resource": {
        "resourceType": "Observation",
        "id": "10721864-6861-4b39-81c9-6bd7153b4439",
        "meta": {
          "profile": [
            "http://hl7.eu/fhir/laboratory/StructureDefinition/Observation-resultslab-eu-lab"
          ]
        },
        "performer": [
          {
            "display": "The Central European Lab"
          }
        ],
        "category": [
          {
            "coding": [
              {
                "system": "http://terminology.hl7.org/CodeSystem/observation-category",
                "code": "laboratory"
              }
            ]
          }
        ],
        "code": {
          "coding": [
            {
              "code": "34533-0",
              "system": "http://loinc.org",
              "display": "Odor of Urine"
            }
          ],
          "text": "Odor of Urine"
        },
        "text": {
          "status": "generated",
          "div": "<div xmlns=\"http://www.w3.org/1999/xhtml\"><table class=\"hl7__eu__lab__report\"><tr><th>Test</th><th>23-Apr-2025</th><th>Reference&#xA0;Range</th><th>Unit</th></tr><tr><td>Odor of Urine</td></tr></table></div>"
        },
        "status": "final",
        "subject": {
          "reference": "urn:uuid:d5eac5a3-4cd3-42f0-9c5f-150442ba066e",
          "display": "Θεμιστοκλής Λιναρδάκη"
        },
        "effectiveDateTime": "2025-04-23T06:16:00Z",
        "specimen": {
          "reference": "urn:uuid:b10bba48-bda0-48f2-82a2-c8782cea5b16"
        }
      }
    },
    {
      "fullUrl": "urn:uuid:4d81af13-2250-4cba-acdc-7e57e8bc8949",
      "resource": {
        "resourceType": "Observation",
        "id": "4d81af13-2250-4cba-acdc-7e57e8bc8949",
        "meta": {
          "profile": [
            "http://hl7.eu/fhir/laboratory/StructureDefinition/Observation-resultslab-eu-lab"
          ]
        },
        "performer": [
          {
            "display": "The Central European Lab"
          }
        ],
        "category": [
          {
            "coding": [
              {
                "system": "http://terminology.hl7.org/CodeSystem/observation-category",
                "code": "laboratory"
              }
            ]
          }
        ],
        "code": {
          "coding": [
            {
              "code": "32167-9",
              "system": "http://loinc.org",
              "display": "Clarity of Urine"
            }
          ],
          "text": "Clarity of Urine"
        },
        "text": {
          "status": "generated",
          "div": "<div xmlns=\"http://www.w3.org/1999/xhtml\"><table class=\"hl7__eu__lab__report\"><tr><th>Test</th><th>23-Apr-2025</th><th>Reference&#xA0;Range</th><th>Unit</th></tr><tr><td>Clarity of Urine</td></tr></table></div>"
        },
        "status": "final",
        "subject": {
          "reference": "urn:uuid:d5eac5a3-4cd3-42f0-9c5f-150442ba066e",
          "display": "Θεμιστοκλής Λιναρδάκη"
        },
        "effectiveDateTime": "2025-04-23T06:16:00Z",
        "specimen": {
          "reference": "urn:uuid:b10bba48-bda0-48f2-82a2-c8782cea5b16"
        }
      }
    },
    {
      "fullUrl": "urn:uuid:d761f9c2-2809-47fc-980a-55c476654fbd",
      "resource": {
        "resourceType": "Observation",
        "id": "d761f9c2-2809-47fc-980a-55c476654fbd",
        "meta": {
          "profile": [
            "http://hl7.eu/fhir/laboratory/StructureDefinition/Observation-resultslab-eu-lab"
          ]
        },
        "performer": [
          {
            "display": "The Central European Lab"
          }
        ],
        "category": [
          {
            "coding": [
              {
                "system": "http://terminology.hl7.org/CodeSystem/observation-category",
                "code": "laboratory"
              }
            ]
          }
        ],
        "code": {
          "coding": [
            {
              "code": "5778-6",
              "system": "http://loinc.org",
              "display": "Color of Urine"
            }
          ],
          "text": "Color of Urine"
        },
        "text": {
          "status": "generated",
          "div": "<div xmlns=\"http://www.w3.org/1999/xhtml\"><table class=\"hl7__eu__lab__report\"><tr><th>Test</th><th>23-Apr-2025</th><th>Reference&#xA0;Range</th><th>Unit</th></tr><tr><td>Color of Urine</td></tr></table></div>"
        },
        "status": "final",
        "subject": {
          "reference": "urn:uuid:d5eac5a3-4cd3-42f0-9c5f-150442ba066e",
          "display": "Θεμιστοκλής Λιναρδάκη"
        },
        "effectiveDateTime": "2025-04-23T06:16:00Z",
        "specimen": {
          "reference": "urn:uuid:b10bba48-bda0-48f2-82a2-c8782cea5b16"
        }
      }
    },
    {
      "fullUrl": "urn:uuid:201d98a6-291d-4c61-b180-471b6b5d7d7e",
      "resource": {
        "resourceType": "Observation",
        "id": "201d98a6-291d-4c61-b180-471b6b5d7d7e",
        "meta": {
          "profile": [
            "http://hl7.eu/fhir/laboratory/StructureDefinition/Observation-resultslab-eu-lab"
          ]
        },
        "performer": [
          {
            "display": "The Central European Lab"
          }
        ],
        "category": [
          {
            "coding": [
              {
                "system": "http://terminology.hl7.org/CodeSystem/observation-category",
                "code": "laboratory"
              }
            ]
          }
        ],
        "code": {
          "coding": [
            {
              "code": "5792-7",
              "system": "http://loinc.org",
              "display": "Glucose [Mass/volume] in Urine by Test strip"
            }
          ],
          "text": "Glucose [Mass/volume] in Urine by Test strip"
        },
        "valueQuantity": {
          "system": "http://unitsofmeasure.org",
          "value": 0.6,
          "unit": "mg/dL",
          "code": "mg/dL"
        },
        "referenceRange": [
          {
            "low": {
              "value": 0,
              "code": "mg/dL",
              "system": "http://unitsofmeasure.org"
            }
          },
          {
            "high": {
              "value": 0.8,
              "code": "mg/dL",
              "system": "http://unitsofmeasure.org"
            }
          }
        ],
        "text": {
          "status": "generated",
          "div": "<div xmlns=\"http://www.w3.org/1999/xhtml\"><table class=\"hl7__eu__lab__report\"><tr><th>Test</th><th>23-Apr-2025</th><th>Reference&#xA0;Range</th><th>Unit</th></tr><tr><td>Glucose [Mass/volume] in Urine by Test strip</td><td>0.6</td><td>0 - 0.8</td><td></td><td>mg/dL</td></tr></table></div>"
        },
        "status": "final",
        "subject": {
          "reference": "urn:uuid:d5eac5a3-4cd3-42f0-9c5f-150442ba066e",
          "display": "Θεμιστοκλής Λιναρδάκη"
        },
        "effectiveDateTime": "2025-04-23T06:16:00Z",
        "specimen": {
          "reference": "urn:uuid:b10bba48-bda0-48f2-82a2-c8782cea5b16"
        }
      }
    },
    {
      "fullUrl": "urn:uuid:d223b888-f483-4497-a8e0-dc5597fb845b",
      "resource": {
        "resourceType": "Observation",
        "id": "d223b888-f483-4497-a8e0-dc5597fb845b",
        "meta": {
          "profile": [
            "http://hl7.eu/fhir/laboratory/StructureDefinition/Observation-resultslab-eu-lab"
          ]
        },
        "performer": [
          {
            "display": "The Central European Lab"
          }
        ],
        "category": [
          {
            "coding": [
              {
                "system": "http://terminology.hl7.org/CodeSystem/observation-category",
                "code": "laboratory"
              }
            ]
          }
        ],
        "code": {
          "coding": [
            {
              "code": "25428-4",
              "system": "http://loinc.org",
              "display": "Glucose [Presence] in Urine by Test strip"
            }
          ],
          "text": "Glucose [Presence] in Urine by Test strip"
        },
        "text": {
          "status": "generated",
          "div": "<div xmlns=\"http://www.w3.org/1999/xhtml\"><table class=\"hl7__eu__lab__report\"><tr><th>Test</th><th>23-Apr-2025</th><th>Reference&#xA0;Range</th><th>Unit</th></tr><tr><td>Glucose [Presence] in Urine by Test strip</td></tr></table></div>"
        },
        "status": "final",
        "subject": {
          "reference": "urn:uuid:d5eac5a3-4cd3-42f0-9c5f-150442ba066e",
          "display": "Θεμιστοκλής Λιναρδάκη"
        },
        "effectiveDateTime": "2025-04-23T06:16:00Z",
        "specimen": {
          "reference": "urn:uuid:b10bba48-bda0-48f2-82a2-c8782cea5b16"
        }
      }
    },
    {
      "fullUrl": "urn:uuid:5f8e3b06-b8dc-4d1d-b41a-638230604117",
      "resource": {
        "resourceType": "Observation",
        "id": "5f8e3b06-b8dc-4d1d-b41a-638230604117",
        "meta": {
          "profile": [
            "http://hl7.eu/fhir/laboratory/StructureDefinition/Observation-resultslab-eu-lab"
          ]
        },
        "performer": [
          {
            "display": "The Central European Lab"
          }
        ],
        "category": [
          {
            "coding": [
              {
                "system": "http://terminology.hl7.org/CodeSystem/observation-category",
                "code": "laboratory"
              }
            ]
          }
        ],
        "code": {
          "coding": [
            {
              "code": "20505-4",
              "system": "http://loinc.org",
              "display": "Bilirubin.total [Mass/volume] in Urine by Test strip"
            }
          ],
          "text": "Bilirubin.total [Mass/volume] in Urine by Test strip"
        },
        "valueQuantity": {
          "system": "http://unitsofmeasure.org",
          "value": 1.5,
          "unit": "mg/dL",
          "code": "mg/dL"
        },
        "referenceRange": [
          {
            "low": {
              "value": 0.2,
              "code": "mg/dL",
              "system": "http://unitsofmeasure.org"
            }
          },
          {
            "high": {
              "value": 1,
              "code": "mg/dL",
              "system": "http://unitsofmeasure.org"
            }
          }
        ],
        "interpretation": [
          {
            "coding": [
              {
                "code": "H",
                "system": "http://terminology.hl7.org/CodeSystem/v3-ObservationInterpretation",
                "display": "High"
              }
            ]
          }
        ],
        "text": {
          "status": "generated",
          "div": "<div xmlns=\"http://www.w3.org/1999/xhtml\"><table class=\"hl7__eu__lab__report\"><tr><th>Test</th><th>23-Apr-2025</th><th>Reference&#xA0;Range</th><th>Unit</th></tr><tr><td>Bilirubin.total [Mass/volume] in Urine by Test strip</td><td>1.5</td><td>0.2 - 1</td><td>H</td><td>mg/dL</td></tr></table></div>"
        },
        "status": "final",
        "subject": {
          "reference": "urn:uuid:d5eac5a3-4cd3-42f0-9c5f-150442ba066e",
          "display": "Θεμιστοκλής Λιναρδάκη"
        },
        "effectiveDateTime": "2025-04-23T06:16:00Z",
        "specimen": {
          "reference": "urn:uuid:b10bba48-bda0-48f2-82a2-c8782cea5b16"
        }
      }
    },
    {
      "fullUrl": "urn:uuid:50070710-430e-409d-9051-97dfcd35371d",
      "resource": {
        "resourceType": "Observation",
        "id": "50070710-430e-409d-9051-97dfcd35371d",
        "meta": {
          "profile": [
            "http://hl7.eu/fhir/laboratory/StructureDefinition/Observation-resultslab-eu-lab"
          ]
        },
        "performer": [
          {
            "display": "The Central European Lab"
          }
        ],
        "category": [
          {
            "coding": [
              {
                "system": "http://terminology.hl7.org/CodeSystem/observation-category",
                "code": "laboratory"
              }
            ]
          }
        ],
        "code": {
          "coding": [
            {
              "code": "5770-3",
              "system": "http://loinc.org",
              "display": "Bilirubin.total [Presence] in Urine by Test strip"
            }
          ],
          "text": "Bilirubin.total [Presence] in Urine by Test strip"
        },
        "text": {
          "status": "generated",
          "div": "<div xmlns=\"http://www.w3.org/1999/xhtml\"><table class=\"hl7__eu__lab__report\"><tr><th>Test</th><th>23-Apr-2025</th><th>Reference&#xA0;Range</th><th>Unit</th></tr><tr><td>Bilirubin.total [Presence] in Urine by Test strip</td></tr></table></div>"
        },
        "status": "final",
        "subject": {
          "reference": "urn:uuid:d5eac5a3-4cd3-42f0-9c5f-150442ba066e",
          "display": "Θεμιστοκλής Λιναρδάκη"
        },
        "effectiveDateTime": "2025-04-23T06:16:00Z",
        "specimen": {
          "reference": "urn:uuid:b10bba48-bda0-48f2-82a2-c8782cea5b16"
        }
      }
    },
    {
      "fullUrl": "urn:uuid:86dc2a39-02cc-4f6b-9c95-ff3eda0a45d8",
      "resource": {
        "resourceType": "Observation",
        "id": "86dc2a39-02cc-4f6b-9c95-ff3eda0a45d8",
        "meta": {
          "profile": [
            "http://hl7.eu/fhir/laboratory/StructureDefinition/Observation-resultslab-eu-lab"
          ]
        },
        "performer": [
          {
            "display": "The Central European Lab"
          }
        ],
        "category": [
          {
            "coding": [
              {
                "system": "http://terminology.hl7.org/CodeSystem/observation-category",
                "code": "laboratory"
              }
            ]
          }
        ],
        "code": {
          "coding": [
            {
              "code": "5797-6",
              "system": "http://loinc.org",
              "display": "Ketones [Mass/volume] in Urine by Test strip"
            }
          ],
          "text": "Ketones [Mass/volume] in Urine by Test strip"
        },
        "valueQuantity": {
          "system": "http://unitsofmeasure.org",
          "value": 13.7,
          "unit": "mg/dL",
          "code": "mg/dL"
        },
        "referenceRange": [
          {
            "low": {
              "value": 0,
              "code": "mg/dL",
              "system": "http://unitsofmeasure.org"
            }
          },
          {
            "high": {
              "value": 5,
              "code": "mg/dL",
              "system": "http://unitsofmeasure.org"
            }
          }
        ],
        "interpretation": [
          {
            "coding": [
              {
                "code": "H",
                "system": "http://terminology.hl7.org/CodeSystem/v3-ObservationInterpretation",
                "display": "High"
              }
            ]
          }
        ],
        "text": {
          "status": "generated",
          "div": "<div xmlns=\"http://www.w3.org/1999/xhtml\"><table class=\"hl7__eu__lab__report\"><tr><th>Test</th><th>23-Apr-2025</th><th>Reference&#xA0;Range</th><th>Unit</th></tr><tr><td>Ketones [Mass/volume] in Urine by Test strip</td><td>13.7</td><td>0 - 5</td><td>H</td><td>mg/dL</td></tr></table></div>"
        },
        "status": "final",
        "subject": {
          "reference": "urn:uuid:d5eac5a3-4cd3-42f0-9c5f-150442ba066e",
          "display": "Θεμιστοκλής Λιναρδάκη"
        },
        "effectiveDateTime": "2025-04-23T06:16:00Z",
        "specimen": {
          "reference": "urn:uuid:b10bba48-bda0-48f2-82a2-c8782cea5b16"
        }
      }
    },
    {
      "fullUrl": "urn:uuid:1fb825bf-28a3-44cb-a661-760525d7d3b8",
      "resource": {
        "resourceType": "Observation",
        "id": "1fb825bf-28a3-44cb-a661-760525d7d3b8",
        "meta": {
          "profile": [
            "http://hl7.eu/fhir/laboratory/StructureDefinition/Observation-resultslab-eu-lab"
          ]
        },
        "performer": [
          {
            "display": "The Central European Lab"
          }
        ],
        "category": [
          {
            "coding": [
              {
                "system": "http://terminology.hl7.org/CodeSystem/observation-category",
                "code": "laboratory"
              }
            ]
          }
        ],
        "code": {
          "coding": [
            {
              "code": "2514-8",
              "system": "http://loinc.org",
              "display": "Ketones [Presence] in Urine by Test strip"
            }
          ],
          "text": "Ketones [Presence] in Urine by Test strip"
        },
        "text": {
          "status": "generated",
          "div": "<div xmlns=\"http://www.w3.org/1999/xhtml\"><table class=\"hl7__eu__lab__report\"><tr><th>Test</th><th>23-Apr-2025</th><th>Reference&#xA0;Range</th><th>Unit</th></tr><tr><td>Ketones [Presence] in Urine by Test strip</td></tr></table></div>"
        },
        "status": "final",
        "subject": {
          "reference": "urn:uuid:d5eac5a3-4cd3-42f0-9c5f-150442ba066e",
          "display": "Θεμιστοκλής Λιναρδάκη"
        },
        "effectiveDateTime": "2025-04-23T06:16:00Z",
        "specimen": {
          "reference": "urn:uuid:b10bba48-bda0-48f2-82a2-c8782cea5b16"
        }
      }
    },
    {
      "fullUrl": "urn:uuid:9f014fda-21b4-4931-9a29-d339b57fba1e",
      "resource": {
        "resourceType": "Observation",
        "id": "9f014fda-21b4-4931-9a29-d339b57fba1e",
        "meta": {
          "profile": [
            "http://hl7.eu/fhir/laboratory/StructureDefinition/Observation-resultslab-eu-lab"
          ]
        },
        "performer": [
          {
            "display": "The Central European Lab"
          }
        ],
        "category": [
          {
            "coding": [
              {
                "system": "http://terminology.hl7.org/CodeSystem/observation-category",
                "code": "laboratory"
              }
            ]
          }
        ],
        "code": {
          "coding": [
            {
              "code": "5811-5",
              "system": "http://loinc.org",
              "display": "Specific gravity of Urine by Test strip"
            }
          ],
          "text": "Specific gravity of Urine by Test strip"
        },
        "valueQuantity": {
          "system": "http://unitsofmeasure.org",
          "value": 1,
          "unit": "{nominal}",
          "code": "{nominal}"
        },
        "referenceRange": [
          {
            "low": {
              "value": 1.005,
              "code": "g/mL",
              "system": "http://unitsofmeasure.org"
            }
          },
          {
            "high": {
              "value": 1.03,
              "code": "g/mL",
              "system": "http://unitsofmeasure.org"
            }
          }
        ],
        "interpretation": [
          {
            "coding": [
              {
                "code": "L",
                "system": "http://terminology.hl7.org/CodeSystem/v3-ObservationInterpretation",
                "display": "Low"
              }
            ]
          }
        ],
        "text": {
          "status": "generated",
          "div": "<div xmlns=\"http://www.w3.org/1999/xhtml\"><table class=\"hl7__eu__lab__report\"><tr><th>Test</th><th>23-Apr-2025</th><th>Reference&#xA0;Range</th><th>Unit</th></tr><tr><td>Specific gravity of Urine by Test strip</td><td>1.0</td><td>1.005 - 1.03</td><td>L</td><td>{nominal}</td></tr></table></div>"
        },
        "status": "final",
        "subject": {
          "reference": "urn:uuid:d5eac5a3-4cd3-42f0-9c5f-150442ba066e",
          "display": "Θεμιστοκλής Λιναρδάκη"
        },
        "effectiveDateTime": "2025-04-23T06:16:00Z",
        "specimen": {
          "reference": "urn:uuid:b10bba48-bda0-48f2-82a2-c8782cea5b16"
        }
      }
    },
    {
      "fullUrl": "urn:uuid:c626593a-3a97-46ee-91ce-04db33cacd4a",
      "resource": {
        "resourceType": "Observation",
        "id": "c626593a-3a97-46ee-91ce-04db33cacd4a",
        "meta": {
          "profile": [
            "http://hl7.eu/fhir/laboratory/StructureDefinition/Observation-resultslab-eu-lab"
          ]
        },
        "performer": [
          {
            "display": "The Central European Lab"
          }
        ],
        "category": [
          {
            "coding": [
              {
                "system": "http://terminology.hl7.org/CodeSystem/observation-category",
                "code": "laboratory"
              }
            ]
          }
        ],
        "code": {
          "coding": [
            {
              "code": "5803-2",
              "system": "http://loinc.org",
              "display": "pH of Urine by Test strip"
            }
          ],
          "text": "pH of Urine by Test strip"
        },
        "valueQuantity": {
          "system": "http://unitsofmeasure.org",
          "value": 6.4,
          "unit": "pH",
          "code": "pH"
        },
        "referenceRange": [
          {
            "low": {
              "value": 4.6,
              "code": "pH",
              "system": "http://unitsofmeasure.org"
            }
          },
          {
            "high": {
              "value": 7,
              "code": "pH",
              "system": "http://unitsofmeasure.org"
            }
          }
        ],
        "text": {
          "status": "generated",
          "div": "<div xmlns=\"http://www.w3.org/1999/xhtml\"><table class=\"hl7__eu__lab__report\"><tr><th>Test</th><th>23-Apr-2025</th><th>Reference&#xA0;Range</th><th>Unit</th></tr><tr><td>pH of Urine by Test strip</td><td>6.4</td><td>4.6 - 7</td><td></td><td>pH</td></tr></table></div>"
        },
        "status": "final",
        "subject": {
          "reference": "urn:uuid:d5eac5a3-4cd3-42f0-9c5f-150442ba066e",
          "display": "Θεμιστοκλής Λιναρδάκη"
        },
        "effectiveDateTime": "2025-04-23T06:16:00Z",
        "specimen": {
          "reference": "urn:uuid:b10bba48-bda0-48f2-82a2-c8782cea5b16"
        }
      }
    },
    {
      "fullUrl": "urn:uuid:e92a54b0-0354-4616-8f62-59292bb18aec",
      "resource": {
        "resourceType": "Observation",
        "id": "e92a54b0-0354-4616-8f62-59292bb18aec",
        "meta": {
          "profile": [
            "http://hl7.eu/fhir/laboratory/StructureDefinition/Observation-resultslab-eu-lab"
          ]
        },
        "performer": [
          {
            "display": "The Central European Lab"
          }
        ],
        "category": [
          {
            "coding": [
              {
                "system": "http://terminology.hl7.org/CodeSystem/observation-category",
                "code": "laboratory"
              }
            ]
          }
        ],
        "code": {
          "coding": [
            {
              "code": "5804-0",
              "system": "http://loinc.org",
              "display": "Protein [Mass/volume] in Urine by Test strip"
            }
          ],
          "text": "Protein [Mass/volume] in Urine by Test strip"
        },
        "valueQuantity": {
          "system": "http://unitsofmeasure.org",
          "value": 398.6,
          "unit": "mg/dL",
          "code": "mg/dL"
        },
        "referenceRange": [
          {
            "low": {
              "value": 0,
              "code": "mg/dL",
              "system": "http://unitsofmeasure.org"
            }
          },
          {
            "high": {
              "value": 150,
              "code": "mg/dL",
              "system": "http://unitsofmeasure.org"
            }
          }
        ],
        "interpretation": [
          {
            "coding": [
              {
                "code": "H",
                "system": "http://terminology.hl7.org/CodeSystem/v3-ObservationInterpretation",
                "display": "High"
              }
            ]
          }
        ],
        "text": {
          "status": "generated",
          "div": "<div xmlns=\"http://www.w3.org/1999/xhtml\"><table class=\"hl7__eu__lab__report\"><tr><th>Test</th><th>23-Apr-2025</th><th>Reference&#xA0;Range</th><th>Unit</th></tr><tr><td>Protein [Mass/volume] in Urine by Test strip</td><td>398.6</td><td>0 - 150</td><td>H</td><td>mg/dL</td></tr></table></div>"
        },
        "status": "final",
        "subject": {
          "reference": "urn:uuid:d5eac5a3-4cd3-42f0-9c5f-150442ba066e",
          "display": "Θεμιστοκλής Λιναρδάκη"
        },
        "effectiveDateTime": "2025-04-23T06:16:00Z",
        "specimen": {
          "reference": "urn:uuid:b10bba48-bda0-48f2-82a2-c8782cea5b16"
        }
      }
    },
    {
      "fullUrl": "urn:uuid:2b8a2e4f-3b8f-42a7-bdd7-f75edee9fb0f",
      "resource": {
        "resourceType": "Observation",
        "id": "2b8a2e4f-3b8f-42a7-bdd7-f75edee9fb0f",
        "meta": {
          "profile": [
            "http://hl7.eu/fhir/laboratory/StructureDefinition/Observation-resultslab-eu-lab"
          ]
        },
        "performer": [
          {
            "display": "The Central European Lab"
          }
        ],
        "category": [
          {
            "coding": [
              {
                "system": "http://terminology.hl7.org/CodeSystem/observation-category",
                "code": "laboratory"
              }
            ]
          }
        ],
        "code": {
          "coding": [
            {
              "code": "20454-5",
              "system": "http://loinc.org",
              "display": "Protein [Presence] in Urine by Test strip"
            }
          ],
          "text": "Protein [Presence] in Urine by Test strip"
        },
        "text": {
          "status": "generated",
          "div": "<div xmlns=\"http://www.w3.org/1999/xhtml\"><table class=\"hl7__eu__lab__report\"><tr><th>Test</th><th>23-Apr-2025</th><th>Reference&#xA0;Range</th><th>Unit</th></tr><tr><td>Protein [Presence] in Urine by Test strip</td></tr></table></div>"
        },
        "status": "final",
        "subject": {
          "reference": "urn:uuid:d5eac5a3-4cd3-42f0-9c5f-150442ba066e",
          "display": "Θεμιστοκλής Λιναρδάκη"
        },
        "effectiveDateTime": "2025-04-23T06:16:00Z",
        "specimen": {
          "reference": "urn:uuid:b10bba48-bda0-48f2-82a2-c8782cea5b16"
        }
      }
    },
    {
      "fullUrl": "urn:uuid:96d8548a-8ceb-476d-b4ea-b47f428e2c4e",
      "resource": {
        "resourceType": "Observation",
        "id": "96d8548a-8ceb-476d-b4ea-b47f428e2c4e",
        "meta": {
          "profile": [
            "http://hl7.eu/fhir/laboratory/StructureDefinition/Observation-resultslab-eu-lab"
          ]
        },
        "performer": [
          {
            "display": "The Central European Lab"
          }
        ],
        "category": [
          {
            "coding": [
              {
                "system": "http://terminology.hl7.org/CodeSystem/observation-category",
                "code": "laboratory"
              }
            ]
          }
        ],
        "code": {
          "coding": [
            {
              "code": "5802-4",
              "system": "http://loinc.org",
              "display": "Nitrite [Presence] in Urine by Test strip"
            }
          ],
          "text": "Nitrite [Presence] in Urine by Test strip"
        },
        "text": {
          "status": "generated",
          "div": "<div xmlns=\"http://www.w3.org/1999/xhtml\"><table class=\"hl7__eu__lab__report\"><tr><th>Test</th><th>23-Apr-2025</th><th>Reference&#xA0;Range</th><th>Unit</th></tr><tr><td>Nitrite [Presence] in Urine by Test strip</td></tr></table></div>"
        },
        "status": "final",
        "subject": {
          "reference": "urn:uuid:d5eac5a3-4cd3-42f0-9c5f-150442ba066e",
          "display": "Θεμιστοκλής Λιναρδάκη"
        },
        "effectiveDateTime": "2025-04-23T06:16:00Z",
        "specimen": {
          "reference": "urn:uuid:b10bba48-bda0-48f2-82a2-c8782cea5b16"
        }
      }
    },
    {
      "fullUrl": "urn:uuid:16f3eac9-fb66-45f4-94ce-6b7158d282ee",
      "resource": {
        "resourceType": "Observation",
        "id": "16f3eac9-fb66-45f4-94ce-6b7158d282ee",
        "meta": {
          "profile": [
            "http://hl7.eu/fhir/laboratory/StructureDefinition/Observation-resultslab-eu-lab"
          ]
        },
        "performer": [
          {
            "display": "The Central European Lab"
          }
        ],
        "category": [
          {
            "coding": [
              {
                "system": "http://terminology.hl7.org/CodeSystem/observation-category",
                "code": "laboratory"
              }
            ]
          }
        ],
        "code": {
          "coding": [
            {
              "code": "5794-3",
              "system": "http://loinc.org",
              "display": "Hemoglobin [Presence] in Urine by Test strip"
            }
          ],
          "text": "Hemoglobin [Presence] in Urine by Test strip"
        },
        "text": {
          "status": "generated",
          "div": "<div xmlns=\"http://www.w3.org/1999/xhtml\"><table class=\"hl7__eu__lab__report\"><tr><th>Test</th><th>23-Apr-2025</th><th>Reference&#xA0;Range</th><th>Unit</th></tr><tr><td>Hemoglobin [Presence] in Urine by Test strip</td></tr></table></div>"
        },
        "status": "final",
        "subject": {
          "reference": "urn:uuid:d5eac5a3-4cd3-42f0-9c5f-150442ba066e",
          "display": "Θεμιστοκλής Λιναρδάκη"
        },
        "effectiveDateTime": "2025-04-23T06:16:00Z",
        "specimen": {
          "reference": "urn:uuid:b10bba48-bda0-48f2-82a2-c8782cea5b16"
        }
      }
    },
    {
      "fullUrl": "urn:uuid:6696effd-7aad-4ed5-bc56-9d0db5370a26",
      "resource": {
        "resourceType": "Observation",
        "id": "6696effd-7aad-4ed5-bc56-9d0db5370a26",
        "meta": {
          "profile": [
            "http://hl7.eu/fhir/laboratory/StructureDefinition/Observation-resultslab-eu-lab"
          ]
        },
        "performer": [
          {
            "display": "The Central European Lab"
          }
        ],
        "category": [
          {
            "coding": [
              {
                "system": "http://terminology.hl7.org/CodeSystem/observation-category",
                "code": "laboratory"
              }
            ]
          }
        ],
        "code": {
          "coding": [
            {
              "code": "5799-2",
              "system": "http://loinc.org",
              "display": "Leukocyte esterase [Presence] in Urine by Test strip"
            }
          ],
          "text": "Leukocyte esterase [Presence] in Urine by Test strip"
        },
        "text": {
          "status": "generated",
          "div": "<div xmlns=\"http://www.w3.org/1999/xhtml\"><table class=\"hl7__eu__lab__report\"><tr><th>Test</th><th>23-Apr-2025</th><th>Reference&#xA0;Range</th><th>Unit</th></tr><tr><td>Leukocyte esterase [Presence] in Urine by Test strip</td></tr></table></div>"
        },
        "status": "final",
        "subject": {
          "reference": "urn:uuid:d5eac5a3-4cd3-42f0-9c5f-150442ba066e",
          "display": "Θεμιστοκλής Λιναρδάκη"
        },
        "effectiveDateTime": "2025-04-23T06:16:00Z",
        "specimen": {
          "reference": "urn:uuid:b10bba48-bda0-48f2-82a2-c8782cea5b16"
        }
      }
    },
    {
      "fullUrl": "urn:uuid:4ba36920-8186-47e2-bca2-3521c68c1f6d",
      "resource": {
        "resourceType": "Observation",
        "id": "4ba36920-8186-47e2-bca2-3521c68c1f6d",
        "meta": {
          "profile": [
            "http://hl7.eu/fhir/laboratory/StructureDefinition/Observation-resultslab-eu-lab"
          ]
        },
        "performer": [
          {
            "display": "The Central European Lab"
          }
        ],
        "category": [
          {
            "coding": [
              {
                "system": "http://terminology.hl7.org/CodeSystem/observation-category",
                "code": "laboratory"
              }
            ]
          }
        ],
        "code": {
          "coding": [
            {
              "code": "4548-4",
              "system": "http://loinc.org",
              "display": "Hemoglobin A1c/Hemoglobin.total in Blood"
            }
          ],
          "text": "Hemoglobin A1c/Hemoglobin.total in Blood"
        },
        "valueQuantity": {
          "system": "http://unitsofmeasure.org",
          "value": 3.2,
          "unit": "%",
          "code": "%"
        },
        "referenceRange": [
          {
            "low": {
              "value": 4.3,
              "code": "%",
              "system": "http://unitsofmeasure.org"
            }
          },
          {
            "high": {
              "value": 6.4,
              "code": "%",
              "system": "http://unitsofmeasure.org"
            }
          }
        ],
        "interpretation": [
          {
            "coding": [
              {
                "code": "L",
                "system": "http://terminology.hl7.org/CodeSystem/v3-ObservationInterpretation",
                "display": "Low"
              }
            ]
          }
        ],
        "text": {
          "status": "generated",
          "div": "<div xmlns=\"http://www.w3.org/1999/xhtml\"><table class=\"hl7__eu__lab__report\"><tr><th>Test</th><th>23-Apr-2025</th><th>Reference&#xA0;Range</th><th>Unit</th></tr><tr><td>Hemoglobin A1c/Hemoglobin.total in Blood</td><td>3.2</td><td>4.3 - 6.4</td><td>L</td><td>%</td></tr></table></div>"
        },
        "status": "final",
        "subject": {
          "reference": "urn:uuid:d5eac5a3-4cd3-42f0-9c5f-150442ba066e",
          "display": "Θεμιστοκλής Λιναρδάκη"
        },
        "effectiveDateTime": "2025-04-23T06:16:00Z",
        "specimen": {
          "reference": "urn:uuid:4ef86b12-7605-47bc-8dec-6d4efd17cc01"
        }
      }
    },
    {
      "fullUrl": "urn:uuid:624f9beb-b947-4947-8e1c-2b7f1e45b81b",
      "resource": {
        "resourceType": "Observation",
        "id": "624f9beb-b947-4947-8e1c-2b7f1e45b81b",
        "meta": {
          "profile": [
            "http://hl7.eu/fhir/laboratory/StructureDefinition/Observation-resultslab-eu-lab"
          ]
        },
        "performer": [
          {
            "display": "The Central European Lab"
          }
        ],
        "category": [
          {
            "coding": [
              {
                "system": "http://terminology.hl7.org/CodeSystem/observation-category",
                "code": "laboratory"
              }
            ]
          }
        ],
        "code": {
          "coding": [
            {
              "code": "2339-0",
              "system": "http://loinc.org",
              "display": "Glucose [Mass/volume] in Blood"
            }
          ],
          "text": "Glucose [Mass/volume] in Blood"
        },
        "valueQuantity": {
          "system": "http://unitsofmeasure.org",
          "value": 97.2,
          "unit": "mg/dL",
          "code": "mg/dL"
        },
        "referenceRange": [
          {
            "low": {
              "value": 70,
              "code": "mg/dL",
              "system": "http://unitsofmeasure.org"
            }
          },
          {
            "high": {
              "value": 140,
              "code": "mg/dL",
              "system": "http://unitsofmeasure.org"
            }
          }
        ],
        "text": {
          "status": "generated",
          "div": "<div xmlns=\"http://www.w3.org/1999/xhtml\"><table class=\"hl7__eu__lab__report\"><tr><th>Test</th><th>23-Apr-2025</th><th>Reference&#xA0;Range</th><th>Unit</th></tr><tr><td>Glucose [Mass/volume] in Blood</td><td>97.2</td><td>70 - 140</td><td></td><td>mg/dL</td></tr></table></div>"
        },
        "status": "final",
        "subject": {
          "reference": "urn:uuid:d5eac5a3-4cd3-42f0-9c5f-150442ba066e",
          "display": "Θεμιστοκλής Λιναρδάκη"
        },
        "effectiveDateTime": "2025-04-23T06:16:00Z",
        "specimen": {
          "reference": "urn:uuid:4ef86b12-7605-47bc-8dec-6d4efd17cc01"
        }
      }
    },
    {
      "fullUrl": "urn:uuid:f0b4f136-61a4-4f77-b89a-3420529a5763",
      "resource": {
        "resourceType": "Observation",
        "id": "f0b4f136-61a4-4f77-b89a-3420529a5763",
        "meta": {
          "profile": [
            "http://hl7.eu/fhir/laboratory/StructureDefinition/Observation-resultslab-eu-lab"
          ]
        },
        "performer": [
          {
            "display": "The Central European Lab"
          }
        ],
        "category": [
          {
            "coding": [
              {
                "system": "http://terminology.hl7.org/CodeSystem/observation-category",
                "code": "laboratory"
              }
            ]
          }
        ],
        "code": {
          "coding": [
            {
              "code": "6299-2",
              "system": "http://loinc.org",
              "display": "Urea nitrogen [Mass/volume] in Blood"
            }
          ],
          "text": "Urea nitrogen [Mass/volume] in Blood"
        },
        "valueQuantity": {
          "system": "http://unitsofmeasure.org",
          "value": 18.1,
          "unit": "mg/dL",
          "code": "mg/dL"
        },
        "referenceRange": [
          {
            "low": {
              "value": 7,
              "code": "mg/dL",
              "system": "http://unitsofmeasure.org"
            }
          },
          {
            "high": {
              "value": 20,
              "code": "mg/dL",
              "system": "http://unitsofmeasure.org"
            }
          }
        ],
        "text": {
          "status": "generated",
          "div": "<div xmlns=\"http://www.w3.org/1999/xhtml\"><table class=\"hl7__eu__lab__report\"><tr><th>Test</th><th>23-Apr-2025</th><th>Reference&#xA0;Range</th><th>Unit</th></tr><tr><td>Urea nitrogen [Mass/volume] in Blood</td><td>18.1</td><td>7 - 20</td><td></td><td>mg/dL</td></tr></table></div>"
        },
        "status": "final",
        "subject": {
          "reference": "urn:uuid:d5eac5a3-4cd3-42f0-9c5f-150442ba066e",
          "display": "Θεμιστοκλής Λιναρδάκη"
        },
        "effectiveDateTime": "2025-04-23T06:16:00Z",
        "specimen": {
          "reference": "urn:uuid:4ef86b12-7605-47bc-8dec-6d4efd17cc01"
        }
      }
    },
    {
      "fullUrl": "urn:uuid:bbfbb859-2f6b-45ab-8947-efe9b1e4b47c",
      "resource": {
        "resourceType": "Observation",
        "id": "bbfbb859-2f6b-45ab-8947-efe9b1e4b47c",
        "meta": {
          "profile": [
            "http://hl7.eu/fhir/laboratory/StructureDefinition/Observation-resultslab-eu-lab"
          ]
        },
        "performer": [
          {
            "display": "The Central European Lab"
          }
        ],
        "category": [
          {
            "coding": [
              {
                "system": "http://terminology.hl7.org/CodeSystem/observation-category",
                "code": "laboratory"
              }
            ]
          }
        ],
        "code": {
          "coding": [
            {
              "code": "38483-4",
              "system": "http://loinc.org",
              "display": "Creatinine [Mass/volume] in Blood"
            }
          ],
          "text": "Creatinine [Mass/volume] in Blood"
        },
        "valueQuantity": {
          "system": "http://unitsofmeasure.org",
          "value": 5.2,
          "unit": "mg/dL",
          "code": "mg/dL"
        },
        "referenceRange": [
          {
            "low": {
              "value": 0.6,
              "code": "mg/dL",
              "system": "http://unitsofmeasure.org"
            }
          },
          {
            "high": {
              "value": 1.3,
              "code": "mg/dL",
              "system": "http://unitsofmeasure.org"
            }
          }
        ],
        "interpretation": [
          {
            "coding": [
              {
                "code": "H",
                "system": "http://terminology.hl7.org/CodeSystem/v3-ObservationInterpretation",
                "display": "High"
              }
            ]
          }
        ],
        "text": {
          "status": "generated",
          "div": "<div xmlns=\"http://www.w3.org/1999/xhtml\"><table class=\"hl7__eu__lab__report\"><tr><th>Test</th><th>23-Apr-2025</th><th>Reference&#xA0;Range</th><th>Unit</th></tr><tr><td>Creatinine [Mass/volume] in Blood</td><td>5.2</td><td>0.6 - 1.3</td><td>H</td><td>mg/dL</td></tr></table></div>"
        },
        "status": "final",
        "subject": {
          "reference": "urn:uuid:d5eac5a3-4cd3-42f0-9c5f-150442ba066e",
          "display": "Θεμιστοκλής Λιναρδάκη"
        },
        "effectiveDateTime": "2025-04-23T06:16:00Z",
        "specimen": {
          "reference": "urn:uuid:4ef86b12-7605-47bc-8dec-6d4efd17cc01"
        }
      }
    },
    {
      "fullUrl": "urn:uuid:f0f16123-2ab3-4f8f-a8e4-6c90ce3b1ab5",
      "resource": {
        "resourceType": "Observation",
        "id": "f0f16123-2ab3-4f8f-a8e4-6c90ce3b1ab5",
        "meta": {
          "profile": [
            "http://hl7.eu/fhir/laboratory/StructureDefinition/Observation-resultslab-eu-lab"
          ]
        },
        "performer": [
          {
            "display": "The Central European Lab"
          }
        ],
        "category": [
          {
            "coding": [
              {
                "system": "http://terminology.hl7.org/CodeSystem/observation-category",
                "code": "laboratory"
              }
            ]
          }
        ],
        "code": {
          "coding": [
            {
              "code": "49765-1",
              "system": "http://loinc.org",
              "display": "Calcium [Mass/volume] in Blood"
            }
          ],
          "text": "Calcium [Mass/volume] in Blood"
        },
        "valueQuantity": {
          "system": "http://unitsofmeasure.org",
          "value": 9.4,
          "unit": "mg/dL",
          "code": "mg/dL"
        },
        "referenceRange": [
          {
            "low": {
              "value": 8.5,
              "code": "mg/dL",
              "system": "http://unitsofmeasure.org"
            }
          },
          {
            "high": {
              "value": 10.5,
              "code": "mg/dL",
              "system": "http://unitsofmeasure.org"
            }
          }
        ],
        "text": {
          "status": "generated",
          "div": "<div xmlns=\"http://www.w3.org/1999/xhtml\"><table class=\"hl7__eu__lab__report\"><tr><th>Test</th><th>23-Apr-2025</th><th>Reference&#xA0;Range</th><th>Unit</th></tr><tr><td>Calcium [Mass/volume] in Blood</td><td>9.4</td><td>8.5 - 10.5</td><td></td><td>mg/dL</td></tr></table></div>"
        },
        "status": "final",
        "subject": {
          "reference": "urn:uuid:d5eac5a3-4cd3-42f0-9c5f-150442ba066e",
          "display": "Θεμιστοκλής Λιναρδάκη"
        },
        "effectiveDateTime": "2025-04-23T06:16:00Z",
        "specimen": {
          "reference": "urn:uuid:4ef86b12-7605-47bc-8dec-6d4efd17cc01"
        }
      }
    },
    {
      "fullUrl": "urn:uuid:c6c295c7-05da-4fcd-a27f-92fcf2600a4e",
      "resource": {
        "resourceType": "Observation",
        "id": "c6c295c7-05da-4fcd-a27f-92fcf2600a4e",
        "meta": {
          "profile": [
            "http://hl7.eu/fhir/laboratory/StructureDefinition/Observation-resultslab-eu-lab"
          ]
        },
        "performer": [
          {
            "display": "The Central European Lab"
          }
        ],
        "category": [
          {
            "coding": [
              {
                "system": "http://terminology.hl7.org/CodeSystem/observation-category",
                "code": "laboratory"
              }
            ]
          }
        ],
        "code": {
          "coding": [
            {
              "code": "2947-0",
              "system": "http://loinc.org",
              "display": "Sodium [Moles/volume] in Blood"
            }
          ],
          "text": "Sodium [Moles/volume] in Blood"
        },
        "valueQuantity": {
          "system": "http://unitsofmeasure.org",
          "value": 141.2,
          "unit": "mmol/L",
          "code": "mmol/L"
        },
        "referenceRange": [
          {
            "low": {
              "value": 135,
              "code": "mmol/L",
              "system": "http://unitsofmeasure.org"
            }
          },
          {
            "high": {
              "value": 145,
              "code": "mmol/L",
              "system": "http://unitsofmeasure.org"
            }
          }
        ],
        "text": {
          "status": "generated",
          "div": "<div xmlns=\"http://www.w3.org/1999/xhtml\"><table class=\"hl7__eu__lab__report\"><tr><th>Test</th><th>23-Apr-2025</th><th>Reference&#xA0;Range</th><th>Unit</th></tr><tr><td>Sodium [Moles/volume] in Blood</td><td>141.2</td><td>135 - 145</td><td></td><td>mmol/L</td></tr></table></div>"
        },
        "status": "final",
        "subject": {
          "reference": "urn:uuid:d5eac5a3-4cd3-42f0-9c5f-150442ba066e",
          "display": "Θεμιστοκλής Λιναρδάκη"
        },
        "effectiveDateTime": "2025-04-23T06:16:00Z",
        "specimen": {
          "reference": "urn:uuid:4ef86b12-7605-47bc-8dec-6d4efd17cc01"
        }
      }
    },
    {
      "fullUrl": "urn:uuid:b63648bc-f3e0-4a5f-ab53-c3818a861fc1",
      "resource": {
        "resourceType": "Observation",
        "id": "b63648bc-f3e0-4a5f-ab53-c3818a861fc1",
        "meta": {
          "profile": [
            "http://hl7.eu/fhir/laboratory/StructureDefinition/Observation-resultslab-eu-lab"
          ]
        },
        "performer": [
          {
            "display": "The Central European Lab"
          }
        ],
        "category": [
          {
            "coding": [
              {
                "system": "http://terminology.hl7.org/CodeSystem/observation-category",
                "code": "laboratory"
              }
            ]
          }
        ],
        "code": {
          "coding": [
            {
              "code": "6298-4",
              "system": "http://loinc.org",
              "display": "Potassium [Moles/volume] in Blood"
            }
          ],
          "text": "Potassium [Moles/volume] in Blood"
        },
        "valueQuantity": {
          "system": "http://unitsofmeasure.org",
          "value": 4.3,
          "unit": "mmol/L",
          "code": "mmol/L"
        },
        "referenceRange": [
          {
            "low": {
              "value": 3.5,
              "code": "mmol/L",
              "system": "http://unitsofmeasure.org"
            }
          },
          {
            "high": {
              "value": 5.3,
              "code": "mmol/L",
              "system": "http://unitsofmeasure.org"
            }
          }
        ],
        "text": {
          "status": "generated",
          "div": "<div xmlns=\"http://www.w3.org/1999/xhtml\"><table class=\"hl7__eu__lab__report\"><tr><th>Test</th><th>23-Apr-2025</th><th>Reference&#xA0;Range</th><th>Unit</th></tr><tr><td>Potassium [Moles/volume] in Blood</td><td>4.3</td><td>3.5 - 5.3</td><td></td><td>mmol/L</td></tr></table></div>"
        },
        "status": "final",
        "subject": {
          "reference": "urn:uuid:d5eac5a3-4cd3-42f0-9c5f-150442ba066e",
          "display": "Θεμιστοκλής Λιναρδάκη"
        },
        "effectiveDateTime": "2025-04-23T06:16:00Z",
        "specimen": {
          "reference": "urn:uuid:4ef86b12-7605-47bc-8dec-6d4efd17cc01"
        }
      }
    },
    {
      "fullUrl": "urn:uuid:8ccb0d94-085b-435c-9570-4cfe7026fb66",
      "resource": {
        "resourceType": "Observation",
        "id": "8ccb0d94-085b-435c-9570-4cfe7026fb66",
        "meta": {
          "profile": [
            "http://hl7.eu/fhir/laboratory/StructureDefinition/Observation-resultslab-eu-lab"
          ]
        },
        "performer": [
          {
            "display": "The Central European Lab"
          }
        ],
        "category": [
          {
            "coding": [
              {
                "system": "http://terminology.hl7.org/CodeSystem/observation-category",
                "code": "laboratory"
              }
            ]
          }
        ],
        "code": {
          "coding": [
            {
              "code": "2069-3",
              "system": "http://loinc.org",
              "display": "Chloride [Moles/volume] in Blood"
            }
          ],
          "text": "Chloride [Moles/volume] in Blood"
        },
        "valueQuantity": {
          "system": "http://unitsofmeasure.org",
          "value": 110.2,
          "unit": "mmol/L",
          "code": "mmol/L"
        },
        "referenceRange": [
          {
            "low": {
              "value": 98,
              "code": "mmol/L",
              "system": "http://unitsofmeasure.org"
            }
          },
          {
            "high": {
              "value": 110,
              "code": "mmol/L",
              "system": "http://unitsofmeasure.org"
            }
          }
        ],
        "interpretation": [
          {
            "coding": [
              {
                "code": "H",
                "system": "http://terminology.hl7.org/CodeSystem/v3-ObservationInterpretation",
                "display": "High"
              }
            ]
          }
        ],
        "text": {
          "status": "generated",
          "div": "<div xmlns=\"http://www.w3.org/1999/xhtml\"><table class=\"hl7__eu__lab__report\"><tr><th>Test</th><th>23-Apr-2025</th><th>Reference&#xA0;Range</th><th>Unit</th></tr><tr><td>Chloride [Moles/volume] in Blood</td><td>110.2</td><td>98 - 110</td><td>H</td><td>mmol/L</td></tr></table></div>"
        },
        "status": "final",
        "subject": {
          "reference": "urn:uuid:d5eac5a3-4cd3-42f0-9c5f-150442ba066e",
          "display": "Θεμιστοκλής Λιναρδάκη"
        },
        "effectiveDateTime": "2025-04-23T06:16:00Z",
        "specimen": {
          "reference": "urn:uuid:4ef86b12-7605-47bc-8dec-6d4efd17cc01"
        }
      }
    },
    {
      "fullUrl": "urn:uuid:cd309877-c78b-4df8-89e9-d604e143f68b",
      "resource": {
        "resourceType": "Observation",
        "id": "cd309877-c78b-4df8-89e9-d604e143f68b",
        "meta": {
          "profile": [
            "http://hl7.eu/fhir/laboratory/StructureDefinition/Observation-resultslab-eu-lab"
          ]
        },
        "performer": [
          {
            "display": "The Central European Lab"
          }
        ],
        "category": [
          {
            "coding": [
              {
                "system": "http://terminology.hl7.org/CodeSystem/observation-category",
                "code": "laboratory"
              }
            ]
          }
        ],
        "code": {
          "coding": [
            {
              "code": "20565-8",
              "system": "http://loinc.org",
              "display": "Carbon dioxide, total [Moles/volume] in Blood"
            }
          ],
          "text": "Carbon dioxide, total [Moles/volume] in Blood"
        },
        "valueQuantity": {
          "system": "http://unitsofmeasure.org",
          "value": 25.3,
          "unit": "mmol/L",
          "code": "mmol/L"
        },
        "referenceRange": [
          {
            "low": {
              "value": 22,
              "code": "mmol/L",
              "system": "http://unitsofmeasure.org"
            }
          },
          {
            "high": {
              "value": 29,
              "code": "mmol/L",
              "system": "http://unitsofmeasure.org"
            }
          }
        ],
        "text": {
          "status": "generated",
          "div": "<div xmlns=\"http://www.w3.org/1999/xhtml\"><table class=\"hl7__eu__lab__report\"><tr><th>Test</th><th>23-Apr-2025</th><th>Reference&#xA0;Range</th><th>Unit</th></tr><tr><td>Carbon dioxide, total [Moles/volume] in Blood</td><td>25.3</td><td>22 - 29</td><td></td><td>mmol/L</td></tr></table></div>"
        },
        "status": "final",
        "subject": {
          "reference": "urn:uuid:d5eac5a3-4cd3-42f0-9c5f-150442ba066e",
          "display": "Θεμιστοκλής Λιναρδάκη"
        },
        "effectiveDateTime": "2025-04-23T06:16:00Z",
        "specimen": {
          "reference": "urn:uuid:4ef86b12-7605-47bc-8dec-6d4efd17cc01"
        }
      }
    },
    {
      "fullUrl": "urn:uuid:b3ec541d-9825-4a48-9a15-9bea37327d65",
      "resource": {
        "resourceType": "Device",
        "id": "b3ec541d-9825-4a48-9a15-9bea37327d65",
        "deviceName": [
          {
            "name": "SYNDERAI Synthetic Generator",
            "type": "manufacturer-name"
          }
        ],
        "version": [
          {
            "value": "5.0"
          }
        ],
        "text": {
          "status": "generated",
          "div": "<div xmlns=\"http://www.w3.org/1999/xhtml\">SYNDERAI Synthetic Generator v5.0</div>"
        },
        "status": "active\"",
        "distinctIdentifier": "synderai-generator-50",
        "manufacturer": "SYNDERAI Project"
      }
    },
    {
      "fullUrl": "urn:uuid:6640e10d-bbff-4d49-9adc-70fafab6b9fb",
      "resource": {
        "resourceType": "Provenance",
        "id": "6640e10d-bbff-4d49-9adc-70fafab6b9fb",
        "target": [
          {
            "reference": "Patient/d5eac5a3-4cd3-42f0-9c5f-150442ba066e"
          },
          {
            "reference": "Bundle/ac8fa2f2-fce2-4374-bae4-52cdadd33489"
          },
          {
            "reference": "Composition/0e659c88-5c36-4f20-9e73-2e501903074d"
          },
          {
            "reference": "PractitionerRole/9a13f85f-f2b4-40f8-a01f-1af85902997b"
          },
          {
            "reference": "Practitioner/18dbbf3a-8c1b-4038-84d6-7bd876260d06"
          },
          {
            "reference": "PractitionerRole/f576c05e-719f-49e6-a1c6-61d2e751eb67"
          },
          {
            "reference": "Organization/bef5a66d-3d8f-4421-aff4-758f1e2fb6ba"
          }
        ],
        "activity": {
          "text": "Synthetic Example Data Generation"
        },
        "policy": [
          "https://synderai.net/synderai-synthetic-data-policy"
        ],
        "agent": [
          {
            "type": {
              "text": "author"
            },
            "who": {
              "reference": "Device/b3ec541d-9825-4a48-9a15-9bea37327d65"
            }
          }
        ],
        "reason": [
          {
            "text": "Interoperability Testing and Training (non-clinical use)"
          }
        ],
        "text": {
          "status": "generated",
          "div": "<div xmlns=\"http://www.w3.org/1999/xhtml\">Provenance for SYNDERAI Synthetic Example Data Resource</div>"
        },
        "recorded": "2025-04-23T08:16:00Z"
      }
    },
    {
      "fullUrl": "urn:uuid:9a13f85f-f2b4-40f8-a01f-1af85902997b",
      "resource": {
        "resourceType": "PractitionerRole",
        "id": "9a13f85f-f2b4-40f8-a01f-1af85902997b",
        "meta": {
          "profile": [
            "http://hl7.eu/fhir/base/StructureDefinition/practitionerRole-eu"
          ]
        },
        "text": {
          "status": "generated",
          "div": "<div xmlns=\"http://www.w3.org/1999/xhtml\">Laboratory Role Id: 9a13f85f-f2b4-40f8-a01f-1af85902997b</div>"
        },
        "practitioner": {
          "reference": "urn:uuid:18dbbf3a-8c1b-4038-84d6-7bd876260d06"
        }
      }
    },
    {
      "fullUrl": "urn:uuid:18dbbf3a-8c1b-4038-84d6-7bd876260d06",
      "resource": {
        "resourceType": "Practitioner",
        "id": "18dbbf3a-8c1b-4038-84d6-7bd876260d06",
        "meta": {
          "profile": [
            "http://hl7.eu/fhir/base/StructureDefinition/practitioner-eu"
          ]
        },
        "identifier": [
          {
            "assigner": {
              "display": "HL7 Europe"
            },
            "system": "urn:oid:2.16.840.1.113883.2.51.999",
            "value": "e4a493f1-1ae2-44a5-932d-8fe5157d39d5"
          }
        ],
        "name": [
          {
            "prefix": [
              "dr"
            ],
            "given": [
              "Ex"
            ],
            "family": "Ample"
          }
        ],
        "address": [
          {
            "line": [
              "Laboratoire Central Européenne",
              "Boulevard du Jardin Botanique 32"
            ],
            "postalCode": "1000",
            "city": "Brussels",
            "country": "Belgium"
          }
        ],
        "text": {
          "status": "generated",
          "div": "<div xmlns=\"http://www.w3.org/1999/xhtml\">Laboratory: Laboratoire Central Européenne, 1000 Brussels, Belgium</div>"
        }
      }
    }
  ],
  "type": "document",
  "timestamp": "2025-04-23T08:16:00Z"
}
