<Bundle xmlns="http://hl7.org/fhir">
   <id value="24abe25d-ba6c-4307-ac0c-d1a763901186"/>
   <meta>
      <profile value="http://hl7.eu/fhir/laboratory/StructureDefinition/Bundle-eu-lab"/>
   </meta>
   <identifier>
      <system value="urn:oid:2.16.840.1.113883.2.51.999"/>
      <value value="d6652777-087f-4cfb-bad5-b0d3531f4b6b"/>
      <assigner>
         <display value="HL7 Europe"/>
      </assigner>
   </identifier>
   <type value="document"/>
   <timestamp value="2021-04-12T07:47:02Z"/>
   <entry>
      <fullUrl value="urn:uuid:8fd3e775-d2bd-43bd-8bcf-9c943dcfde13"/>
      <resource>
         <Composition>
            <id value="8fd3e775-d2bd-43bd-8bcf-9c943dcfde13"/>
            <meta>
               <profile value="http://hl7.eu/fhir/laboratory/StructureDefinition/Composition-eu-lab"/>
            </meta>
            <identifier>
               <system value="urn:oid:2.16.840.1.113883.2.51.999"/>
               <value value="1f6dfde6-5f84-4f33-8f11-d308fe2f99ca"/>
               <assigner>
                  <display value="HL7 Europe"/>
               </assigner>
            </identifier>
            <status value="final"/>
            <type>
               <coding>
                  <system value="http://loinc.org"/>
                  <code value="11502-2"/>
                  <display value="Laboratory report"/>
               </coding>
               <text value="Laboratory Report"/>
            </type>
            <category>
               <coding>
                  <system value="http://loinc.org"/>
                  <code value="26436-6"/>
                  <display value="Laboratory studies (set)"/>
               </coding>
            </category>
            <subject>
               <reference value="urn:uuid:89fbe331-a063-48e8-9b36-5cc10dbf6b7b"/>
               <display value="Eileen Taylor"/>
            </subject>
            <date value="2021-04-12T07:47:02Z"/>
            <author>
               <reference value="urn:uuid:0b22dc72-b64c-4057-9509-9477e645d7b9"/>
            </author>
            <title value="Laboratory Report"/>
            <confidentiality value="N"/>
            <section>
               <title value="Laboratory Report"/>
               <code>
                  <coding>
                     <system value="http://loinc.org"/>
                     <code value="26436-6"/>
                     <display value="Laboratory studies (set)"/>
                  </coding>
                  <text value="Laboratory studies"/>
               </code>
               <section>
                  <title value="Chemistry"/>
                  <code>
                     <coding>
                        <system value="http://loinc.org"/>
                        <code value="$18719-5"/>
                        <display value="Chemistry studies (set)"/>
                     </coding>
                     <text value="Chemistry"/>
                  </code>
                  <text>
                     <status value="generated"/>
                     <div xmlns="http://www.w3.org/1999/xhtml">
                        <h3>Chemistry</h3>
                        <table class="hl7__eu__lab__report">
                           <thead>
                              <tr>
                                 <th>Test</th>
                                 <th>12-APR-2021</th>
                                 <th>Reference Range</th>
                                 <th>Unit</th>
                              </tr>
                           </thead>
                           <tbody>
                              <tr>
                                 <td>Glucose [Mass/volume] in Blood</td>
                                 <td>95.8</td>
                                 <td>70 - 140</td>
                                 <td>mg/dL</td>
                              </tr>
                              <tr>
                                 <td>Urea nitrogen [Mass/volume] in Blood</td>
                                 <td>8.5</td>
                                 <td>7 - 20</td>
                                 <td>mg/dL</td>
                              </tr>
                              <tr>
                                 <td>Creatinine [Mass/volume] in Blood</td>
                                 <td>
                                    <strong>3.4 H</strong>
                                 </td>
                                 <td>0.6 - 1.1</td>
                                 <td>mg/dL</td>
                              </tr>
                              <tr>
                                 <td>Calcium [Mass/volume] in Blood</td>
                                 <td>9.1</td>
                                 <td>8.5 - 10.4</td>
                                 <td>mg/dL</td>
                              </tr>
                              <tr>
                                 <td>Sodium [Moles/volume] in Blood</td>
                                 <td>143.3</td>
                                 <td>135 - 145</td>
                                 <td>mmol/L</td>
                              </tr>
                              <tr>
                                 <td>Potassium [Moles/volume] in Blood</td>
                                 <td>4.4</td>
                                 <td>3.5 - 5.1</td>
                                 <td>mmol/L</td>
                              </tr>
                              <tr>
                                 <td>Chloride [Moles/volume] in Blood</td>
                                 <td>101.9</td>
                                 <td>98 - 108</td>
                                 <td>mmol/L</td>
                              </tr>
                              <tr>
                                 <td>Carbon dioxide, total [Moles/volume] in Blood</td>
                                 <td>25.0</td>
                                 <td>22 - 29</td>
                                 <td>mmol/L</td>
                              </tr>
                              <tr>
                                 <td>Protein [Mass/volume] in Serum or Plasma</td>
                                 <td>7.3</td>
                                 <td>6 - 8.3</td>
                                 <td>g/dL</td>
                              </tr>
                              <tr>
                                 <td>Albumin [Mass/volume] in Serum or Plasma</td>
                                 <td>4.9</td>
                                 <td>3.4 - 5</td>
                                 <td>g/dL</td>
                              </tr>
                              <tr>
                                 <td>Globulin [Mass/volume] in Serum by calculation</td>
                                 <td>2.5</td>
                                 <td>2 - 3.5</td>
                                 <td>g/L</td>
                              </tr>
                              <tr>
                                 <td>Bilirubin.total [Mass/volume] in Serum or Plasma</td>
                                 <td>0.8</td>
                                 <td>0.2 - 1.2</td>
                                 <td>mg/dL</td>
                              </tr>
                              <tr>
                                 <td>Alkaline phosphatase [Enzymatic activity/volume] in Serum or Plasma</td>
                                 <td>
                                    <strong>127.7 H</strong>
                                 </td>
                                 <td>44 - 104</td>
                                 <td>U/L</td>
                              </tr>
                              <tr>
                                 <td>Alanine aminotransferase [Enzymatic activity/volume] in Serum or Plasma</td>
                                 <td>20.5</td>
                                 <td>13 - 36</td>
                                 <td>U/L</td>
                              </tr>
                              <tr>
                                 <td>Aspartate aminotransferase [Enzymatic activity/volume] in Serum or Plasma</td>
                                 <td>
                                    <strong>7.2 L</strong>
                                 </td>
                                 <td>10 - 40</td>
                                 <td>U/L</td>
                              </tr>
                              <tr>
                                 <td>Cholesterol [Mass/volume] in Serum or Plasma</td>
                                 <td>152.6</td>
                                 <td>130 - 200</td>
                                 <td>mg/dL</td>
                              </tr>
                              <tr>
                                 <td>Triglyceride [Mass/volume] in Serum or Plasma</td>
                                 <td>156.9</td>
                                 <td>35 - 175</td>
                                 <td>mg/dL</td>
                              </tr>
                              <tr>
                                 <td>Cholesterol in LDL [Mass/volume] in Serum or Plasma by Direct assay</td>
                                 <td>120.4</td>
                                 <td>0 - 190</td>
                                 <td>mg/dL</td>
                              </tr>
                              <tr>
                                 <td>Cholesterol in HDL [Mass/volume] in Serum or Plasma</td>
                                 <td>66.6</td>
                                 <td>50 - 100</td>
                                 <td>mg/dL</td>
                              </tr>
                           </tbody>
                        </table>
                     </div>
                  </text>
                  <entry>
                     <reference value="urn:uuid:b204b912-d516-4c6f-b58c-98e086128931"/>
                  </entry>
                  <entry>
                     <reference value="urn:uuid:a1af0be4-8f2e-4a52-a6ae-4e848a27b950"/>
                  </entry>
                  <entry>
                     <reference value="urn:uuid:c481f7db-7677-4539-881f-deb9356f19df"/>
                  </entry>
                  <entry>
                     <reference value="urn:uuid:79e91e7c-ea37-4ddd-9dd2-3ce66116207e"/>
                  </entry>
                  <entry>
                     <reference value="urn:uuid:864feabf-5ae8-4812-930b-341786ba36b3"/>
                  </entry>
                  <entry>
                     <reference value="urn:uuid:b88442db-e2a3-4113-9095-b49174ca00c3"/>
                  </entry>
                  <entry>
                     <reference value="urn:uuid:80319364-9520-4f57-b105-68d8c06d7f63"/>
                  </entry>
                  <entry>
                     <reference value="urn:uuid:0468df5d-159e-4fe9-8725-3c3b4fc205d4"/>
                  </entry>
                  <entry>
                     <reference value="urn:uuid:984df040-e969-4355-8fea-553b157fa5fd"/>
                  </entry>
                  <entry>
                     <reference value="urn:uuid:c61f8a5a-cf27-4ed7-ad62-9c23cc6c0824"/>
                  </entry>
                  <entry>
                     <reference value="urn:uuid:597a79de-dd56-4148-a736-5e4859f5d8cb"/>
                  </entry>
                  <entry>
                     <reference value="urn:uuid:43423bb9-bb8b-4ac4-a142-23c5f4e886b3"/>
                  </entry>
                  <entry>
                     <reference value="urn:uuid:8819c4ac-dcee-4c5b-929b-28e947743287"/>
                  </entry>
                  <entry>
                     <reference value="urn:uuid:fe902a2c-188a-4099-982e-4bb32da344d1"/>
                  </entry>
                  <entry>
                     <reference value="urn:uuid:ad08400e-954d-40ae-b3a3-760e9a222481"/>
                  </entry>
                  <entry>
                     <reference value="urn:uuid:ced29e7f-bd64-4e2a-b8ae-9676931c12b4"/>
                  </entry>
                  <entry>
                     <reference value="urn:uuid:9c535c6f-8529-4a53-a1ac-1a18259b7674"/>
                  </entry>
                  <entry>
                     <reference value="urn:uuid:1613e8e8-dc21-4204-a5bd-fb75113b84e4"/>
                  </entry>
                  <entry>
                     <reference value="urn:uuid:2b4f8536-7d8b-4d43-9432-43a49b5c9427"/>
                  </entry>
               </section>
            </section>
            <section>
               <title value="Annotation comment"/>
               <code>
                  <coding>
                     <system value="http://loinc.org"/>
                     <code value="48767-8"/>
                     <display value="Annotation comment"/>
                  </coding>
               </code>
               <text>
                  <status value="generated"/>
                  <div xmlns="http://www.w3.org/1999/xhtml">
                     <h3>Annotation</h3>
                     <table class="hl7__eu__lab__report">
                        <tr>
                           <th>Conclusion and Recommendations based on this report and previous findings known to us</th>
                        </tr>
                        <tr>
                           <td>Renal function is impaired, as indicated by significantly elevated creatinine. Alkaline phosphatase is mildly elevated, which may suggest cholestasis or bone turnover; liver transaminases are within or below normal. Other parameters, including glucose, electrolytes, proteins, and lipids, are within normal limits. Recommend clinical correlation and further evaluation of renal and hepatobiliary function.</td>
                        </tr>
                     </table>
                  </div>
               </text>
            </section>
         </Composition>
      </resource>
   </entry>
   <entry>
      <fullUrl value="urn:uuid:2c12b6b4-fd44-4171-9603-ac4e61e12eb5"/>
      <resource>
         <DiagnosticReport>
            <id value="2c12b6b4-fd44-4171-9603-ac4e61e12eb5"/>
            <meta>
               <profile value="http://hl7.eu/fhir/laboratory/StructureDefinition/DiagnosticReport-eu-lab"/>
            </meta>
            <extension url="http://hl7.org/fhir/5.0/StructureDefinition/extension-DiagnosticReport.composition">
               <valueReference>
                  <reference value="urn:uuid:1f6dfde6-5f84-4f33-8f11-d308fe2f99ca"/>
               </valueReference>
            </extension>
            <identifier>
               <system value="urn:oid:2.16.840.1.113883.2.51.999"/>
               <value value="e6ea68b3-70ef-4f99-89d1-26c744ecbcd7"/>
               <assigner>
                  <display value="HL7 Europe"/>
               </assigner>
            </identifier>
            <status value="registered"/>
            <category>
               <coding>
                  <system value="http://loinc.org"/>
                  <code value="26436-6"/>
                  <display value="Laboratory studies (set)"/>
               </coding>
            </category>
            <code>
               <coding>
                  <system value="http://loinc.org"/>
                  <code value="11502-2"/>
                  <display value="Laboratory report"/>
               </coding>
            </code>
            <subject>
               <reference value="urn:uuid:89fbe331-a063-48e8-9b36-5cc10dbf6b7b"/>
               <display value="Eileen Taylor"/>
            </subject>
            <specimen>
               <reference value="urn:uuid:d8d94748-aabe-4a80-b01c-91154abd19a7"/>
            </specimen>
            <specimen>
               <reference value="urn:uuid:cd414d0a-3a62-465e-9db3-a96212bdc3f5"/>
            </specimen>
            <specimen>
               <reference value="urn:uuid:22e32d01-c324-4598-b8a9-d1dbf27e0916"/>
            </specimen>
            <result>
               <reference value="urn:uuid:b204b912-d516-4c6f-b58c-98e086128931"/>
            </result>
            <result>
               <reference value="urn:uuid:a1af0be4-8f2e-4a52-a6ae-4e848a27b950"/>
            </result>
            <result>
               <reference value="urn:uuid:c481f7db-7677-4539-881f-deb9356f19df"/>
            </result>
            <result>
               <reference value="urn:uuid:79e91e7c-ea37-4ddd-9dd2-3ce66116207e"/>
            </result>
            <result>
               <reference value="urn:uuid:864feabf-5ae8-4812-930b-341786ba36b3"/>
            </result>
            <result>
               <reference value="urn:uuid:b88442db-e2a3-4113-9095-b49174ca00c3"/>
            </result>
            <result>
               <reference value="urn:uuid:80319364-9520-4f57-b105-68d8c06d7f63"/>
            </result>
            <result>
               <reference value="urn:uuid:0468df5d-159e-4fe9-8725-3c3b4fc205d4"/>
            </result>
            <result>
               <reference value="urn:uuid:984df040-e969-4355-8fea-553b157fa5fd"/>
            </result>
            <result>
               <reference value="urn:uuid:c61f8a5a-cf27-4ed7-ad62-9c23cc6c0824"/>
            </result>
            <result>
               <reference value="urn:uuid:597a79de-dd56-4148-a736-5e4859f5d8cb"/>
            </result>
            <result>
               <reference value="urn:uuid:43423bb9-bb8b-4ac4-a142-23c5f4e886b3"/>
            </result>
            <result>
               <reference value="urn:uuid:8819c4ac-dcee-4c5b-929b-28e947743287"/>
            </result>
            <result>
               <reference value="urn:uuid:fe902a2c-188a-4099-982e-4bb32da344d1"/>
            </result>
            <result>
               <reference value="urn:uuid:ad08400e-954d-40ae-b3a3-760e9a222481"/>
            </result>
            <result>
               <reference value="urn:uuid:ced29e7f-bd64-4e2a-b8ae-9676931c12b4"/>
            </result>
            <result>
               <reference value="urn:uuid:9c535c6f-8529-4a53-a1ac-1a18259b7674"/>
            </result>
            <result>
               <reference value="urn:uuid:1613e8e8-dc21-4204-a5bd-fb75113b84e4"/>
            </result>
            <result>
               <reference value="urn:uuid:2b4f8536-7d8b-4d43-9432-43a49b5c9427"/>
            </result>
         </DiagnosticReport>
      </resource>
   </entry>
   <entry>
      <fullUrl value="urn:uuid:89fbe331-a063-48e8-9b36-5cc10dbf6b7b"/>
      <resource>
         <Patient>
            <id value="89fbe331-a063-48e8-9b36-5cc10dbf6b7b"/>
            <meta>
               <profile value="http://hl7.eu/fhir/base/StructureDefinition/patient-eu-core"/>
               <security>
                  <system value="http://terminology.hl7.org/CodeSystem/v3-ActReason"/>
                  <code value="HTEST"/>
               </security>
               <security>
                  <system value="http://terminology.hl7.org/CodeSystem/v3-ActReason"/>
                  <code value="TRAIN"/>
               </security>
               <tag>
                  <system value="https://synderai.net/fhir/CodeSystem/tags"/>
                  <code value="synthetic"/>
                  <display value="SYNDERAI Synthetic data"/>
               </tag>
            </meta>
            <text>
               <status value="generated"/>
               <div xmlns="http://www.w3.org/1999/xhtml">
                  <table class="hl7__ips">
                     <tr>
                        <td>Eileen Taylor</td>
                        <td>female</td>
                        <td>11-Dec-1951</td>
                     </tr>
                  </table>
               </div>
            </text>
            <extension url="http://hl7.org/fhir/StructureDefinition/patient-nationality">
               <valueCodeableConcept>
                  <coding>
                     <system value="http://hl7.org/fhir/ValueSet/country"/>
                     <code value="GB"/>
                  </coding>
               </valueCodeableConcept>
            </extension>
            <identifier>
               <type>
                  <coding>
                     <system value="http://terminology.hl7.org/CodeSystem/v2-0203"/>
                     <code value="PT"/>
                  </coding>
               </type>
               <system value="http://ec.europa.eu/identifier/eci"/>
               <value value="6172-576075-7"/>
            </identifier>
            <identifier>
               <type>
                  <coding>
                     <system value="http://terminology.hl7.org/CodeSystem/v2-0203"/>
                     <code value="MR"/>
                  </coding>
               </type>
               <system value="http://local.setting.eu/identifier"/>
               <value value="f7f175da-cf0d-5686-8800-840d9ab7b47b"/>
            </identifier>
            <name>
               <family value="Taylor"/>
            </name>
            <name>
               <given value="Eileen"/>
            </name>
            <name>
               <text value="Eileen Taylor"/>
            </name>
            <telecom>
               <system value="phone"/>
               <value value="+44(0)1614960460"/>
            </telecom>
            <gender value="female"/>
            <birthDate value="1951-12-11"/>
            <address>
               <use value="home"/>
               <type value="physical"/>
               <line value="39 Slater harbors"/>
               <city value="Smithtown"/>
               <postalCode value="LE17"/>
               <country value="United Kingdom"/>
            </address>
         </Patient>
      </resource>
   </entry>
   <entry>
      <fullUrl value="urn:uuid:f95dbc4a-497f-4711-acde-bfedefbc8aaa"/>
      <resource>
         <ServiceRequest>
            <id value="f95dbc4a-497f-4711-acde-bfedefbc8aaa"/>
            <meta>
               <profile value="http://hl7.eu/fhir/laboratory/StructureDefinition/ServiceRequest-eu-lab"/>
            </meta>
            <identifier>
               <system value="http://example.org"/>
               <value value="b790b05f-75b7-4bec-a9e5-a3e75079a7f9"/>
            </identifier>
            <status value="active"/>
            <intent value="order"/>
            <code>
               <coding>
                  <system value="http://snomed.info/sct"/>
                  <code value="108252007"/>
                  <display value="Laboratory procedure"/>
               </coding>
            </code>
            <subject>
               <reference value="urn:uuid:89fbe331-a063-48e8-9b36-5cc10dbf6b7b"/>
               <display value="Eileen Taylor"/>
            </subject>
            <requester>
               <reference value="urn:uuid:1de860c5-6872-459d-b9b2-a5b32f299b14"/>
            </requester>
            <reasonCode>
               <coding>
                  <system value="http://snomed.info/sct"/>
                  <code value="203082005"/>
                  <display value="Fibromyalgia"/>
               </coding>
            </reasonCode>
            <reasonCode>
               <coding>
                  <system value="http://snomed.info/sct"/>
                  <code value="239873007"/>
                  <display value="Osteoarthritis of knee"/>
               </coding>
            </reasonCode>
            <reasonCode>
               <coding>
                  <system value="http://snomed.info/sct"/>
                  <code value="55822004"/>
                  <display value="Hyperlipidemia"/>
               </coding>
            </reasonCode>
            <reasonCode>
               <coding>
                  <system value="http://snomed.info/sct"/>
                  <code value="254837009"/>
                  <display value="Malignant neoplasm of breast"/>
               </coding>
            </reasonCode>
            <reasonCode>
               <coding>
                  <system value="http://snomed.info/sct"/>
                  <code value="197927001"/>
                  <display value="Recurrent urinary tract infection"/>
               </coding>
            </reasonCode>
            <specimen>
               <reference value="urn:uuid:d8d94748-aabe-4a80-b01c-91154abd19a7"/>
            </specimen>
            <specimen>
               <reference value="urn:uuid:cd414d0a-3a62-465e-9db3-a96212bdc3f5"/>
            </specimen>
            <specimen>
               <reference value="urn:uuid:22e32d01-c324-4598-b8a9-d1dbf27e0916"/>
            </specimen>
         </ServiceRequest>
      </resource>
   </entry>
   <entry>
      <fullUrl value="urn:uuid:1de860c5-6872-459d-b9b2-a5b32f299b14"/>
      <resource>
         <PractitionerRole>
            <id value="1de860c5-6872-459d-b9b2-a5b32f299b14"/>
            <meta>
               <profile value="http://hl7.eu/fhir/base/StructureDefinition/practitionerRole-eu"/>
            </meta>
            <text>
               <status value="generated"/>
               <div xmlns="http://www.w3.org/1999/xhtml">Provider Role Id: 1de860c5-6872-459d-b9b2-a5b32f299b14</div>
            </text>
            <organization>
               <reference value="urn:uuid:633473ed-6cc3-4fe2-90fb-4a9b5ce75670"/>
            </organization>
         </PractitionerRole>
      </resource>
   </entry>
   <entry>
      <fullUrl value="urn:uuid:633473ed-6cc3-4fe2-90fb-4a9b5ce75670"/>
      <resource>
         <Organization>
            <id value="633473ed-6cc3-4fe2-90fb-4a9b5ce75670"/>
            <meta>
               <profile value="http://hl7.eu/fhir/base/StructureDefinition/organization-eu"/>
            </meta>
            <text>
               <status value="generated"/>
               <div xmlns="http://www.w3.org/1999/xhtml">Provider Organization: Leicester Royal Infirmary</div>
            </text>
            <identifier>
               <system value="urn:oid:2.16.840.1.113883.2.51.999"/>
               <value value="cf4c8e08-155e-436b-bef7-f1829e4ee9b1"/>
               <assigner>
                  <display value="HL7 Europe"/>
               </assigner>
            </identifier>
            <name value="Leicester Royal Infirmary"/>
            <address>
               <city value="Leicester"/>
               <postalCode value="LE2 7"/>
               <country value="United Kingdom"/>
            </address>
         </Organization>
      </resource>
   </entry>
   <entry>
      <fullUrl value="urn:uuid:d8d94748-aabe-4a80-b01c-91154abd19a7"/>
      <resource>
         <Specimen>
            <id value="d8d94748-aabe-4a80-b01c-91154abd19a7"/>
            <meta>
               <profile value="http://hl7.eu/fhir/laboratory/StructureDefinition/Specimen-eu-lab"/>
            </meta>
            <text>
               <status value="generated"/>
               <div xmlns="http://www.w3.org/1999/xhtml">
                  <table class="hl7__eu__lab__report">
                     <tr>
                        <th>Specimen</th>
                        <th>Collection Date</th>
                     </tr>
                     <tr>
                        <td>Whole blood specimen (specimen)</td>
                        <td>
                           <span class="nb">12-Apr-2021</span>
                        </td>
                     </tr>
                  </table>
               </div>
            </text>
            <type>
               <coding>
                  <system value="http://snomed.info/sct"/>
                  <code value="258580003"/>
                  <display value="Whole blood specimen (specimen)"/>
               </coding>
            </type>
            <collection>
               <collectedDateTime value="2021-04-12"/>
            </collection>
         </Specimen>
      </resource>
   </entry>
   <entry>
      <fullUrl value="urn:uuid:cd414d0a-3a62-465e-9db3-a96212bdc3f5"/>
      <resource>
         <Specimen>
            <id value="cd414d0a-3a62-465e-9db3-a96212bdc3f5"/>
            <meta>
               <profile value="http://hl7.eu/fhir/laboratory/StructureDefinition/Specimen-eu-lab"/>
            </meta>
            <text>
               <status value="generated"/>
               <div xmlns="http://www.w3.org/1999/xhtml">
                  <table class="hl7__eu__lab__report">
                     <tr>
                        <th>Specimen</th>
                        <th>Collection Date</th>
                     </tr>
                     <tr>
                        <td>Acellular blood (serum or plasma) specimen</td>
                        <td>
                           <span class="nb">12-Apr-2021</span>
                        </td>
                     </tr>
                  </table>
               </div>
            </text>
            <type>
               <coding>
                  <system value="http://snomed.info/sct"/>
                  <code value="122592007"/>
                  <display value="Acellular blood (serum or plasma) specimen"/>
               </coding>
            </type>
            <collection>
               <collectedDateTime value="2021-04-12"/>
            </collection>
         </Specimen>
      </resource>
   </entry>
   <entry>
      <fullUrl value="urn:uuid:22e32d01-c324-4598-b8a9-d1dbf27e0916"/>
      <resource>
         <Specimen>
            <id value="22e32d01-c324-4598-b8a9-d1dbf27e0916"/>
            <meta>
               <profile value="http://hl7.eu/fhir/laboratory/StructureDefinition/Specimen-eu-lab"/>
            </meta>
            <text>
               <status value="generated"/>
               <div xmlns="http://www.w3.org/1999/xhtml">
                  <table class="hl7__eu__lab__report">
                     <tr>
                        <th>Specimen</th>
                        <th>Collection Date</th>
                     </tr>
                     <tr>
                        <td>Serum specimen</td>
                        <td>
                           <span class="nb">12-Apr-2021</span>
                        </td>
                     </tr>
                  </table>
               </div>
            </text>
            <type>
               <coding>
                  <system value="http://snomed.info/sct"/>
                  <code value="119364003"/>
                  <display value="Serum specimen"/>
               </coding>
            </type>
            <collection>
               <collectedDateTime value="2021-04-12"/>
            </collection>
         </Specimen>
      </resource>
   </entry>
   <entry>
      <fullUrl value="urn:uuid:b204b912-d516-4c6f-b58c-98e086128931"/>
      <resource>
         <Observation>
            <id value="b204b912-d516-4c6f-b58c-98e086128931"/>
            <meta>
               <profile value="http://hl7.eu/fhir/laboratory/StructureDefinition/Observation-resultslab-eu-lab"/>
            </meta>
            <text>
               <status value="generated"/>
               <div xmlns="http://www.w3.org/1999/xhtml">
                  <table class="hl7__eu__lab__report">
                     <tr>
                        <th>Test</th>
                        <th>12-Apr-2021</th>
                        <th>Reference Range</th>
                        <th>Unit</th>
                     </tr>
                     <tr>
                        <td>Glucose [Mass/volume] in Blood</td>
                        <td>95.8</td>
                        <td>70 - 140</td>
                        <td/>
                        <td>mg/dL</td>
                     </tr>
                  </table>
               </div>
            </text>
            <status value="final"/>
            <category>
               <coding>
                  <system value="http://terminology.hl7.org/CodeSystem/observation-category"/>
                  <code value="laboratory"/>
               </coding>
            </category>
            <code>
               <coding>
                  <system value="http://loinc.org"/>
                  <code value="2339-0"/>
                  <display value="Glucose [Mass/volume] in Blood"/>
               </coding>
               <text value="Glucose [Mass/volume] in Blood"/>
            </code>
            <subject>
               <reference value="urn:uuid:89fbe331-a063-48e8-9b36-5cc10dbf6b7b"/>
               <display value="Eileen Taylor"/>
            </subject>
            <effectiveDateTime value="2021-04-12T05:47:02Z"/>
            <performer>
               <display value="The Central European Lab"/>
            </performer>
            <valueQuantity>
               <value value="95.8"/>
               <unit value="mg/dL"/>
               <system value="http://unitsofmeasure.org"/>
               <code value="mg/dL"/>
            </valueQuantity>
            <specimen>
               <reference value="urn:uuid:d8d94748-aabe-4a80-b01c-91154abd19a7"/>
            </specimen>
            <referenceRange>
               <low>
                  <value value="70"/>
                  <system value="http://unitsofmeasure.org"/>
                  <code value="mg/dL"/>
               </low>
            </referenceRange>
            <referenceRange>
               <high>
                  <value value="140"/>
                  <system value="http://unitsofmeasure.org"/>
                  <code value="mg/dL"/>
               </high>
            </referenceRange>
         </Observation>
      </resource>
   </entry>
   <entry>
      <fullUrl value="urn:uuid:a1af0be4-8f2e-4a52-a6ae-4e848a27b950"/>
      <resource>
         <Observation>
            <id value="a1af0be4-8f2e-4a52-a6ae-4e848a27b950"/>
            <meta>
               <profile value="http://hl7.eu/fhir/laboratory/StructureDefinition/Observation-resultslab-eu-lab"/>
            </meta>
            <text>
               <status value="generated"/>
               <div xmlns="http://www.w3.org/1999/xhtml">
                  <table class="hl7__eu__lab__report">
                     <tr>
                        <th>Test</th>
                        <th>12-Apr-2021</th>
                        <th>Reference Range</th>
                        <th>Unit</th>
                     </tr>
                     <tr>
                        <td>Urea nitrogen [Mass/volume] in Blood</td>
                        <td>8.5</td>
                        <td>7 - 20</td>
                        <td/>
                        <td>mg/dL</td>
                     </tr>
                  </table>
               </div>
            </text>
            <status value="final"/>
            <category>
               <coding>
                  <system value="http://terminology.hl7.org/CodeSystem/observation-category"/>
                  <code value="laboratory"/>
               </coding>
            </category>
            <code>
               <coding>
                  <system value="http://loinc.org"/>
                  <code value="6299-2"/>
                  <display value="Urea nitrogen [Mass/volume] in Blood"/>
               </coding>
               <text value="Urea nitrogen [Mass/volume] in Blood"/>
            </code>
            <subject>
               <reference value="urn:uuid:89fbe331-a063-48e8-9b36-5cc10dbf6b7b"/>
               <display value="Eileen Taylor"/>
            </subject>
            <effectiveDateTime value="2021-04-12T05:47:02Z"/>
            <performer>
               <display value="The Central European Lab"/>
            </performer>
            <valueQuantity>
               <value value="8.5"/>
               <unit value="mg/dL"/>
               <system value="http://unitsofmeasure.org"/>
               <code value="mg/dL"/>
            </valueQuantity>
            <specimen>
               <reference value="urn:uuid:d8d94748-aabe-4a80-b01c-91154abd19a7"/>
            </specimen>
            <referenceRange>
               <low>
                  <value value="7"/>
                  <system value="http://unitsofmeasure.org"/>
                  <code value="mg/dL"/>
               </low>
            </referenceRange>
            <referenceRange>
               <high>
                  <value value="20"/>
                  <system value="http://unitsofmeasure.org"/>
                  <code value="mg/dL"/>
               </high>
            </referenceRange>
         </Observation>
      </resource>
   </entry>
   <entry>
      <fullUrl value="urn:uuid:c481f7db-7677-4539-881f-deb9356f19df"/>
      <resource>
         <Observation>
            <id value="c481f7db-7677-4539-881f-deb9356f19df"/>
            <meta>
               <profile value="http://hl7.eu/fhir/laboratory/StructureDefinition/Observation-resultslab-eu-lab"/>
            </meta>
            <text>
               <status value="generated"/>
               <div xmlns="http://www.w3.org/1999/xhtml">
                  <table class="hl7__eu__lab__report">
                     <tr>
                        <th>Test</th>
                        <th>12-Apr-2021</th>
                        <th>Reference Range</th>
                        <th>Unit</th>
                     </tr>
                     <tr>
                        <td>Creatinine [Mass/volume] in Blood</td>
                        <td>3.4</td>
                        <td>0.6 - 1.1</td>
                        <td>H</td>
                        <td>mg/dL</td>
                     </tr>
                  </table>
               </div>
            </text>
            <status value="final"/>
            <category>
               <coding>
                  <system value="http://terminology.hl7.org/CodeSystem/observation-category"/>
                  <code value="laboratory"/>
               </coding>
            </category>
            <code>
               <coding>
                  <system value="http://loinc.org"/>
                  <code value="38483-4"/>
                  <display value="Creatinine [Mass/volume] in Blood"/>
               </coding>
               <text value="Creatinine [Mass/volume] in Blood"/>
            </code>
            <subject>
               <reference value="urn:uuid:89fbe331-a063-48e8-9b36-5cc10dbf6b7b"/>
               <display value="Eileen Taylor"/>
            </subject>
            <effectiveDateTime value="2021-04-12T05:47:02Z"/>
            <performer>
               <display value="The Central European Lab"/>
            </performer>
            <valueQuantity>
               <value value="3.4"/>
               <unit value="mg/dL"/>
               <system value="http://unitsofmeasure.org"/>
               <code value="mg/dL"/>
            </valueQuantity>
            <interpretation>
               <coding>
                  <system value="http://terminology.hl7.org/CodeSystem/v3-ObservationInterpretation"/>
                  <code value="H"/>
                  <display value="High"/>
               </coding>
            </interpretation>
            <specimen>
               <reference value="urn:uuid:d8d94748-aabe-4a80-b01c-91154abd19a7"/>
            </specimen>
            <referenceRange>
               <low>
                  <value value="0.6"/>
                  <system value="http://unitsofmeasure.org"/>
                  <code value="mg/dL"/>
               </low>
            </referenceRange>
            <referenceRange>
               <high>
                  <value value="1.1"/>
                  <system value="http://unitsofmeasure.org"/>
                  <code value="mg/dL"/>
               </high>
            </referenceRange>
         </Observation>
      </resource>
   </entry>
   <entry>
      <fullUrl value="urn:uuid:79e91e7c-ea37-4ddd-9dd2-3ce66116207e"/>
      <resource>
         <Observation>
            <id value="79e91e7c-ea37-4ddd-9dd2-3ce66116207e"/>
            <meta>
               <profile value="http://hl7.eu/fhir/laboratory/StructureDefinition/Observation-resultslab-eu-lab"/>
            </meta>
            <text>
               <status value="generated"/>
               <div xmlns="http://www.w3.org/1999/xhtml">
                  <table class="hl7__eu__lab__report">
                     <tr>
                        <th>Test</th>
                        <th>12-Apr-2021</th>
                        <th>Reference Range</th>
                        <th>Unit</th>
                     </tr>
                     <tr>
                        <td>Calcium [Mass/volume] in Blood</td>
                        <td>9.1</td>
                        <td>8.5 - 10.4</td>
                        <td/>
                        <td>mg/dL</td>
                     </tr>
                  </table>
               </div>
            </text>
            <status value="final"/>
            <category>
               <coding>
                  <system value="http://terminology.hl7.org/CodeSystem/observation-category"/>
                  <code value="laboratory"/>
               </coding>
            </category>
            <code>
               <coding>
                  <system value="http://loinc.org"/>
                  <code value="49765-1"/>
                  <display value="Calcium [Mass/volume] in Blood"/>
               </coding>
               <text value="Calcium [Mass/volume] in Blood"/>
            </code>
            <subject>
               <reference value="urn:uuid:89fbe331-a063-48e8-9b36-5cc10dbf6b7b"/>
               <display value="Eileen Taylor"/>
            </subject>
            <effectiveDateTime value="2021-04-12T05:47:02Z"/>
            <performer>
               <display value="The Central European Lab"/>
            </performer>
            <valueQuantity>
               <value value="9.1"/>
               <unit value="mg/dL"/>
               <system value="http://unitsofmeasure.org"/>
               <code value="mg/dL"/>
            </valueQuantity>
            <specimen>
               <reference value="urn:uuid:d8d94748-aabe-4a80-b01c-91154abd19a7"/>
            </specimen>
            <referenceRange>
               <low>
                  <value value="8.5"/>
                  <system value="http://unitsofmeasure.org"/>
                  <code value="mg/dL"/>
               </low>
            </referenceRange>
            <referenceRange>
               <high>
                  <value value="10.4"/>
                  <system value="http://unitsofmeasure.org"/>
                  <code value="mg/dL"/>
               </high>
            </referenceRange>
         </Observation>
      </resource>
   </entry>
   <entry>
      <fullUrl value="urn:uuid:864feabf-5ae8-4812-930b-341786ba36b3"/>
      <resource>
         <Observation>
            <id value="864feabf-5ae8-4812-930b-341786ba36b3"/>
            <meta>
               <profile value="http://hl7.eu/fhir/laboratory/StructureDefinition/Observation-resultslab-eu-lab"/>
            </meta>
            <text>
               <status value="generated"/>
               <div xmlns="http://www.w3.org/1999/xhtml">
                  <table class="hl7__eu__lab__report">
                     <tr>
                        <th>Test</th>
                        <th>12-Apr-2021</th>
                        <th>Reference Range</th>
                        <th>Unit</th>
                     </tr>
                     <tr>
                        <td>Sodium [Moles/volume] in Blood</td>
                        <td>143.3</td>
                        <td>135 - 145</td>
                        <td/>
                        <td>mmol/L</td>
                     </tr>
                  </table>
               </div>
            </text>
            <status value="final"/>
            <category>
               <coding>
                  <system value="http://terminology.hl7.org/CodeSystem/observation-category"/>
                  <code value="laboratory"/>
               </coding>
            </category>
            <code>
               <coding>
                  <system value="http://loinc.org"/>
                  <code value="2947-0"/>
                  <display value="Sodium [Moles/volume] in Blood"/>
               </coding>
               <text value="Sodium [Moles/volume] in Blood"/>
            </code>
            <subject>
               <reference value="urn:uuid:89fbe331-a063-48e8-9b36-5cc10dbf6b7b"/>
               <display value="Eileen Taylor"/>
            </subject>
            <effectiveDateTime value="2021-04-12T05:47:02Z"/>
            <performer>
               <display value="The Central European Lab"/>
            </performer>
            <valueQuantity>
               <value value="143.3"/>
               <unit value="mmol/L"/>
               <system value="http://unitsofmeasure.org"/>
               <code value="mmol/L"/>
            </valueQuantity>
            <specimen>
               <reference value="urn:uuid:d8d94748-aabe-4a80-b01c-91154abd19a7"/>
            </specimen>
            <referenceRange>
               <low>
                  <value value="135"/>
                  <system value="http://unitsofmeasure.org"/>
                  <code value="mmol/L"/>
               </low>
            </referenceRange>
            <referenceRange>
               <high>
                  <value value="145"/>
                  <system value="http://unitsofmeasure.org"/>
                  <code value="mmol/L"/>
               </high>
            </referenceRange>
         </Observation>
      </resource>
   </entry>
   <entry>
      <fullUrl value="urn:uuid:b88442db-e2a3-4113-9095-b49174ca00c3"/>
      <resource>
         <Observation>
            <id value="b88442db-e2a3-4113-9095-b49174ca00c3"/>
            <meta>
               <profile value="http://hl7.eu/fhir/laboratory/StructureDefinition/Observation-resultslab-eu-lab"/>
            </meta>
            <text>
               <status value="generated"/>
               <div xmlns="http://www.w3.org/1999/xhtml">
                  <table class="hl7__eu__lab__report">
                     <tr>
                        <th>Test</th>
                        <th>12-Apr-2021</th>
                        <th>Reference Range</th>
                        <th>Unit</th>
                     </tr>
                     <tr>
                        <td>Potassium [Moles/volume] in Blood</td>
                        <td>4.4</td>
                        <td>3.5 - 5.1</td>
                        <td/>
                        <td>mmol/L</td>
                     </tr>
                  </table>
               </div>
            </text>
            <status value="final"/>
            <category>
               <coding>
                  <system value="http://terminology.hl7.org/CodeSystem/observation-category"/>
                  <code value="laboratory"/>
               </coding>
            </category>
            <code>
               <coding>
                  <system value="http://loinc.org"/>
                  <code value="6298-4"/>
                  <display value="Potassium [Moles/volume] in Blood"/>
               </coding>
               <text value="Potassium [Moles/volume] in Blood"/>
            </code>
            <subject>
               <reference value="urn:uuid:89fbe331-a063-48e8-9b36-5cc10dbf6b7b"/>
               <display value="Eileen Taylor"/>
            </subject>
            <effectiveDateTime value="2021-04-12T05:47:02Z"/>
            <performer>
               <display value="The Central European Lab"/>
            </performer>
            <valueQuantity>
               <value value="4.4"/>
               <unit value="mmol/L"/>
               <system value="http://unitsofmeasure.org"/>
               <code value="mmol/L"/>
            </valueQuantity>
            <specimen>
               <reference value="urn:uuid:d8d94748-aabe-4a80-b01c-91154abd19a7"/>
            </specimen>
            <referenceRange>
               <low>
                  <value value="3.5"/>
                  <system value="http://unitsofmeasure.org"/>
                  <code value="mmol/L"/>
               </low>
            </referenceRange>
            <referenceRange>
               <high>
                  <value value="5.1"/>
                  <system value="http://unitsofmeasure.org"/>
                  <code value="mmol/L"/>
               </high>
            </referenceRange>
         </Observation>
      </resource>
   </entry>
   <entry>
      <fullUrl value="urn:uuid:80319364-9520-4f57-b105-68d8c06d7f63"/>
      <resource>
         <Observation>
            <id value="80319364-9520-4f57-b105-68d8c06d7f63"/>
            <meta>
               <profile value="http://hl7.eu/fhir/laboratory/StructureDefinition/Observation-resultslab-eu-lab"/>
            </meta>
            <text>
               <status value="generated"/>
               <div xmlns="http://www.w3.org/1999/xhtml">
                  <table class="hl7__eu__lab__report">
                     <tr>
                        <th>Test</th>
                        <th>12-Apr-2021</th>
                        <th>Reference Range</th>
                        <th>Unit</th>
                     </tr>
                     <tr>
                        <td>Chloride [Moles/volume] in Blood</td>
                        <td>101.9</td>
                        <td>98 - 108</td>
                        <td/>
                        <td>mmol/L</td>
                     </tr>
                  </table>
               </div>
            </text>
            <status value="final"/>
            <category>
               <coding>
                  <system value="http://terminology.hl7.org/CodeSystem/observation-category"/>
                  <code value="laboratory"/>
               </coding>
            </category>
            <code>
               <coding>
                  <system value="http://loinc.org"/>
                  <code value="2069-3"/>
                  <display value="Chloride [Moles/volume] in Blood"/>
               </coding>
               <text value="Chloride [Moles/volume] in Blood"/>
            </code>
            <subject>
               <reference value="urn:uuid:89fbe331-a063-48e8-9b36-5cc10dbf6b7b"/>
               <display value="Eileen Taylor"/>
            </subject>
            <effectiveDateTime value="2021-04-12T05:47:02Z"/>
            <performer>
               <display value="The Central European Lab"/>
            </performer>
            <valueQuantity>
               <value value="101.9"/>
               <unit value="mmol/L"/>
               <system value="http://unitsofmeasure.org"/>
               <code value="mmol/L"/>
            </valueQuantity>
            <specimen>
               <reference value="urn:uuid:d8d94748-aabe-4a80-b01c-91154abd19a7"/>
            </specimen>
            <referenceRange>
               <low>
                  <value value="98"/>
                  <system value="http://unitsofmeasure.org"/>
                  <code value="mmol/L"/>
               </low>
            </referenceRange>
            <referenceRange>
               <high>
                  <value value="108"/>
                  <system value="http://unitsofmeasure.org"/>
                  <code value="mmol/L"/>
               </high>
            </referenceRange>
         </Observation>
      </resource>
   </entry>
   <entry>
      <fullUrl value="urn:uuid:0468df5d-159e-4fe9-8725-3c3b4fc205d4"/>
      <resource>
         <Observation>
            <id value="0468df5d-159e-4fe9-8725-3c3b4fc205d4"/>
            <meta>
               <profile value="http://hl7.eu/fhir/laboratory/StructureDefinition/Observation-resultslab-eu-lab"/>
            </meta>
            <text>
               <status value="generated"/>
               <div xmlns="http://www.w3.org/1999/xhtml">
                  <table class="hl7__eu__lab__report">
                     <tr>
                        <th>Test</th>
                        <th>12-Apr-2021</th>
                        <th>Reference Range</th>
                        <th>Unit</th>
                     </tr>
                     <tr>
                        <td>Carbon dioxide, total [Moles/volume] in Blood</td>
                        <td>25.0</td>
                        <td>22 - 29</td>
                        <td/>
                        <td>mmol/L</td>
                     </tr>
                  </table>
               </div>
            </text>
            <status value="final"/>
            <category>
               <coding>
                  <system value="http://terminology.hl7.org/CodeSystem/observation-category"/>
                  <code value="laboratory"/>
               </coding>
            </category>
            <code>
               <coding>
                  <system value="http://loinc.org"/>
                  <code value="20565-8"/>
                  <display value="Carbon dioxide, total [Moles/volume] in Blood"/>
               </coding>
               <text value="Carbon dioxide, total [Moles/volume] in Blood"/>
            </code>
            <subject>
               <reference value="urn:uuid:89fbe331-a063-48e8-9b36-5cc10dbf6b7b"/>
               <display value="Eileen Taylor"/>
            </subject>
            <effectiveDateTime value="2021-04-12T05:47:02Z"/>
            <performer>
               <display value="The Central European Lab"/>
            </performer>
            <valueQuantity>
               <value value="25"/>
               <unit value="mmol/L"/>
               <system value="http://unitsofmeasure.org"/>
               <code value="mmol/L"/>
            </valueQuantity>
            <specimen>
               <reference value="urn:uuid:d8d94748-aabe-4a80-b01c-91154abd19a7"/>
            </specimen>
            <referenceRange>
               <low>
                  <value value="22"/>
                  <system value="http://unitsofmeasure.org"/>
                  <code value="mmol/L"/>
               </low>
            </referenceRange>
            <referenceRange>
               <high>
                  <value value="29"/>
                  <system value="http://unitsofmeasure.org"/>
                  <code value="mmol/L"/>
               </high>
            </referenceRange>
         </Observation>
      </resource>
   </entry>
   <entry>
      <fullUrl value="urn:uuid:984df040-e969-4355-8fea-553b157fa5fd"/>
      <resource>
         <Observation>
            <id value="984df040-e969-4355-8fea-553b157fa5fd"/>
            <meta>
               <profile value="http://hl7.eu/fhir/laboratory/StructureDefinition/Observation-resultslab-eu-lab"/>
            </meta>
            <text>
               <status value="generated"/>
               <div xmlns="http://www.w3.org/1999/xhtml">
                  <table class="hl7__eu__lab__report">
                     <tr>
                        <th>Test</th>
                        <th>12-Apr-2021</th>
                        <th>Reference Range</th>
                        <th>Unit</th>
                     </tr>
                     <tr>
                        <td>Protein [Mass/volume] in Serum or Plasma</td>
                        <td>7.3</td>
                        <td>6 - 8.3</td>
                        <td/>
                        <td>g/dL</td>
                     </tr>
                  </table>
               </div>
            </text>
            <status value="final"/>
            <category>
               <coding>
                  <system value="http://terminology.hl7.org/CodeSystem/observation-category"/>
                  <code value="laboratory"/>
               </coding>
            </category>
            <code>
               <coding>
                  <system value="http://loinc.org"/>
                  <code value="2885-2"/>
                  <display value="Protein [Mass/volume] in Serum or Plasma"/>
               </coding>
               <text value="Protein [Mass/volume] in Serum or Plasma"/>
            </code>
            <subject>
               <reference value="urn:uuid:89fbe331-a063-48e8-9b36-5cc10dbf6b7b"/>
               <display value="Eileen Taylor"/>
            </subject>
            <effectiveDateTime value="2021-04-12T05:47:02Z"/>
            <performer>
               <display value="The Central European Lab"/>
            </performer>
            <valueQuantity>
               <value value="7.3"/>
               <unit value="g/dL"/>
               <system value="http://unitsofmeasure.org"/>
               <code value="g/dL"/>
            </valueQuantity>
            <specimen>
               <reference value="urn:uuid:cd414d0a-3a62-465e-9db3-a96212bdc3f5"/>
            </specimen>
            <referenceRange>
               <low>
                  <value value="6"/>
                  <system value="http://unitsofmeasure.org"/>
                  <code value="g/dL"/>
               </low>
            </referenceRange>
            <referenceRange>
               <high>
                  <value value="8.3"/>
                  <system value="http://unitsofmeasure.org"/>
                  <code value="g/dL"/>
               </high>
            </referenceRange>
         </Observation>
      </resource>
   </entry>
   <entry>
      <fullUrl value="urn:uuid:c61f8a5a-cf27-4ed7-ad62-9c23cc6c0824"/>
      <resource>
         <Observation>
            <id value="c61f8a5a-cf27-4ed7-ad62-9c23cc6c0824"/>
            <meta>
               <profile value="http://hl7.eu/fhir/laboratory/StructureDefinition/Observation-resultslab-eu-lab"/>
            </meta>
            <text>
               <status value="generated"/>
               <div xmlns="http://www.w3.org/1999/xhtml">
                  <table class="hl7__eu__lab__report">
                     <tr>
                        <th>Test</th>
                        <th>12-Apr-2021</th>
                        <th>Reference Range</th>
                        <th>Unit</th>
                     </tr>
                     <tr>
                        <td>Albumin [Mass/volume] in Serum or Plasma</td>
                        <td>4.9</td>
                        <td>3.4 - 5</td>
                        <td/>
                        <td>g/dL</td>
                     </tr>
                  </table>
               </div>
            </text>
            <status value="final"/>
            <category>
               <coding>
                  <system value="http://terminology.hl7.org/CodeSystem/observation-category"/>
                  <code value="laboratory"/>
               </coding>
            </category>
            <code>
               <coding>
                  <system value="http://loinc.org"/>
                  <code value="1751-7"/>
                  <display value="Albumin [Mass/volume] in Serum or Plasma"/>
               </coding>
               <text value="Albumin [Mass/volume] in Serum or Plasma"/>
            </code>
            <subject>
               <reference value="urn:uuid:89fbe331-a063-48e8-9b36-5cc10dbf6b7b"/>
               <display value="Eileen Taylor"/>
            </subject>
            <effectiveDateTime value="2021-04-12T05:47:02Z"/>
            <performer>
               <display value="The Central European Lab"/>
            </performer>
            <valueQuantity>
               <value value="4.9"/>
               <unit value="g/dL"/>
               <system value="http://unitsofmeasure.org"/>
               <code value="g/dL"/>
            </valueQuantity>
            <specimen>
               <reference value="urn:uuid:cd414d0a-3a62-465e-9db3-a96212bdc3f5"/>
            </specimen>
            <referenceRange>
               <low>
                  <value value="3.4"/>
                  <system value="http://unitsofmeasure.org"/>
                  <code value="g/dL"/>
               </low>
            </referenceRange>
            <referenceRange>
               <high>
                  <value value="5"/>
                  <system value="http://unitsofmeasure.org"/>
                  <code value="g/dL"/>
               </high>
            </referenceRange>
         </Observation>
      </resource>
   </entry>
   <entry>
      <fullUrl value="urn:uuid:597a79de-dd56-4148-a736-5e4859f5d8cb"/>
      <resource>
         <Observation>
            <id value="597a79de-dd56-4148-a736-5e4859f5d8cb"/>
            <meta>
               <profile value="http://hl7.eu/fhir/laboratory/StructureDefinition/Observation-resultslab-eu-lab"/>
            </meta>
            <text>
               <status value="generated"/>
               <div xmlns="http://www.w3.org/1999/xhtml">
                  <table class="hl7__eu__lab__report">
                     <tr>
                        <th>Test</th>
                        <th>12-Apr-2021</th>
                        <th>Reference Range</th>
                        <th>Unit</th>
                     </tr>
                     <tr>
                        <td>Globulin [Mass/volume] in Serum by calculation</td>
                        <td>2.5</td>
                        <td>2 - 3.5</td>
                        <td/>
                        <td>g/L</td>
                     </tr>
                  </table>
               </div>
            </text>
            <status value="final"/>
            <category>
               <coding>
                  <system value="http://terminology.hl7.org/CodeSystem/observation-category"/>
                  <code value="laboratory"/>
               </coding>
            </category>
            <code>
               <coding>
                  <system value="http://loinc.org"/>
                  <code value="10834-0"/>
                  <display value="Globulin [Mass/volume] in Serum by calculation"/>
               </coding>
               <text value="Globulin [Mass/volume] in Serum by calculation"/>
            </code>
            <subject>
               <reference value="urn:uuid:89fbe331-a063-48e8-9b36-5cc10dbf6b7b"/>
               <display value="Eileen Taylor"/>
            </subject>
            <effectiveDateTime value="2021-04-12T05:47:02Z"/>
            <performer>
               <display value="The Central European Lab"/>
            </performer>
            <valueQuantity>
               <value value="2.5"/>
               <unit value="g/L"/>
               <system value="http://unitsofmeasure.org"/>
               <code value="g/L"/>
            </valueQuantity>
            <specimen>
               <reference value="urn:uuid:22e32d01-c324-4598-b8a9-d1dbf27e0916"/>
            </specimen>
            <referenceRange>
               <low>
                  <value value="2"/>
                  <system value="http://unitsofmeasure.org"/>
                  <code value="g/L"/>
               </low>
            </referenceRange>
            <referenceRange>
               <high>
                  <value value="3.5"/>
                  <system value="http://unitsofmeasure.org"/>
                  <code value="g/L"/>
               </high>
            </referenceRange>
         </Observation>
      </resource>
   </entry>
   <entry>
      <fullUrl value="urn:uuid:43423bb9-bb8b-4ac4-a142-23c5f4e886b3"/>
      <resource>
         <Observation>
            <id value="43423bb9-bb8b-4ac4-a142-23c5f4e886b3"/>
            <meta>
               <profile value="http://hl7.eu/fhir/laboratory/StructureDefinition/Observation-resultslab-eu-lab"/>
            </meta>
            <text>
               <status value="generated"/>
               <div xmlns="http://www.w3.org/1999/xhtml">
                  <table class="hl7__eu__lab__report">
                     <tr>
                        <th>Test</th>
                        <th>12-Apr-2021</th>
                        <th>Reference Range</th>
                        <th>Unit</th>
                     </tr>
                     <tr>
                        <td>Bilirubin.total [Mass/volume] in Serum or Plasma</td>
                        <td>0.8</td>
                        <td>0.2 - 1.2</td>
                        <td/>
                        <td>mg/dL</td>
                     </tr>
                  </table>
               </div>
            </text>
            <status value="final"/>
            <category>
               <coding>
                  <system value="http://terminology.hl7.org/CodeSystem/observation-category"/>
                  <code value="laboratory"/>
               </coding>
            </category>
            <code>
               <coding>
                  <system value="http://loinc.org"/>
                  <code value="1975-2"/>
                  <display value="Bilirubin.total [Mass/volume] in Serum or Plasma"/>
               </coding>
               <text value="Bilirubin.total [Mass/volume] in Serum or Plasma"/>
            </code>
            <subject>
               <reference value="urn:uuid:89fbe331-a063-48e8-9b36-5cc10dbf6b7b"/>
               <display value="Eileen Taylor"/>
            </subject>
            <effectiveDateTime value="2021-04-12T05:47:02Z"/>
            <performer>
               <display value="The Central European Lab"/>
            </performer>
            <valueQuantity>
               <value value="0.8"/>
               <unit value="mg/dL"/>
               <system value="http://unitsofmeasure.org"/>
               <code value="mg/dL"/>
            </valueQuantity>
            <specimen>
               <reference value="urn:uuid:cd414d0a-3a62-465e-9db3-a96212bdc3f5"/>
            </specimen>
            <referenceRange>
               <low>
                  <value value="0.2"/>
                  <system value="http://unitsofmeasure.org"/>
                  <code value="mg/dL"/>
               </low>
            </referenceRange>
            <referenceRange>
               <high>
                  <value value="1.2"/>
                  <system value="http://unitsofmeasure.org"/>
                  <code value="mg/dL"/>
               </high>
            </referenceRange>
         </Observation>
      </resource>
   </entry>
   <entry>
      <fullUrl value="urn:uuid:8819c4ac-dcee-4c5b-929b-28e947743287"/>
      <resource>
         <Observation>
            <id value="8819c4ac-dcee-4c5b-929b-28e947743287"/>
            <meta>
               <profile value="http://hl7.eu/fhir/laboratory/StructureDefinition/Observation-resultslab-eu-lab"/>
            </meta>
            <text>
               <status value="generated"/>
               <div xmlns="http://www.w3.org/1999/xhtml">
                  <table class="hl7__eu__lab__report">
                     <tr>
                        <th>Test</th>
                        <th>12-Apr-2021</th>
                        <th>Reference Range</th>
                        <th>Unit</th>
                     </tr>
                     <tr>
                        <td>Alkaline phosphatase [Enzymatic activity/volume] in Serum or Plasma</td>
                        <td>127.7</td>
                        <td>44 - 104</td>
                        <td>H</td>
                        <td>U/L</td>
                     </tr>
                  </table>
               </div>
            </text>
            <status value="final"/>
            <category>
               <coding>
                  <system value="http://terminology.hl7.org/CodeSystem/observation-category"/>
                  <code value="laboratory"/>
               </coding>
            </category>
            <code>
               <coding>
                  <system value="http://loinc.org"/>
                  <code value="6768-6"/>
                  <display value="Alkaline phosphatase [Enzymatic activity/volume] in Serum or Plasma"/>
               </coding>
               <text value="Alkaline phosphatase [Enzymatic activity/volume] in Serum or Plasma"/>
            </code>
            <subject>
               <reference value="urn:uuid:89fbe331-a063-48e8-9b36-5cc10dbf6b7b"/>
               <display value="Eileen Taylor"/>
            </subject>
            <effectiveDateTime value="2021-04-12T05:47:02Z"/>
            <performer>
               <display value="The Central European Lab"/>
            </performer>
            <valueQuantity>
               <value value="127.7"/>
               <unit value="U/L"/>
               <system value="http://unitsofmeasure.org"/>
               <code value="U/L"/>
            </valueQuantity>
            <interpretation>
               <coding>
                  <system value="http://terminology.hl7.org/CodeSystem/v3-ObservationInterpretation"/>
                  <code value="H"/>
                  <display value="High"/>
               </coding>
            </interpretation>
            <specimen>
               <reference value="urn:uuid:cd414d0a-3a62-465e-9db3-a96212bdc3f5"/>
            </specimen>
            <referenceRange>
               <low>
                  <value value="44"/>
                  <system value="http://unitsofmeasure.org"/>
                  <code value="U/L"/>
               </low>
            </referenceRange>
            <referenceRange>
               <high>
                  <value value="104"/>
                  <system value="http://unitsofmeasure.org"/>
                  <code value="U/L"/>
               </high>
            </referenceRange>
         </Observation>
      </resource>
   </entry>
   <entry>
      <fullUrl value="urn:uuid:fe902a2c-188a-4099-982e-4bb32da344d1"/>
      <resource>
         <Observation>
            <id value="fe902a2c-188a-4099-982e-4bb32da344d1"/>
            <meta>
               <profile value="http://hl7.eu/fhir/laboratory/StructureDefinition/Observation-resultslab-eu-lab"/>
            </meta>
            <text>
               <status value="generated"/>
               <div xmlns="http://www.w3.org/1999/xhtml">
                  <table class="hl7__eu__lab__report">
                     <tr>
                        <th>Test</th>
                        <th>12-Apr-2021</th>
                        <th>Reference Range</th>
                        <th>Unit</th>
                     </tr>
                     <tr>
                        <td>Alanine aminotransferase [Enzymatic activity/volume] in Serum or Plasma</td>
                        <td>20.5</td>
                        <td>13 - 36</td>
                        <td/>
                        <td>U/L</td>
                     </tr>
                  </table>
               </div>
            </text>
            <status value="final"/>
            <category>
               <coding>
                  <system value="http://terminology.hl7.org/CodeSystem/observation-category"/>
                  <code value="laboratory"/>
               </coding>
            </category>
            <code>
               <coding>
                  <system value="http://loinc.org"/>
                  <code value="1742-6"/>
                  <display value="Alanine aminotransferase [Enzymatic activity/volume] in Serum or Plasma"/>
               </coding>
               <text value="Alanine aminotransferase [Enzymatic activity/volume] in Serum or Plasma"/>
            </code>
            <subject>
               <reference value="urn:uuid:89fbe331-a063-48e8-9b36-5cc10dbf6b7b"/>
               <display value="Eileen Taylor"/>
            </subject>
            <effectiveDateTime value="2021-04-12T05:47:02Z"/>
            <performer>
               <display value="The Central European Lab"/>
            </performer>
            <valueQuantity>
               <value value="20.5"/>
               <unit value="U/L"/>
               <system value="http://unitsofmeasure.org"/>
               <code value="U/L"/>
            </valueQuantity>
            <specimen>
               <reference value="urn:uuid:cd414d0a-3a62-465e-9db3-a96212bdc3f5"/>
            </specimen>
            <referenceRange>
               <low>
                  <value value="13"/>
                  <system value="http://unitsofmeasure.org"/>
                  <code value="U/L"/>
               </low>
            </referenceRange>
            <referenceRange>
               <high>
                  <value value="36"/>
                  <system value="http://unitsofmeasure.org"/>
                  <code value="U/L"/>
               </high>
            </referenceRange>
         </Observation>
      </resource>
   </entry>
   <entry>
      <fullUrl value="urn:uuid:ad08400e-954d-40ae-b3a3-760e9a222481"/>
      <resource>
         <Observation>
            <id value="ad08400e-954d-40ae-b3a3-760e9a222481"/>
            <meta>
               <profile value="http://hl7.eu/fhir/laboratory/StructureDefinition/Observation-resultslab-eu-lab"/>
            </meta>
            <text>
               <status value="generated"/>
               <div xmlns="http://www.w3.org/1999/xhtml">
                  <table class="hl7__eu__lab__report">
                     <tr>
                        <th>Test</th>
                        <th>12-Apr-2021</th>
                        <th>Reference Range</th>
                        <th>Unit</th>
                     </tr>
                     <tr>
                        <td>Aspartate aminotransferase [Enzymatic activity/volume] in Serum or Plasma</td>
                        <td>7.2</td>
                        <td>10 - 40</td>
                        <td>L</td>
                        <td>U/L</td>
                     </tr>
                  </table>
               </div>
            </text>
            <status value="final"/>
            <category>
               <coding>
                  <system value="http://terminology.hl7.org/CodeSystem/observation-category"/>
                  <code value="laboratory"/>
               </coding>
            </category>
            <code>
               <coding>
                  <system value="http://loinc.org"/>
                  <code value="1920-8"/>
                  <display value="Aspartate aminotransferase [Enzymatic activity/volume] in Serum or Plasma"/>
               </coding>
               <text value="Aspartate aminotransferase [Enzymatic activity/volume] in Serum or Plasma"/>
            </code>
            <subject>
               <reference value="urn:uuid:89fbe331-a063-48e8-9b36-5cc10dbf6b7b"/>
               <display value="Eileen Taylor"/>
            </subject>
            <effectiveDateTime value="2021-04-12T05:47:02Z"/>
            <performer>
               <display value="The Central European Lab"/>
            </performer>
            <valueQuantity>
               <value value="7.2"/>
               <unit value="U/L"/>
               <system value="http://unitsofmeasure.org"/>
               <code value="U/L"/>
            </valueQuantity>
            <interpretation>
               <coding>
                  <system value="http://terminology.hl7.org/CodeSystem/v3-ObservationInterpretation"/>
                  <code value="L"/>
                  <display value="Low"/>
               </coding>
            </interpretation>
            <specimen>
               <reference value="urn:uuid:cd414d0a-3a62-465e-9db3-a96212bdc3f5"/>
            </specimen>
            <referenceRange>
               <low>
                  <value value="10"/>
                  <system value="http://unitsofmeasure.org"/>
                  <code value="U/L"/>
               </low>
            </referenceRange>
            <referenceRange>
               <high>
                  <value value="40"/>
                  <system value="http://unitsofmeasure.org"/>
                  <code value="U/L"/>
               </high>
            </referenceRange>
         </Observation>
      </resource>
   </entry>
   <entry>
      <fullUrl value="urn:uuid:ced29e7f-bd64-4e2a-b8ae-9676931c12b4"/>
      <resource>
         <Observation>
            <id value="ced29e7f-bd64-4e2a-b8ae-9676931c12b4"/>
            <meta>
               <profile value="http://hl7.eu/fhir/laboratory/StructureDefinition/Observation-resultslab-eu-lab"/>
            </meta>
            <text>
               <status value="generated"/>
               <div xmlns="http://www.w3.org/1999/xhtml">
                  <table class="hl7__eu__lab__report">
                     <tr>
                        <th>Test</th>
                        <th>12-Apr-2021</th>
                        <th>Reference Range</th>
                        <th>Unit</th>
                     </tr>
                     <tr>
                        <td>Cholesterol [Mass/volume] in Serum or Plasma</td>
                        <td>152.6</td>
                        <td>130 - 200</td>
                        <td/>
                        <td>mg/dL</td>
                     </tr>
                  </table>
               </div>
            </text>
            <status value="final"/>
            <category>
               <coding>
                  <system value="http://terminology.hl7.org/CodeSystem/observation-category"/>
                  <code value="laboratory"/>
               </coding>
            </category>
            <code>
               <coding>
                  <system value="http://loinc.org"/>
                  <code value="2093-3"/>
                  <display value="Cholesterol [Mass/volume] in Serum or Plasma"/>
               </coding>
               <text value="Cholesterol [Mass/volume] in Serum or Plasma"/>
            </code>
            <subject>
               <reference value="urn:uuid:89fbe331-a063-48e8-9b36-5cc10dbf6b7b"/>
               <display value="Eileen Taylor"/>
            </subject>
            <effectiveDateTime value="2021-04-12T05:47:02Z"/>
            <performer>
               <display value="The Central European Lab"/>
            </performer>
            <valueQuantity>
               <value value="152.6"/>
               <unit value="mg/dL"/>
               <system value="http://unitsofmeasure.org"/>
               <code value="mg/dL"/>
            </valueQuantity>
            <specimen>
               <reference value="urn:uuid:cd414d0a-3a62-465e-9db3-a96212bdc3f5"/>
            </specimen>
            <referenceRange>
               <low>
                  <value value="130"/>
                  <system value="http://unitsofmeasure.org"/>
                  <code value="mg/dL"/>
               </low>
            </referenceRange>
            <referenceRange>
               <high>
                  <value value="200"/>
                  <system value="http://unitsofmeasure.org"/>
                  <code value="mg/dL"/>
               </high>
            </referenceRange>
         </Observation>
      </resource>
   </entry>
   <entry>
      <fullUrl value="urn:uuid:9c535c6f-8529-4a53-a1ac-1a18259b7674"/>
      <resource>
         <Observation>
            <id value="9c535c6f-8529-4a53-a1ac-1a18259b7674"/>
            <meta>
               <profile value="http://hl7.eu/fhir/laboratory/StructureDefinition/Observation-resultslab-eu-lab"/>
            </meta>
            <text>
               <status value="generated"/>
               <div xmlns="http://www.w3.org/1999/xhtml">
                  <table class="hl7__eu__lab__report">
                     <tr>
                        <th>Test</th>
                        <th>12-Apr-2021</th>
                        <th>Reference Range</th>
                        <th>Unit</th>
                     </tr>
                     <tr>
                        <td>Triglyceride [Mass/volume] in Serum or Plasma</td>
                        <td>156.9</td>
                        <td>35 - 175</td>
                        <td/>
                        <td>mg/dL</td>
                     </tr>
                  </table>
               </div>
            </text>
            <status value="final"/>
            <category>
               <coding>
                  <system value="http://terminology.hl7.org/CodeSystem/observation-category"/>
                  <code value="laboratory"/>
               </coding>
            </category>
            <code>
               <coding>
                  <system value="http://loinc.org"/>
                  <code value="2571-8"/>
                  <display value="Triglyceride [Mass/volume] in Serum or Plasma"/>
               </coding>
               <text value="Triglyceride [Mass/volume] in Serum or Plasma"/>
            </code>
            <subject>
               <reference value="urn:uuid:89fbe331-a063-48e8-9b36-5cc10dbf6b7b"/>
               <display value="Eileen Taylor"/>
            </subject>
            <effectiveDateTime value="2021-04-12T05:47:02Z"/>
            <performer>
               <display value="The Central European Lab"/>
            </performer>
            <valueQuantity>
               <value value="156.9"/>
               <unit value="mg/dL"/>
               <system value="http://unitsofmeasure.org"/>
               <code value="mg/dL"/>
            </valueQuantity>
            <specimen>
               <reference value="urn:uuid:cd414d0a-3a62-465e-9db3-a96212bdc3f5"/>
            </specimen>
            <referenceRange>
               <low>
                  <value value="35"/>
                  <system value="http://unitsofmeasure.org"/>
                  <code value="mg/dL"/>
               </low>
            </referenceRange>
            <referenceRange>
               <high>
                  <value value="175"/>
                  <system value="http://unitsofmeasure.org"/>
                  <code value="mg/dL"/>
               </high>
            </referenceRange>
         </Observation>
      </resource>
   </entry>
   <entry>
      <fullUrl value="urn:uuid:1613e8e8-dc21-4204-a5bd-fb75113b84e4"/>
      <resource>
         <Observation>
            <id value="1613e8e8-dc21-4204-a5bd-fb75113b84e4"/>
            <meta>
               <profile value="http://hl7.eu/fhir/laboratory/StructureDefinition/Observation-resultslab-eu-lab"/>
            </meta>
            <text>
               <status value="generated"/>
               <div xmlns="http://www.w3.org/1999/xhtml">
                  <table class="hl7__eu__lab__report">
                     <tr>
                        <th>Test</th>
                        <th>12-Apr-2021</th>
                        <th>Reference Range</th>
                        <th>Unit</th>
                     </tr>
                     <tr>
                        <td>Cholesterol in LDL [Mass/volume] in Serum or Plasma by Direct assay</td>
                        <td>120.4</td>
                        <td>0 - 190</td>
                        <td/>
                        <td>mg/dL</td>
                     </tr>
                  </table>
               </div>
            </text>
            <status value="final"/>
            <category>
               <coding>
                  <system value="http://terminology.hl7.org/CodeSystem/observation-category"/>
                  <code value="laboratory"/>
               </coding>
            </category>
            <code>
               <coding>
                  <system value="http://loinc.org"/>
                  <code value="18262-6"/>
                  <display value="Cholesterol in LDL [Mass/volume] in Serum or Plasma by Direct assay"/>
               </coding>
               <text value="Cholesterol in LDL [Mass/volume] in Serum or Plasma by Direct assay"/>
            </code>
            <subject>
               <reference value="urn:uuid:89fbe331-a063-48e8-9b36-5cc10dbf6b7b"/>
               <display value="Eileen Taylor"/>
            </subject>
            <effectiveDateTime value="2021-04-12T05:47:02Z"/>
            <performer>
               <display value="The Central European Lab"/>
            </performer>
            <valueQuantity>
               <value value="120.4"/>
               <unit value="mg/dL"/>
               <system value="http://unitsofmeasure.org"/>
               <code value="mg/dL"/>
            </valueQuantity>
            <specimen>
               <reference value="urn:uuid:cd414d0a-3a62-465e-9db3-a96212bdc3f5"/>
            </specimen>
            <referenceRange>
               <low>
                  <value value="0"/>
                  <system value="http://unitsofmeasure.org"/>
                  <code value="mg/dL"/>
               </low>
            </referenceRange>
            <referenceRange>
               <high>
                  <value value="190"/>
                  <system value="http://unitsofmeasure.org"/>
                  <code value="mg/dL"/>
               </high>
            </referenceRange>
         </Observation>
      </resource>
   </entry>
   <entry>
      <fullUrl value="urn:uuid:2b4f8536-7d8b-4d43-9432-43a49b5c9427"/>
      <resource>
         <Observation>
            <id value="2b4f8536-7d8b-4d43-9432-43a49b5c9427"/>
            <meta>
               <profile value="http://hl7.eu/fhir/laboratory/StructureDefinition/Observation-resultslab-eu-lab"/>
            </meta>
            <text>
               <status value="generated"/>
               <div xmlns="http://www.w3.org/1999/xhtml">
                  <table class="hl7__eu__lab__report">
                     <tr>
                        <th>Test</th>
                        <th>12-Apr-2021</th>
                        <th>Reference Range</th>
                        <th>Unit</th>
                     </tr>
                     <tr>
                        <td>Cholesterol in HDL [Mass/volume] in Serum or Plasma</td>
                        <td>66.6</td>
                        <td>50 - 100</td>
                        <td/>
                        <td>mg/dL</td>
                     </tr>
                  </table>
               </div>
            </text>
            <status value="final"/>
            <category>
               <coding>
                  <system value="http://terminology.hl7.org/CodeSystem/observation-category"/>
                  <code value="laboratory"/>
               </coding>
            </category>
            <code>
               <coding>
                  <system value="http://loinc.org"/>
                  <code value="2085-9"/>
                  <display value="Cholesterol in HDL [Mass/volume] in Serum or Plasma"/>
               </coding>
               <text value="Cholesterol in HDL [Mass/volume] in Serum or Plasma"/>
            </code>
            <subject>
               <reference value="urn:uuid:89fbe331-a063-48e8-9b36-5cc10dbf6b7b"/>
               <display value="Eileen Taylor"/>
            </subject>
            <effectiveDateTime value="2021-04-12T05:47:02Z"/>
            <performer>
               <display value="The Central European Lab"/>
            </performer>
            <valueQuantity>
               <value value="66.6"/>
               <unit value="mg/dL"/>
               <system value="http://unitsofmeasure.org"/>
               <code value="mg/dL"/>
            </valueQuantity>
            <specimen>
               <reference value="urn:uuid:cd414d0a-3a62-465e-9db3-a96212bdc3f5"/>
            </specimen>
            <referenceRange>
               <low>
                  <value value="50"/>
                  <system value="http://unitsofmeasure.org"/>
                  <code value="mg/dL"/>
               </low>
            </referenceRange>
            <referenceRange>
               <high>
                  <value value="100"/>
                  <system value="http://unitsofmeasure.org"/>
                  <code value="mg/dL"/>
               </high>
            </referenceRange>
         </Observation>
      </resource>
   </entry>
   <entry>
      <fullUrl value="urn:uuid:b768b8ac-2f13-440a-b2ab-950d44a1b3e6"/>
      <resource>
         <Device>
            <id value="b768b8ac-2f13-440a-b2ab-950d44a1b3e6"/>
            <text>
               <status value="generated"/>
               <div xmlns="http://www.w3.org/1999/xhtml">SYNDERAI Synthetic Generator v5.0</div>
            </text>
            <status value="active&#34;"/>
            <distinctIdentifier value="synderai-generator-50"/>
            <manufacturer value="SYNDERAI Project"/>
            <deviceName>
               <name value="SYNDERAI Synthetic Generator"/>
               <type value="manufacturer-name"/>
            </deviceName>
            <version>
               <value value="5.0"/>
            </version>
         </Device>
      </resource>
   </entry>
   <entry>
      <fullUrl value="urn:uuid:47ee0ced-2c5d-4102-9555-a3e2190ab2b6"/>
      <resource>
         <Provenance>
            <id value="47ee0ced-2c5d-4102-9555-a3e2190ab2b6"/>
            <text>
               <status value="generated"/>
               <div xmlns="http://www.w3.org/1999/xhtml">Provenance for SYNDERAI Synthetic Example Data Resource</div>
            </text>
            <target>
               <reference value="Patient/89fbe331-a063-48e8-9b36-5cc10dbf6b7b"/>
            </target>
            <target>
               <reference value="Bundle/24abe25d-ba6c-4307-ac0c-d1a763901186"/>
            </target>
            <target>
               <reference value="Composition/8fd3e775-d2bd-43bd-8bcf-9c943dcfde13"/>
            </target>
            <target>
               <reference value="PractitionerRole/0b22dc72-b64c-4057-9509-9477e645d7b9"/>
            </target>
            <target>
               <reference value="Practitioner/2e706205-8642-400b-91b9-bae040356b0d"/>
            </target>
            <target>
               <reference value="PractitionerRole/1de860c5-6872-459d-b9b2-a5b32f299b14"/>
            </target>
            <target>
               <reference value="Organization/633473ed-6cc3-4fe2-90fb-4a9b5ce75670"/>
            </target>
            <recorded value="2021-04-12T07:47:02Z"/>
            <policy value="https://synderai.net/synderai-synthetic-data-policy"/>
            <reason>
               <text value="Interoperability Testing and Training (non-clinical use)"/>
            </reason>
            <activity>
               <text value="Synthetic Example Data Generation"/>
            </activity>
            <agent>
               <type>
                  <text value="author"/>
               </type>
               <who>
                  <reference value="Device/b768b8ac-2f13-440a-b2ab-950d44a1b3e6"/>
               </who>
            </agent>
         </Provenance>
      </resource>
   </entry>
   <entry>
      <fullUrl value="urn:uuid:0b22dc72-b64c-4057-9509-9477e645d7b9"/>
      <resource>
         <PractitionerRole>
            <id value="0b22dc72-b64c-4057-9509-9477e645d7b9"/>
            <meta>
               <profile value="http://hl7.eu/fhir/base/StructureDefinition/practitionerRole-eu"/>
            </meta>
            <text>
               <status value="generated"/>
               <div xmlns="http://www.w3.org/1999/xhtml">Laboratory Role Id: 0b22dc72-b64c-4057-9509-9477e645d7b9</div>
            </text>
            <practitioner>
               <reference value="urn:uuid:2e706205-8642-400b-91b9-bae040356b0d"/>
            </practitioner>
         </PractitionerRole>
      </resource>
   </entry>
   <entry>
      <fullUrl value="urn:uuid:2e706205-8642-400b-91b9-bae040356b0d"/>
      <resource>
         <Practitioner>
            <id value="2e706205-8642-400b-91b9-bae040356b0d"/>
            <meta>
               <profile value="http://hl7.eu/fhir/base/StructureDefinition/practitioner-eu"/>
            </meta>
            <text>
               <status value="generated"/>
               <div xmlns="http://www.w3.org/1999/xhtml">Laboratory: Laboratoire Central Européenne, 1000 Brussels, Belgium</div>
            </text>
            <identifier>
               <system value="urn:oid:2.16.840.1.113883.2.51.999"/>
               <value value="98ebaa0e-2029-4013-9884-22a873384cf6"/>
               <assigner>
                  <display value="HL7 Europe"/>
               </assigner>
            </identifier>
            <name>
               <family value="Ample"/>
               <given value="Ex"/>
               <prefix value="dr"/>
            </name>
            <address>
               <line value="Laboratoire Central Européenne"/>
               <line value="Boulevard du Jardin Botanique 32"/>
               <city value="Brussels"/>
               <postalCode value="1000"/>
               <country value="Belgium"/>
            </address>
         </Practitioner>
      </resource>
   </entry>
</Bundle>