{
  "resourceType": "Bundle",
  "id": "5300b8ed-11f6-4eba-8296-053d7ee3610d",
  "meta": {
    "profile": [
      "http://hl7.eu/fhir/laboratory/StructureDefinition/Bundle-eu-lab"
    ]
  },
  "identifier": {
    "assigner": {
      "display": "HL7 Europe"
    },
    "system": "urn:oid:2.16.840.1.113883.2.51.999",
    "value": "e8ce1aba-f45c-4861-b38e-1fdde428f5a9"
  },
  "entry": [
    {
      "fullUrl": "urn:uuid:92b7adc1-c360-4a26-ade1-ddc6d575f3f2",
      "resource": {
        "resourceType": "Composition",
        "id": "92b7adc1-c360-4a26-ade1-ddc6d575f3f2",
        "meta": {
          "profile": [
            "http://hl7.eu/fhir/laboratory/StructureDefinition/Composition-eu-lab"
          ]
        },
        "identifier": {
          "assigner": {
            "display": "HL7 Europe"
          },
          "system": "urn:oid:2.16.840.1.113883.2.51.999",
          "value": "40e6fc1a-af58-4b48-9498-cec430d74574"
        },
        "author": [
          {
            "reference": "urn:uuid:b6ead407-2004-4eae-9679-e42a6619c336"
          }
        ],
        "category": [
          {
            "coding": [
              {
                "code": "26436-6",
                "system": "http://loinc.org",
                "display": "Laboratory studies (set)"
              }
            ]
          }
        ],
        "type": {
          "coding": [
            {
              "code": "11502-2",
              "system": "http://loinc.org",
              "display": "Laboratory report"
            }
          ],
          "text": "Laboratory Report"
        },
        "section": [
          {
            "code": {
              "coding": [
                {
                  "code": "26436-6",
                  "system": "http://loinc.org",
                  "display": "Laboratory studies (set)"
                }
              ],
              "text": "Laboratory studies"
            },
            "section": [
              {
                "code": {
                  "coding": [
                    {
                      "code": "$18719-5",
                      "system": "http://loinc.org",
                      "display": "Chemistry studies (set)"
                    }
                  ],
                  "text": "Chemistry"
                },
                "entry": [
                  {
                    "reference": "urn:uuid:be441a6c-0b5f-4994-8b45-f3eb05ae626b"
                  },
                  {
                    "reference": "urn:uuid:a87751e9-c4c6-4f63-a4f1-9be93cb8e7bf"
                  },
                  {
                    "reference": "urn:uuid:f0b6315a-7adc-4575-97b5-ef72edd52cb5"
                  },
                  {
                    "reference": "urn:uuid:3796f3b4-8aa5-4edc-a4cf-86a9766604b8"
                  },
                  {
                    "reference": "urn:uuid:32dda814-44dd-4835-8cb2-e67eb44a5364"
                  },
                  {
                    "reference": "urn:uuid:f7a04b45-37ef-4b8f-9a94-521018c5f882"
                  },
                  {
                    "reference": "urn:uuid:0cce451c-10ef-42ef-a267-4079b8e237e3"
                  },
                  {
                    "reference": "urn:uuid:dafb779a-b4f8-4eb4-8ab0-a4415fc1a8b1"
                  },
                  {
                    "reference": "urn:uuid:84f7379e-1629-444f-981e-6d290cd77d6f"
                  }
                ],
                "text": {
                  "status": "generated",
                  "div": "<div xmlns=\"http://www.w3.org/1999/xhtml\"><h3>Chemistry</h3><table class=\"hl7__eu__lab__report\"><thead><tr><th>Test</th><th>03-APR-2022</th><th>Reference&#xA0;Range</th><th>Unit</th></tr></thead><tbody><tr><td>Hemoglobin A1c/Hemoglobin.total in Blood</td><td><strong>6.1 H</strong></td><td>4.8 - 5.7</td><td>%</td></tr><tr><td>Glucose [Mass/volume] in Blood</td><td><strong>64.8 L</strong></td><td>70 - 140</td><td>mg/dL</td></tr><tr><td>Urea nitrogen [Mass/volume] in Blood</td><td>11.9</td><td>7 - 20</td><td>mg/dL</td></tr><tr><td>Creatinine [Mass/volume] in Blood</td><td><strong>1.3 H</strong></td><td>0.6 - 1.2</td><td>mg/dL</td></tr><tr><td>Calcium [Mass/volume] in Blood</td><td>8.7</td><td>8.5 - 10.4</td><td>mg/dL</td></tr><tr><td>Sodium [Moles/volume] in Blood</td><td>143.5</td><td>135 - 145</td><td>mmol/L</td></tr><tr><td>Potassium [Moles/volume] in Blood</td><td>4.0</td><td>3.5 - 5.1</td><td>mmol/L</td></tr><tr><td>Chloride [Moles/volume] in Blood</td><td>101.4</td><td>98 - 107</td><td>mmol/L</td></tr><tr><td>Carbon dioxide, total [Moles/volume] in Blood</td><td>27.7</td><td>22 - 29</td><td>mmol/L</td></tr></tbody></table></div>"
                },
                "title": "Chemistry"
              }
            ],
            "title": "Laboratory Report"
          },
          {
            "text": {
              "status": "generated",
              "div": "<div xmlns=\"http://www.w3.org/1999/xhtml\"><h3>Annotation</h3><table class=\"hl7__eu__lab__report\"><tr><th>Conclusion and Recommendations based on this report and previous findings known to us</th></tr><tr><td>The patient shows mildly elevated HbA1c, suggesting impaired glucose regulation or early diabetes, despite a low fasting glucose which may indicate recent hypoglycemia or dietary factors. Creatinine is slightly elevated, warranting assessment of renal function. Other parameters are within normal limits. Clinical correlation and follow-up are recommended.</td></tr></table></div>"
            },
            "code": {
              "coding": [
                {
                  "system": "http://loinc.org",
                  "code": "48767-8",
                  "display": "Annotation comment"
                }
              ]
            },
            "title": "Annotation comment"
          }
        ],
        "status": "final",
        "subject": {
          "reference": "urn:uuid:85a0c32e-4e56-4f1e-8a6e-2506a32bd6e2",
          "display": "Katy Johnston"
        },
        "date": "2022-04-03T11:58:49Z",
        "title": "Laboratory Report",
        "confidentiality": "N"
      }
    },
    {
      "fullUrl": "urn:uuid:1d42ac32-baed-4572-875a-2a52c40f919a",
      "resource": {
        "resourceType": "DiagnosticReport",
        "id": "1d42ac32-baed-4572-875a-2a52c40f919a",
        "meta": {
          "profile": [
            "http://hl7.eu/fhir/laboratory/StructureDefinition/DiagnosticReport-eu-lab"
          ]
        },
        "identifier": [
          {
            "assigner": {
              "display": "HL7 Europe"
            },
            "system": "urn:oid:2.16.840.1.113883.2.51.999",
            "value": "7350fa34-160d-4638-9200-16cc469520a5"
          }
        ],
        "extension": [
          {
            "url": "http://hl7.org/fhir/5.0/StructureDefinition/extension-DiagnosticReport.composition",
            "valueReference": {
              "reference": "urn:uuid:40e6fc1a-af58-4b48-9498-cec430d74574"
            }
          }
        ],
        "category": [
          {
            "coding": [
              {
                "code": "26436-6",
                "system": "http://loinc.org",
                "display": "Laboratory studies (set)"
              }
            ]
          }
        ],
        "specimen": [
          {
            "reference": "urn:uuid:6d9a2cf4-197c-44c0-86ca-7a5a9b768eb9"
          }
        ],
        "result": [
          {
            "reference": "urn:uuid:be441a6c-0b5f-4994-8b45-f3eb05ae626b"
          },
          {
            "reference": "urn:uuid:a87751e9-c4c6-4f63-a4f1-9be93cb8e7bf"
          },
          {
            "reference": "urn:uuid:f0b6315a-7adc-4575-97b5-ef72edd52cb5"
          },
          {
            "reference": "urn:uuid:3796f3b4-8aa5-4edc-a4cf-86a9766604b8"
          },
          {
            "reference": "urn:uuid:32dda814-44dd-4835-8cb2-e67eb44a5364"
          },
          {
            "reference": "urn:uuid:f7a04b45-37ef-4b8f-9a94-521018c5f882"
          },
          {
            "reference": "urn:uuid:0cce451c-10ef-42ef-a267-4079b8e237e3"
          },
          {
            "reference": "urn:uuid:dafb779a-b4f8-4eb4-8ab0-a4415fc1a8b1"
          },
          {
            "reference": "urn:uuid:84f7379e-1629-444f-981e-6d290cd77d6f"
          }
        ],
        "status": "registered",
        "code": {
          "coding": [
            {
              "code": "11502-2",
              "system": "http://loinc.org",
              "display": "Laboratory report"
            }
          ]
        },
        "subject": {
          "reference": "urn:uuid:85a0c32e-4e56-4f1e-8a6e-2506a32bd6e2",
          "display": "Katy Johnston"
        }
      }
    },
    {
      "fullUrl": "urn:uuid:85a0c32e-4e56-4f1e-8a6e-2506a32bd6e2",
      "resource": {
        "resourceType": "Patient",
        "id": "85a0c32e-4e56-4f1e-8a6e-2506a32bd6e2",
        "meta": {
          "security": [
            {
              "system": "http://terminology.hl7.org/CodeSystem/v3-ActReason",
              "code": "HTEST"
            },
            {
              "system": "http://terminology.hl7.org/CodeSystem/v3-ActReason",
              "code": "TRAIN"
            }
          ],
          "tag": [
            {
              "system": "https://synderai.net/fhir/CodeSystem/tags",
              "code": "synthetic",
              "display": "SYNDERAI Synthetic data"
            }
          ],
          "profile": [
            "http://hl7.eu/fhir/base/StructureDefinition/patient-eu-core"
          ]
        },
        "identifier": [
          {
            "type": {
              "coding": [
                {
                  "code": "PT",
                  "system": "http://terminology.hl7.org/CodeSystem/v2-0203"
                }
              ]
            },
            "system": "http://ec.europa.eu/identifier/eci",
            "value": "1854-452946-6"
          },
          {
            "type": {
              "coding": [
                {
                  "code": "MR",
                  "system": "http://terminology.hl7.org/CodeSystem/v2-0203"
                }
              ]
            },
            "system": "http://local.setting.eu/identifier",
            "value": "f94741cf-8405-9657-1aec-b3bd1788b46e"
          }
        ],
        "name": [
          {
            "family": "Johnston"
          },
          {
            "given": [
              "Katy"
            ]
          },
          {
            "text": "Katy Johnston"
          }
        ],
        "address": [
          {
            "line": [
              "Flat 16f",
              "Stokes roads"
            ],
            "use": "home",
            "type": "physical",
            "postalCode": "E1",
            "city": "London",
            "country": "United Kingdom"
          }
        ],
        "telecom": [
          {
            "system": "phone",
            "value": "+44808 1570256"
          }
        ],
        "extension": [
          {
            "url": "http://hl7.org/fhir/StructureDefinition/patient-nationality",
            "valueCodeableConcept": {
              "coding": [
                {
                  "code": "GB",
                  "system": "http://hl7.org/fhir/ValueSet/country"
                }
              ]
            }
          }
        ],
        "text": {
          "status": "generated",
          "div": "<div xmlns=\"http://www.w3.org/1999/xhtml\"><table class=\"hl7__ips\"><tr><td>Katy Johnston</td><td>female</td><td>19-Sep-1988</td></tr></table></div>"
        },
        "gender": "female",
        "birthDate": "1988-09-19"
      }
    },
    {
      "fullUrl": "urn:uuid:c09ffcde-0285-4a22-ba39-65e458dc8b25",
      "resource": {
        "resourceType": "ServiceRequest",
        "id": "c09ffcde-0285-4a22-ba39-65e458dc8b25",
        "meta": {
          "profile": [
            "http://hl7.eu/fhir/laboratory/StructureDefinition/ServiceRequest-eu-lab"
          ]
        },
        "identifier": [
          {
            "system": "http://example.org",
            "value": "704d4518-e46d-449e-8770-37fd24d0d03e"
          }
        ],
        "specimen": [
          {
            "reference": "urn:uuid:6d9a2cf4-197c-44c0-86ca-7a5a9b768eb9"
          }
        ],
        "reasonCode": [
          {
            "coding": [
              {
                "code": "284549007",
                "system": "http://snomed.info/sct",
                "display": "Laceration of hand"
              }
            ]
          },
          {
            "coding": [
              {
                "code": "312608009",
                "system": "http://snomed.info/sct",
                "display": "Laceration - injury"
              }
            ]
          },
          {
            "coding": [
              {
                "code": "15777000",
                "system": "http://snomed.info/sct",
                "display": "Prediabetes"
              }
            ]
          },
          {
            "coding": [
              {
                "code": "271737000",
                "system": "http://snomed.info/sct",
                "display": "Anemia"
              }
            ]
          },
          {
            "coding": [
              {
                "code": "203082005",
                "system": "http://snomed.info/sct",
                "display": "Fibromyalgia"
              }
            ]
          },
          {
            "coding": [
              {
                "code": "6525002",
                "system": "http://snomed.info/sct",
                "display": "Dependent drug abuse"
              }
            ]
          },
          {
            "coding": [
              {
                "code": "124171000119105",
                "system": "http://snomed.info/sct",
                "display": "Chronic intractable migraine without aura"
              }
            ]
          },
          {
            "coding": [
              {
                "code": "196416002",
                "system": "http://snomed.info/sct",
                "display": "Impacted molars"
              }
            ]
          }
        ],
        "status": "active",
        "intent": "order",
        "code": {
          "coding": [
            {
              "code": "108252007",
              "system": "http://snomed.info/sct",
              "display": "Laboratory procedure"
            }
          ]
        },
        "subject": {
          "reference": "urn:uuid:85a0c32e-4e56-4f1e-8a6e-2506a32bd6e2",
          "display": "Katy Johnston"
        },
        "requester": {
          "reference": "urn:uuid:68040e6b-10fd-48fb-bc5c-ff2df4b9928e"
        }
      }
    },
    {
      "fullUrl": "urn:uuid:68040e6b-10fd-48fb-bc5c-ff2df4b9928e",
      "resource": {
        "resourceType": "PractitionerRole",
        "id": "68040e6b-10fd-48fb-bc5c-ff2df4b9928e",
        "meta": {
          "profile": [
            "http://hl7.eu/fhir/base/StructureDefinition/practitionerRole-eu"
          ]
        },
        "text": {
          "status": "generated",
          "div": "<div xmlns=\"http://www.w3.org/1999/xhtml\">Provider Role Id: 68040e6b-10fd-48fb-bc5c-ff2df4b9928e</div>"
        },
        "organization": {
          "reference": "urn:uuid:024d24cc-2af5-494e-a1f5-d0efba33e28a"
        }
      }
    },
    {
      "fullUrl": "urn:uuid:024d24cc-2af5-494e-a1f5-d0efba33e28a",
      "resource": {
        "resourceType": "Organization",
        "id": "024d24cc-2af5-494e-a1f5-d0efba33e28a",
        "meta": {
          "profile": [
            "http://hl7.eu/fhir/base/StructureDefinition/organization-eu"
          ]
        },
        "identifier": [
          {
            "assigner": {
              "display": "HL7 Europe"
            },
            "system": "urn:oid:2.16.840.1.113883.2.51.999",
            "value": "1ea9144f-c56b-4e61-9b54-687ab79c1214"
          }
        ],
        "address": [
          {
            "city": "London",
            "postalCode": "SE1 7",
            "country": "United Kingdom"
          }
        ],
        "text": {
          "status": "generated",
          "div": "<div xmlns=\"http://www.w3.org/1999/xhtml\">Provider Organization: Evelina Children&#039;s Hospital</div>"
        },
        "name": "Evelina Children&#039;s Hospital"
      }
    },
    {
      "fullUrl": "urn:uuid:6d9a2cf4-197c-44c0-86ca-7a5a9b768eb9",
      "resource": {
        "resourceType": "Specimen",
        "id": "6d9a2cf4-197c-44c0-86ca-7a5a9b768eb9",
        "meta": {
          "profile": [
            "http://hl7.eu/fhir/laboratory/StructureDefinition/Specimen-eu-lab"
          ]
        },
        "collection": {
          "collectedDateTime": "2022-04-03"
        },
        "text": {
          "status": "generated",
          "div": "<div xmlns=\"http://www.w3.org/1999/xhtml\"><table class=\"hl7__eu__lab__report\"><tr><th>Specimen</th><th>Collection Date</th></tr><tr><td>Whole blood specimen (specimen)</td><td><span class=\"nb\">03-Apr-2022</span></td></tr></table></div>"
        },
        "type": {
          "coding": [
            {
              "code": "258580003",
              "system": "http://snomed.info/sct",
              "display": "Whole blood specimen (specimen)"
            }
          ]
        }
      }
    },
    {
      "fullUrl": "urn:uuid:be441a6c-0b5f-4994-8b45-f3eb05ae626b",
      "resource": {
        "resourceType": "Observation",
        "id": "be441a6c-0b5f-4994-8b45-f3eb05ae626b",
        "meta": {
          "profile": [
            "http://hl7.eu/fhir/laboratory/StructureDefinition/Observation-resultslab-eu-lab"
          ]
        },
        "performer": [
          {
            "display": "The Central European Lab"
          }
        ],
        "category": [
          {
            "coding": [
              {
                "system": "http://terminology.hl7.org/CodeSystem/observation-category",
                "code": "laboratory"
              }
            ]
          }
        ],
        "code": {
          "coding": [
            {
              "code": "4548-4",
              "system": "http://loinc.org",
              "display": "Hemoglobin A1c/Hemoglobin.total in Blood"
            }
          ],
          "text": "Hemoglobin A1c/Hemoglobin.total in Blood"
        },
        "valueQuantity": {
          "system": "http://unitsofmeasure.org",
          "value": 6.1,
          "unit": "%",
          "code": "%"
        },
        "referenceRange": [
          {
            "low": {
              "value": 4.8,
              "code": "%",
              "system": "http://unitsofmeasure.org"
            }
          },
          {
            "high": {
              "value": 5.7,
              "code": "%",
              "system": "http://unitsofmeasure.org"
            }
          }
        ],
        "interpretation": [
          {
            "coding": [
              {
                "code": "H",
                "system": "http://terminology.hl7.org/CodeSystem/v3-ObservationInterpretation",
                "display": "High"
              }
            ]
          }
        ],
        "text": {
          "status": "generated",
          "div": "<div xmlns=\"http://www.w3.org/1999/xhtml\"><table class=\"hl7__eu__lab__report\"><tr><th>Test</th><th>03-Apr-2022</th><th>Reference&#xA0;Range</th><th>Unit</th></tr><tr><td>Hemoglobin A1c/Hemoglobin.total in Blood</td><td>6.1</td><td>4.8 - 5.7</td><td>H</td><td>%</td></tr></table></div>"
        },
        "status": "final",
        "subject": {
          "reference": "urn:uuid:85a0c32e-4e56-4f1e-8a6e-2506a32bd6e2",
          "display": "Katy Johnston"
        },
        "effectiveDateTime": "2022-04-03T09:58:49Z",
        "specimen": {
          "reference": "urn:uuid:6d9a2cf4-197c-44c0-86ca-7a5a9b768eb9"
        }
      }
    },
    {
      "fullUrl": "urn:uuid:a87751e9-c4c6-4f63-a4f1-9be93cb8e7bf",
      "resource": {
        "resourceType": "Observation",
        "id": "a87751e9-c4c6-4f63-a4f1-9be93cb8e7bf",
        "meta": {
          "profile": [
            "http://hl7.eu/fhir/laboratory/StructureDefinition/Observation-resultslab-eu-lab"
          ]
        },
        "performer": [
          {
            "display": "The Central European Lab"
          }
        ],
        "category": [
          {
            "coding": [
              {
                "system": "http://terminology.hl7.org/CodeSystem/observation-category",
                "code": "laboratory"
              }
            ]
          }
        ],
        "code": {
          "coding": [
            {
              "code": "2339-0",
              "system": "http://loinc.org",
              "display": "Glucose [Mass/volume] in Blood"
            }
          ],
          "text": "Glucose [Mass/volume] in Blood"
        },
        "valueQuantity": {
          "system": "http://unitsofmeasure.org",
          "value": 64.8,
          "unit": "mg/dL",
          "code": "mg/dL"
        },
        "referenceRange": [
          {
            "low": {
              "value": 70,
              "code": "mg/dL",
              "system": "http://unitsofmeasure.org"
            }
          },
          {
            "high": {
              "value": 140,
              "code": "mg/dL",
              "system": "http://unitsofmeasure.org"
            }
          }
        ],
        "interpretation": [
          {
            "coding": [
              {
                "code": "L",
                "system": "http://terminology.hl7.org/CodeSystem/v3-ObservationInterpretation",
                "display": "Low"
              }
            ]
          }
        ],
        "text": {
          "status": "generated",
          "div": "<div xmlns=\"http://www.w3.org/1999/xhtml\"><table class=\"hl7__eu__lab__report\"><tr><th>Test</th><th>03-Apr-2022</th><th>Reference&#xA0;Range</th><th>Unit</th></tr><tr><td>Glucose [Mass/volume] in Blood</td><td>64.8</td><td>70 - 140</td><td>L</td><td>mg/dL</td></tr></table></div>"
        },
        "status": "final",
        "subject": {
          "reference": "urn:uuid:85a0c32e-4e56-4f1e-8a6e-2506a32bd6e2",
          "display": "Katy Johnston"
        },
        "effectiveDateTime": "2022-04-03T09:58:49Z",
        "specimen": {
          "reference": "urn:uuid:6d9a2cf4-197c-44c0-86ca-7a5a9b768eb9"
        }
      }
    },
    {
      "fullUrl": "urn:uuid:f0b6315a-7adc-4575-97b5-ef72edd52cb5",
      "resource": {
        "resourceType": "Observation",
        "id": "f0b6315a-7adc-4575-97b5-ef72edd52cb5",
        "meta": {
          "profile": [
            "http://hl7.eu/fhir/laboratory/StructureDefinition/Observation-resultslab-eu-lab"
          ]
        },
        "performer": [
          {
            "display": "The Central European Lab"
          }
        ],
        "category": [
          {
            "coding": [
              {
                "system": "http://terminology.hl7.org/CodeSystem/observation-category",
                "code": "laboratory"
              }
            ]
          }
        ],
        "code": {
          "coding": [
            {
              "code": "6299-2",
              "system": "http://loinc.org",
              "display": "Urea nitrogen [Mass/volume] in Blood"
            }
          ],
          "text": "Urea nitrogen [Mass/volume] in Blood"
        },
        "valueQuantity": {
          "system": "http://unitsofmeasure.org",
          "value": 11.9,
          "unit": "mg/dL",
          "code": "mg/dL"
        },
        "referenceRange": [
          {
            "low": {
              "value": 7,
              "code": "mg/dL",
              "system": "http://unitsofmeasure.org"
            }
          },
          {
            "high": {
              "value": 20,
              "code": "mg/dL",
              "system": "http://unitsofmeasure.org"
            }
          }
        ],
        "text": {
          "status": "generated",
          "div": "<div xmlns=\"http://www.w3.org/1999/xhtml\"><table class=\"hl7__eu__lab__report\"><tr><th>Test</th><th>03-Apr-2022</th><th>Reference&#xA0;Range</th><th>Unit</th></tr><tr><td>Urea nitrogen [Mass/volume] in Blood</td><td>11.9</td><td>7 - 20</td><td></td><td>mg/dL</td></tr></table></div>"
        },
        "status": "final",
        "subject": {
          "reference": "urn:uuid:85a0c32e-4e56-4f1e-8a6e-2506a32bd6e2",
          "display": "Katy Johnston"
        },
        "effectiveDateTime": "2022-04-03T09:58:49Z",
        "specimen": {
          "reference": "urn:uuid:6d9a2cf4-197c-44c0-86ca-7a5a9b768eb9"
        }
      }
    },
    {
      "fullUrl": "urn:uuid:3796f3b4-8aa5-4edc-a4cf-86a9766604b8",
      "resource": {
        "resourceType": "Observation",
        "id": "3796f3b4-8aa5-4edc-a4cf-86a9766604b8",
        "meta": {
          "profile": [
            "http://hl7.eu/fhir/laboratory/StructureDefinition/Observation-resultslab-eu-lab"
          ]
        },
        "performer": [
          {
            "display": "The Central European Lab"
          }
        ],
        "category": [
          {
            "coding": [
              {
                "system": "http://terminology.hl7.org/CodeSystem/observation-category",
                "code": "laboratory"
              }
            ]
          }
        ],
        "code": {
          "coding": [
            {
              "code": "38483-4",
              "system": "http://loinc.org",
              "display": "Creatinine [Mass/volume] in Blood"
            }
          ],
          "text": "Creatinine [Mass/volume] in Blood"
        },
        "valueQuantity": {
          "system": "http://unitsofmeasure.org",
          "value": 1.3,
          "unit": "mg/dL",
          "code": "mg/dL"
        },
        "referenceRange": [
          {
            "low": {
              "value": 0.6,
              "code": "mg/dL",
              "system": "http://unitsofmeasure.org"
            }
          },
          {
            "high": {
              "value": 1.2,
              "code": "mg/dL",
              "system": "http://unitsofmeasure.org"
            }
          }
        ],
        "interpretation": [
          {
            "coding": [
              {
                "code": "H",
                "system": "http://terminology.hl7.org/CodeSystem/v3-ObservationInterpretation",
                "display": "High"
              }
            ]
          }
        ],
        "text": {
          "status": "generated",
          "div": "<div xmlns=\"http://www.w3.org/1999/xhtml\"><table class=\"hl7__eu__lab__report\"><tr><th>Test</th><th>03-Apr-2022</th><th>Reference&#xA0;Range</th><th>Unit</th></tr><tr><td>Creatinine [Mass/volume] in Blood</td><td>1.3</td><td>0.6 - 1.2</td><td>H</td><td>mg/dL</td></tr></table></div>"
        },
        "status": "final",
        "subject": {
          "reference": "urn:uuid:85a0c32e-4e56-4f1e-8a6e-2506a32bd6e2",
          "display": "Katy Johnston"
        },
        "effectiveDateTime": "2022-04-03T09:58:49Z",
        "specimen": {
          "reference": "urn:uuid:6d9a2cf4-197c-44c0-86ca-7a5a9b768eb9"
        }
      }
    },
    {
      "fullUrl": "urn:uuid:32dda814-44dd-4835-8cb2-e67eb44a5364",
      "resource": {
        "resourceType": "Observation",
        "id": "32dda814-44dd-4835-8cb2-e67eb44a5364",
        "meta": {
          "profile": [
            "http://hl7.eu/fhir/laboratory/StructureDefinition/Observation-resultslab-eu-lab"
          ]
        },
        "performer": [
          {
            "display": "The Central European Lab"
          }
        ],
        "category": [
          {
            "coding": [
              {
                "system": "http://terminology.hl7.org/CodeSystem/observation-category",
                "code": "laboratory"
              }
            ]
          }
        ],
        "code": {
          "coding": [
            {
              "code": "49765-1",
              "system": "http://loinc.org",
              "display": "Calcium [Mass/volume] in Blood"
            }
          ],
          "text": "Calcium [Mass/volume] in Blood"
        },
        "valueQuantity": {
          "system": "http://unitsofmeasure.org",
          "value": 8.7,
          "unit": "mg/dL",
          "code": "mg/dL"
        },
        "referenceRange": [
          {
            "low": {
              "value": 8.5,
              "code": "mg/dL",
              "system": "http://unitsofmeasure.org"
            }
          },
          {
            "high": {
              "value": 10.4,
              "code": "mg/dL",
              "system": "http://unitsofmeasure.org"
            }
          }
        ],
        "text": {
          "status": "generated",
          "div": "<div xmlns=\"http://www.w3.org/1999/xhtml\"><table class=\"hl7__eu__lab__report\"><tr><th>Test</th><th>03-Apr-2022</th><th>Reference&#xA0;Range</th><th>Unit</th></tr><tr><td>Calcium [Mass/volume] in Blood</td><td>8.7</td><td>8.5 - 10.4</td><td></td><td>mg/dL</td></tr></table></div>"
        },
        "status": "final",
        "subject": {
          "reference": "urn:uuid:85a0c32e-4e56-4f1e-8a6e-2506a32bd6e2",
          "display": "Katy Johnston"
        },
        "effectiveDateTime": "2022-04-03T09:58:49Z",
        "specimen": {
          "reference": "urn:uuid:6d9a2cf4-197c-44c0-86ca-7a5a9b768eb9"
        }
      }
    },
    {
      "fullUrl": "urn:uuid:f7a04b45-37ef-4b8f-9a94-521018c5f882",
      "resource": {
        "resourceType": "Observation",
        "id": "f7a04b45-37ef-4b8f-9a94-521018c5f882",
        "meta": {
          "profile": [
            "http://hl7.eu/fhir/laboratory/StructureDefinition/Observation-resultslab-eu-lab"
          ]
        },
        "performer": [
          {
            "display": "The Central European Lab"
          }
        ],
        "category": [
          {
            "coding": [
              {
                "system": "http://terminology.hl7.org/CodeSystem/observation-category",
                "code": "laboratory"
              }
            ]
          }
        ],
        "code": {
          "coding": [
            {
              "code": "2947-0",
              "system": "http://loinc.org",
              "display": "Sodium [Moles/volume] in Blood"
            }
          ],
          "text": "Sodium [Moles/volume] in Blood"
        },
        "valueQuantity": {
          "system": "http://unitsofmeasure.org",
          "value": 143.5,
          "unit": "mmol/L",
          "code": "mmol/L"
        },
        "referenceRange": [
          {
            "low": {
              "value": 135,
              "code": "mmol/L",
              "system": "http://unitsofmeasure.org"
            }
          },
          {
            "high": {
              "value": 145,
              "code": "mmol/L",
              "system": "http://unitsofmeasure.org"
            }
          }
        ],
        "text": {
          "status": "generated",
          "div": "<div xmlns=\"http://www.w3.org/1999/xhtml\"><table class=\"hl7__eu__lab__report\"><tr><th>Test</th><th>03-Apr-2022</th><th>Reference&#xA0;Range</th><th>Unit</th></tr><tr><td>Sodium [Moles/volume] in Blood</td><td>143.5</td><td>135 - 145</td><td></td><td>mmol/L</td></tr></table></div>"
        },
        "status": "final",
        "subject": {
          "reference": "urn:uuid:85a0c32e-4e56-4f1e-8a6e-2506a32bd6e2",
          "display": "Katy Johnston"
        },
        "effectiveDateTime": "2022-04-03T09:58:49Z",
        "specimen": {
          "reference": "urn:uuid:6d9a2cf4-197c-44c0-86ca-7a5a9b768eb9"
        }
      }
    },
    {
      "fullUrl": "urn:uuid:0cce451c-10ef-42ef-a267-4079b8e237e3",
      "resource": {
        "resourceType": "Observation",
        "id": "0cce451c-10ef-42ef-a267-4079b8e237e3",
        "meta": {
          "profile": [
            "http://hl7.eu/fhir/laboratory/StructureDefinition/Observation-resultslab-eu-lab"
          ]
        },
        "performer": [
          {
            "display": "The Central European Lab"
          }
        ],
        "category": [
          {
            "coding": [
              {
                "system": "http://terminology.hl7.org/CodeSystem/observation-category",
                "code": "laboratory"
              }
            ]
          }
        ],
        "code": {
          "coding": [
            {
              "code": "6298-4",
              "system": "http://loinc.org",
              "display": "Potassium [Moles/volume] in Blood"
            }
          ],
          "text": "Potassium [Moles/volume] in Blood"
        },
        "valueQuantity": {
          "system": "http://unitsofmeasure.org",
          "value": 4,
          "unit": "mmol/L",
          "code": "mmol/L"
        },
        "referenceRange": [
          {
            "low": {
              "value": 3.5,
              "code": "mmol/L",
              "system": "http://unitsofmeasure.org"
            }
          },
          {
            "high": {
              "value": 5.1,
              "code": "mmol/L",
              "system": "http://unitsofmeasure.org"
            }
          }
        ],
        "text": {
          "status": "generated",
          "div": "<div xmlns=\"http://www.w3.org/1999/xhtml\"><table class=\"hl7__eu__lab__report\"><tr><th>Test</th><th>03-Apr-2022</th><th>Reference&#xA0;Range</th><th>Unit</th></tr><tr><td>Potassium [Moles/volume] in Blood</td><td>4.0</td><td>3.5 - 5.1</td><td></td><td>mmol/L</td></tr></table></div>"
        },
        "status": "final",
        "subject": {
          "reference": "urn:uuid:85a0c32e-4e56-4f1e-8a6e-2506a32bd6e2",
          "display": "Katy Johnston"
        },
        "effectiveDateTime": "2022-04-03T09:58:49Z",
        "specimen": {
          "reference": "urn:uuid:6d9a2cf4-197c-44c0-86ca-7a5a9b768eb9"
        }
      }
    },
    {
      "fullUrl": "urn:uuid:dafb779a-b4f8-4eb4-8ab0-a4415fc1a8b1",
      "resource": {
        "resourceType": "Observation",
        "id": "dafb779a-b4f8-4eb4-8ab0-a4415fc1a8b1",
        "meta": {
          "profile": [
            "http://hl7.eu/fhir/laboratory/StructureDefinition/Observation-resultslab-eu-lab"
          ]
        },
        "performer": [
          {
            "display": "The Central European Lab"
          }
        ],
        "category": [
          {
            "coding": [
              {
                "system": "http://terminology.hl7.org/CodeSystem/observation-category",
                "code": "laboratory"
              }
            ]
          }
        ],
        "code": {
          "coding": [
            {
              "code": "2069-3",
              "system": "http://loinc.org",
              "display": "Chloride [Moles/volume] in Blood"
            }
          ],
          "text": "Chloride [Moles/volume] in Blood"
        },
        "valueQuantity": {
          "system": "http://unitsofmeasure.org",
          "value": 101.4,
          "unit": "mmol/L",
          "code": "mmol/L"
        },
        "referenceRange": [
          {
            "low": {
              "value": 98,
              "code": "mmol/L",
              "system": "http://unitsofmeasure.org"
            }
          },
          {
            "high": {
              "value": 107,
              "code": "mmol/L",
              "system": "http://unitsofmeasure.org"
            }
          }
        ],
        "text": {
          "status": "generated",
          "div": "<div xmlns=\"http://www.w3.org/1999/xhtml\"><table class=\"hl7__eu__lab__report\"><tr><th>Test</th><th>03-Apr-2022</th><th>Reference&#xA0;Range</th><th>Unit</th></tr><tr><td>Chloride [Moles/volume] in Blood</td><td>101.4</td><td>98 - 107</td><td></td><td>mmol/L</td></tr></table></div>"
        },
        "status": "final",
        "subject": {
          "reference": "urn:uuid:85a0c32e-4e56-4f1e-8a6e-2506a32bd6e2",
          "display": "Katy Johnston"
        },
        "effectiveDateTime": "2022-04-03T09:58:49Z",
        "specimen": {
          "reference": "urn:uuid:6d9a2cf4-197c-44c0-86ca-7a5a9b768eb9"
        }
      }
    },
    {
      "fullUrl": "urn:uuid:84f7379e-1629-444f-981e-6d290cd77d6f",
      "resource": {
        "resourceType": "Observation",
        "id": "84f7379e-1629-444f-981e-6d290cd77d6f",
        "meta": {
          "profile": [
            "http://hl7.eu/fhir/laboratory/StructureDefinition/Observation-resultslab-eu-lab"
          ]
        },
        "performer": [
          {
            "display": "The Central European Lab"
          }
        ],
        "category": [
          {
            "coding": [
              {
                "system": "http://terminology.hl7.org/CodeSystem/observation-category",
                "code": "laboratory"
              }
            ]
          }
        ],
        "code": {
          "coding": [
            {
              "code": "20565-8",
              "system": "http://loinc.org",
              "display": "Carbon dioxide, total [Moles/volume] in Blood"
            }
          ],
          "text": "Carbon dioxide, total [Moles/volume] in Blood"
        },
        "valueQuantity": {
          "system": "http://unitsofmeasure.org",
          "value": 27.7,
          "unit": "mmol/L",
          "code": "mmol/L"
        },
        "referenceRange": [
          {
            "low": {
              "value": 22,
              "code": "mmol/L",
              "system": "http://unitsofmeasure.org"
            }
          },
          {
            "high": {
              "value": 29,
              "code": "mmol/L",
              "system": "http://unitsofmeasure.org"
            }
          }
        ],
        "text": {
          "status": "generated",
          "div": "<div xmlns=\"http://www.w3.org/1999/xhtml\"><table class=\"hl7__eu__lab__report\"><tr><th>Test</th><th>03-Apr-2022</th><th>Reference&#xA0;Range</th><th>Unit</th></tr><tr><td>Carbon dioxide, total [Moles/volume] in Blood</td><td>27.7</td><td>22 - 29</td><td></td><td>mmol/L</td></tr></table></div>"
        },
        "status": "final",
        "subject": {
          "reference": "urn:uuid:85a0c32e-4e56-4f1e-8a6e-2506a32bd6e2",
          "display": "Katy Johnston"
        },
        "effectiveDateTime": "2022-04-03T09:58:49Z",
        "specimen": {
          "reference": "urn:uuid:6d9a2cf4-197c-44c0-86ca-7a5a9b768eb9"
        }
      }
    },
    {
      "fullUrl": "urn:uuid:01b80b85-0d75-457e-b019-52e200f5f223",
      "resource": {
        "resourceType": "Device",
        "id": "01b80b85-0d75-457e-b019-52e200f5f223",
        "deviceName": [
          {
            "name": "SYNDERAI Synthetic Generator",
            "type": "manufacturer-name"
          }
        ],
        "version": [
          {
            "value": "5.0"
          }
        ],
        "text": {
          "status": "generated",
          "div": "<div xmlns=\"http://www.w3.org/1999/xhtml\">SYNDERAI Synthetic Generator v5.0</div>"
        },
        "status": "active\"",
        "distinctIdentifier": "synderai-generator-50",
        "manufacturer": "SYNDERAI Project"
      }
    },
    {
      "fullUrl": "urn:uuid:99fb4a15-8cd8-4f23-9904-f4dc8a873846",
      "resource": {
        "resourceType": "Provenance",
        "id": "99fb4a15-8cd8-4f23-9904-f4dc8a873846",
        "target": [
          {
            "reference": "Patient/85a0c32e-4e56-4f1e-8a6e-2506a32bd6e2"
          },
          {
            "reference": "Bundle/5300b8ed-11f6-4eba-8296-053d7ee3610d"
          },
          {
            "reference": "Composition/92b7adc1-c360-4a26-ade1-ddc6d575f3f2"
          },
          {
            "reference": "PractitionerRole/b6ead407-2004-4eae-9679-e42a6619c336"
          },
          {
            "reference": "Practitioner/a78b5f69-6043-4649-8176-abd1e26d620c"
          },
          {
            "reference": "PractitionerRole/68040e6b-10fd-48fb-bc5c-ff2df4b9928e"
          },
          {
            "reference": "Organization/024d24cc-2af5-494e-a1f5-d0efba33e28a"
          }
        ],
        "activity": {
          "text": "Synthetic Example Data Generation"
        },
        "policy": [
          "https://synderai.net/synderai-synthetic-data-policy"
        ],
        "agent": [
          {
            "type": {
              "text": "author"
            },
            "who": {
              "reference": "Device/01b80b85-0d75-457e-b019-52e200f5f223"
            }
          }
        ],
        "reason": [
          {
            "text": "Interoperability Testing and Training (non-clinical use)"
          }
        ],
        "text": {
          "status": "generated",
          "div": "<div xmlns=\"http://www.w3.org/1999/xhtml\">Provenance for SYNDERAI Synthetic Example Data Resource</div>"
        },
        "recorded": "2022-04-03T11:58:49Z"
      }
    },
    {
      "fullUrl": "urn:uuid:b6ead407-2004-4eae-9679-e42a6619c336",
      "resource": {
        "resourceType": "PractitionerRole",
        "id": "b6ead407-2004-4eae-9679-e42a6619c336",
        "meta": {
          "profile": [
            "http://hl7.eu/fhir/base/StructureDefinition/practitionerRole-eu"
          ]
        },
        "text": {
          "status": "generated",
          "div": "<div xmlns=\"http://www.w3.org/1999/xhtml\">Laboratory Role Id: b6ead407-2004-4eae-9679-e42a6619c336</div>"
        },
        "practitioner": {
          "reference": "urn:uuid:a78b5f69-6043-4649-8176-abd1e26d620c"
        }
      }
    },
    {
      "fullUrl": "urn:uuid:a78b5f69-6043-4649-8176-abd1e26d620c",
      "resource": {
        "resourceType": "Practitioner",
        "id": "a78b5f69-6043-4649-8176-abd1e26d620c",
        "meta": {
          "profile": [
            "http://hl7.eu/fhir/base/StructureDefinition/practitioner-eu"
          ]
        },
        "identifier": [
          {
            "assigner": {
              "display": "HL7 Europe"
            },
            "system": "urn:oid:2.16.840.1.113883.2.51.999",
            "value": "0508bb7d-8314-44dc-8de4-856bfe2d2282"
          }
        ],
        "name": [
          {
            "prefix": [
              "dr"
            ],
            "given": [
              "Ex"
            ],
            "family": "Ample"
          }
        ],
        "address": [
          {
            "line": [
              "Laboratoire Central Européenne",
              "Boulevard du Jardin Botanique 32"
            ],
            "postalCode": "1000",
            "city": "Brussels",
            "country": "Belgium"
          }
        ],
        "text": {
          "status": "generated",
          "div": "<div xmlns=\"http://www.w3.org/1999/xhtml\">Laboratory: Laboratoire Central Européenne, 1000 Brussels, Belgium</div>"
        }
      }
    }
  ],
  "type": "document",
  "timestamp": "2022-04-03T11:58:49Z"
}
