{
  "resourceType": "Bundle",
  "id": "fb06b34a-50a2-4f1f-a30a-b90b2a40db6c",
  "meta": {
    "profile": [
      "http://hl7.eu/fhir/laboratory/StructureDefinition/Bundle-eu-lab"
    ]
  },
  "identifier": {
    "assigner": {
      "display": "HL7 Europe"
    },
    "system": "urn:oid:2.16.840.1.113883.2.51.999",
    "value": "ae1f33ee-bbac-458c-9be2-3e80e3adcc54"
  },
  "entry": [
    {
      "fullUrl": "urn:uuid:5d7e8dd1-cb8a-41cc-84d4-c9627fbea392",
      "resource": {
        "resourceType": "Composition",
        "id": "5d7e8dd1-cb8a-41cc-84d4-c9627fbea392",
        "meta": {
          "profile": [
            "http://hl7.eu/fhir/laboratory/StructureDefinition/Composition-eu-lab"
          ]
        },
        "identifier": {
          "assigner": {
            "display": "HL7 Europe"
          },
          "system": "urn:oid:2.16.840.1.113883.2.51.999",
          "value": "2cad3f51-a156-475e-be5c-1262b0a35771"
        },
        "author": [
          {
            "reference": "urn:uuid:038690ad-7de7-4190-bbbe-671ea40c5e80"
          }
        ],
        "category": [
          {
            "coding": [
              {
                "code": "26436-6",
                "system": "http://loinc.org",
                "display": "Laboratory studies (set)"
              }
            ]
          }
        ],
        "type": {
          "coding": [
            {
              "code": "11502-2",
              "system": "http://loinc.org",
              "display": "Laboratory report"
            }
          ],
          "text": "Laboratory Report"
        },
        "section": [
          {
            "code": {
              "coding": [
                {
                  "code": "26436-6",
                  "system": "http://loinc.org",
                  "display": "Laboratory studies (set)"
                }
              ],
              "text": "Laboratory studies"
            },
            "section": [
              {
                "code": {
                  "coding": [
                    {
                      "code": "$18719-5",
                      "system": "http://loinc.org",
                      "display": "Chemistry studies (set)"
                    }
                  ],
                  "text": "Chemistry"
                },
                "entry": [
                  {
                    "reference": "urn:uuid:da506873-a301-4e88-b216-3f5ece53533e"
                  },
                  {
                    "reference": "urn:uuid:ae0fc1dc-5878-4d10-8f23-d6dc80289f8a"
                  },
                  {
                    "reference": "urn:uuid:515266ca-136c-466b-a076-f739f7a2343c"
                  },
                  {
                    "reference": "urn:uuid:e497e253-0347-432b-8fc6-8e64b61433cb"
                  },
                  {
                    "reference": "urn:uuid:4103b97e-cf23-41a5-87ff-dc785e397acf"
                  },
                  {
                    "reference": "urn:uuid:805c105d-68c0-420b-ab0c-8d763be758c1"
                  },
                  {
                    "reference": "urn:uuid:ddeb6550-d291-41fe-800a-cf27226a237b"
                  },
                  {
                    "reference": "urn:uuid:8d3d204f-2338-4d12-b97d-8209c9efd277"
                  },
                  {
                    "reference": "urn:uuid:7ca3d671-729e-434a-8e8d-694f426256be"
                  },
                  {
                    "reference": "urn:uuid:2b002134-6bc9-4b41-a654-dab7f030a20e"
                  },
                  {
                    "reference": "urn:uuid:1febf649-7ae7-481b-a172-bdc0cef3fbc2"
                  },
                  {
                    "reference": "urn:uuid:94990004-b9de-4405-b88e-d2270cab30e9"
                  },
                  {
                    "reference": "urn:uuid:91bed153-318d-4fef-84b8-7de23f0ec5ef"
                  },
                  {
                    "reference": "urn:uuid:2fa4ba0e-e5e7-4fa1-86f3-05c74c3cd8be"
                  },
                  {
                    "reference": "urn:uuid:de6790d1-6323-4869-8985-a5e711778cf5"
                  },
                  {
                    "reference": "urn:uuid:79ca2902-414f-4171-bb2e-096ff7818b5e"
                  },
                  {
                    "reference": "urn:uuid:4d36c789-22a7-4764-9159-7151bd67f584"
                  },
                  {
                    "reference": "urn:uuid:3c8ba8d5-fd87-474b-b49e-ffcd7c829f2c"
                  },
                  {
                    "reference": "urn:uuid:401a96a1-9e65-46b6-af13-d0a1f71a6bf8"
                  }
                ],
                "text": {
                  "status": "generated",
                  "div": "<div xmlns=\"http://www.w3.org/1999/xhtml\"><h3>Chemistry</h3><table class=\"hl7__eu__lab__report\"><thead><tr><th>Test</th><th>19-NOV-2022</th><th>Reference&#xA0;Range</th><th>Unit</th></tr></thead><tbody><tr><td>Glucose [Mass/volume] in Blood</td><td>91.8</td><td>70 - 140</td><td>mg/dL</td></tr><tr><td>Urea nitrogen [Mass/volume] in Blood</td><td>7.1</td><td>7 - 25</td><td>mg/dL</td></tr><tr><td>Creatinine [Mass/volume] in Blood</td><td><strong>3.4 H</strong></td><td>0.6 - 1.1</td><td>mg/dL</td></tr><tr><td>Calcium [Mass/volume] in Blood</td><td><strong>8.5 L</strong></td><td>8.6 - 10.4</td><td>mg/dL</td></tr><tr><td>Sodium [Moles/volume] in Blood</td><td>141.3</td><td>135 - 145</td><td>mmol/L</td></tr><tr><td>Potassium [Moles/volume] in Blood</td><td>4.4</td><td>3.5 - 5.3</td><td>mmol/L</td></tr><tr><td>Chloride [Moles/volume] in Blood</td><td>104.4</td><td>98 - 108</td><td>mmol/L</td></tr><tr><td>Carbon dioxide, total [Moles/volume] in Blood</td><td>23.3</td><td>22 - 32</td><td>mmol/L</td></tr><tr><td>Protein [Mass/volume] in Serum or Plasma</td><td>7.4</td><td>6.6 - 8.3</td><td>g/dL</td></tr><tr><td>Albumin [Mass/volume] in Serum or Plasma</td><td>4.8</td><td>3.5 - 5.5</td><td>g/dL</td></tr><tr><td>Globulin [Mass/volume] in Serum by calculation</td><td><strong>2.0 L</strong></td><td>2.2 - 3.7</td><td>g/L</td></tr><tr><td>Bilirubin.total [Mass/volume] in Serum or Plasma</td><td>1.2</td><td>0.3 - 1.2</td><td>mg/dL</td></tr><tr><td>Alkaline phosphatase [Enzymatic activity/volume] in Serum or Plasma</td><td>84.2</td><td>40 - 130</td><td>U/L</td></tr><tr><td>Alanine aminotransferase [Enzymatic activity/volume] in Serum or Plasma</td><td>34.6</td><td>7 - 55</td><td>U/L</td></tr><tr><td>Aspartate aminotransferase [Enzymatic activity/volume] in Serum or Plasma</td><td>26.0</td><td>10 - 40</td><td>U/L</td></tr><tr><td>Cholesterol [Mass/volume] in Serum or Plasma</td><td>155.3</td><td>125 - 200</td><td>mg/dL</td></tr><tr><td>Triglyceride [Mass/volume] in Serum or Plasma</td><td>159.0</td><td>10 - 175</td><td>mg/dL</td></tr><tr><td>Cholesterol in LDL [Mass/volume] in Serum or Plasma by Direct assay</td><td>114.8</td><td>0 - 130</td><td>mg/dL</td></tr><tr><td>Cholesterol in HDL [Mass/volume] in Serum or Plasma</td><td>51.6</td><td>50 - 100</td><td>mg/dL</td></tr></tbody></table></div>"
                },
                "title": "Chemistry"
              }
            ],
            "title": "Laboratory Report"
          },
          {
            "text": {
              "status": "generated",
              "div": "<div xmlns=\"http://www.w3.org/1999/xhtml\"><h3>Annotation</h3><table class=\"hl7__eu__lab__report\"><tr><th>Conclusion and Recommendations based on this report and previous findings known to us</th></tr><tr><td>The patient shows significantly elevated creatinine, suggesting impaired renal function, and mild hypocalcemia. Globulin is slightly decreased. Other parameters, including glucose, electrolytes, liver enzymes, and lipid profile, are within normal limits. Renal impairment should be further evaluated and correlated clinically; consider monitoring calcium and globulin levels. No acute metabolic or hepatic derangements detected.</td></tr></table></div>"
            },
            "code": {
              "coding": [
                {
                  "system": "http://loinc.org",
                  "code": "48767-8",
                  "display": "Annotation comment"
                }
              ]
            },
            "title": "Annotation comment"
          }
        ],
        "status": "final",
        "subject": {
          "reference": "urn:uuid:6d288cdd-79b7-4a6c-93d7-19ecaa633661",
          "display": "Helene Andresen"
        },
        "date": "2022-11-19T23:53:36Z",
        "title": "Laboratory Report",
        "confidentiality": "N"
      }
    },
    {
      "fullUrl": "urn:uuid:20f1f382-9dd7-46a2-b8e7-d1203efc1b9c",
      "resource": {
        "resourceType": "DiagnosticReport",
        "id": "20f1f382-9dd7-46a2-b8e7-d1203efc1b9c",
        "meta": {
          "profile": [
            "http://hl7.eu/fhir/laboratory/StructureDefinition/DiagnosticReport-eu-lab"
          ]
        },
        "identifier": [
          {
            "assigner": {
              "display": "HL7 Europe"
            },
            "system": "urn:oid:2.16.840.1.113883.2.51.999",
            "value": "89619231-3ca1-4340-b573-de8a3021f5d4"
          }
        ],
        "extension": [
          {
            "url": "http://hl7.org/fhir/5.0/StructureDefinition/extension-DiagnosticReport.composition",
            "valueReference": {
              "reference": "urn:uuid:2cad3f51-a156-475e-be5c-1262b0a35771"
            }
          }
        ],
        "category": [
          {
            "coding": [
              {
                "code": "26436-6",
                "system": "http://loinc.org",
                "display": "Laboratory studies (set)"
              }
            ]
          }
        ],
        "specimen": [
          {
            "reference": "urn:uuid:77c6991c-2584-4f60-a434-da27b6eb40fe"
          },
          {
            "reference": "urn:uuid:717e1a8f-5e0b-4f11-8736-ba583d36763f"
          },
          {
            "reference": "urn:uuid:87246a9f-29a6-4a73-ab71-d57bcad36999"
          }
        ],
        "result": [
          {
            "reference": "urn:uuid:da506873-a301-4e88-b216-3f5ece53533e"
          },
          {
            "reference": "urn:uuid:ae0fc1dc-5878-4d10-8f23-d6dc80289f8a"
          },
          {
            "reference": "urn:uuid:515266ca-136c-466b-a076-f739f7a2343c"
          },
          {
            "reference": "urn:uuid:e497e253-0347-432b-8fc6-8e64b61433cb"
          },
          {
            "reference": "urn:uuid:4103b97e-cf23-41a5-87ff-dc785e397acf"
          },
          {
            "reference": "urn:uuid:805c105d-68c0-420b-ab0c-8d763be758c1"
          },
          {
            "reference": "urn:uuid:ddeb6550-d291-41fe-800a-cf27226a237b"
          },
          {
            "reference": "urn:uuid:8d3d204f-2338-4d12-b97d-8209c9efd277"
          },
          {
            "reference": "urn:uuid:7ca3d671-729e-434a-8e8d-694f426256be"
          },
          {
            "reference": "urn:uuid:2b002134-6bc9-4b41-a654-dab7f030a20e"
          },
          {
            "reference": "urn:uuid:1febf649-7ae7-481b-a172-bdc0cef3fbc2"
          },
          {
            "reference": "urn:uuid:94990004-b9de-4405-b88e-d2270cab30e9"
          },
          {
            "reference": "urn:uuid:91bed153-318d-4fef-84b8-7de23f0ec5ef"
          },
          {
            "reference": "urn:uuid:2fa4ba0e-e5e7-4fa1-86f3-05c74c3cd8be"
          },
          {
            "reference": "urn:uuid:de6790d1-6323-4869-8985-a5e711778cf5"
          },
          {
            "reference": "urn:uuid:79ca2902-414f-4171-bb2e-096ff7818b5e"
          },
          {
            "reference": "urn:uuid:4d36c789-22a7-4764-9159-7151bd67f584"
          },
          {
            "reference": "urn:uuid:3c8ba8d5-fd87-474b-b49e-ffcd7c829f2c"
          },
          {
            "reference": "urn:uuid:401a96a1-9e65-46b6-af13-d0a1f71a6bf8"
          }
        ],
        "status": "registered",
        "code": {
          "coding": [
            {
              "code": "11502-2",
              "system": "http://loinc.org",
              "display": "Laboratory report"
            }
          ]
        },
        "subject": {
          "reference": "urn:uuid:6d288cdd-79b7-4a6c-93d7-19ecaa633661",
          "display": "Helene Andresen"
        }
      }
    },
    {
      "fullUrl": "urn:uuid:6d288cdd-79b7-4a6c-93d7-19ecaa633661",
      "resource": {
        "resourceType": "Patient",
        "id": "6d288cdd-79b7-4a6c-93d7-19ecaa633661",
        "meta": {
          "security": [
            {
              "system": "http://terminology.hl7.org/CodeSystem/v3-ActReason",
              "code": "HTEST"
            },
            {
              "system": "http://terminology.hl7.org/CodeSystem/v3-ActReason",
              "code": "TRAIN"
            }
          ],
          "tag": [
            {
              "system": "https://synderai.net/fhir/CodeSystem/tags",
              "code": "synthetic",
              "display": "SYNDERAI Synthetic data"
            }
          ],
          "profile": [
            "http://hl7.eu/fhir/base/StructureDefinition/patient-eu-core"
          ]
        },
        "identifier": [
          {
            "type": {
              "coding": [
                {
                  "code": "PT",
                  "system": "http://terminology.hl7.org/CodeSystem/v2-0203"
                }
              ]
            },
            "system": "http://ec.europa.eu/identifier/eci",
            "value": "3450-170343-2"
          },
          {
            "type": {
              "coding": [
                {
                  "code": "MR",
                  "system": "http://terminology.hl7.org/CodeSystem/v2-0203"
                }
              ]
            },
            "system": "http://local.setting.eu/identifier",
            "value": "72e91c9c-0b01-42b0-a6a0-6dcc70aeec49"
          }
        ],
        "name": [
          {
            "family": "Andresen"
          },
          {
            "given": [
              "Helene"
            ]
          },
          {
            "text": "Helene Andresen"
          }
        ],
        "address": [
          {
            "line": [
              "Kristiansenberget 2"
            ],
            "use": "home",
            "type": "physical",
            "postalCode": "0172",
            "city": "Sørensen",
            "country": "Norway"
          }
        ],
        "telecom": [
          {
            "system": "phone",
            "value": "53 98 86 24"
          }
        ],
        "extension": [
          {
            "url": "http://hl7.org/fhir/StructureDefinition/patient-nationality",
            "valueCodeableConcept": {
              "coding": [
                {
                  "code": "NO",
                  "system": "http://hl7.org/fhir/ValueSet/country"
                }
              ]
            }
          }
        ],
        "text": {
          "status": "generated",
          "div": "<div xmlns=\"http://www.w3.org/1999/xhtml\"><table class=\"hl7__ips\"><tr><td>Helene Andresen</td><td>female</td><td>17-Oct-1939</td></tr></table></div>"
        },
        "gender": "female",
        "birthDate": "1939-10-17"
      }
    },
    {
      "fullUrl": "urn:uuid:10a45433-f8b5-469c-814b-447796543d0c",
      "resource": {
        "resourceType": "ServiceRequest",
        "id": "10a45433-f8b5-469c-814b-447796543d0c",
        "meta": {
          "profile": [
            "http://hl7.eu/fhir/laboratory/StructureDefinition/ServiceRequest-eu-lab"
          ]
        },
        "identifier": [
          {
            "system": "http://example.org",
            "value": "acf7df25-c6c5-4b60-9901-ba2fac917a87"
          }
        ],
        "specimen": [
          {
            "reference": "urn:uuid:77c6991c-2584-4f60-a434-da27b6eb40fe"
          },
          {
            "reference": "urn:uuid:717e1a8f-5e0b-4f11-8736-ba583d36763f"
          },
          {
            "reference": "urn:uuid:87246a9f-29a6-4a73-ab71-d57bcad36999"
          }
        ],
        "reasonCode": [
          {
            "coding": [
              {
                "code": "64859006",
                "system": "http://snomed.info/sct",
                "display": "Osteoporosis"
              }
            ]
          },
          {
            "coding": [
              {
                "code": "40055000",
                "system": "http://snomed.info/sct",
                "display": "Chronic sinusitis"
              }
            ]
          },
          {
            "coding": [
              {
                "code": "55822004",
                "system": "http://snomed.info/sct",
                "display": "Hyperlipidemia"
              }
            ]
          },
          {
            "coding": [
              {
                "code": "271737000",
                "system": "http://snomed.info/sct",
                "display": "Anemia"
              }
            ]
          },
          {
            "coding": [
              {
                "code": "15777000",
                "system": "http://snomed.info/sct",
                "display": "Prediabetes"
              }
            ]
          },
          {
            "coding": [
              {
                "code": "128613002",
                "system": "http://snomed.info/sct",
                "display": "Seizure disorder"
              }
            ]
          }
        ],
        "status": "active",
        "intent": "order",
        "code": {
          "coding": [
            {
              "code": "108252007",
              "system": "http://snomed.info/sct",
              "display": "Laboratory procedure"
            }
          ]
        },
        "subject": {
          "reference": "urn:uuid:6d288cdd-79b7-4a6c-93d7-19ecaa633661",
          "display": "Helene Andresen"
        },
        "requester": {
          "reference": "urn:uuid:d554d1c0-fe7f-4bee-b268-0494b28f54ce"
        }
      }
    },
    {
      "fullUrl": "urn:uuid:d554d1c0-fe7f-4bee-b268-0494b28f54ce",
      "resource": {
        "resourceType": "PractitionerRole",
        "id": "d554d1c0-fe7f-4bee-b268-0494b28f54ce",
        "meta": {
          "profile": [
            "http://hl7.eu/fhir/base/StructureDefinition/practitionerRole-eu"
          ]
        },
        "text": {
          "status": "generated",
          "div": "<div xmlns=\"http://www.w3.org/1999/xhtml\">Provider Role Id: d554d1c0-fe7f-4bee-b268-0494b28f54ce</div>"
        },
        "organization": {
          "reference": "urn:uuid:1a61459c-e701-4acb-95d0-8a9168d59fdf"
        }
      }
    },
    {
      "fullUrl": "urn:uuid:1a61459c-e701-4acb-95d0-8a9168d59fdf",
      "resource": {
        "resourceType": "Organization",
        "id": "1a61459c-e701-4acb-95d0-8a9168d59fdf",
        "meta": {
          "profile": [
            "http://hl7.eu/fhir/base/StructureDefinition/organization-eu"
          ]
        },
        "identifier": [
          {
            "assigner": {
              "display": "HL7 Europe"
            },
            "system": "urn:oid:2.16.840.1.113883.2.51.999",
            "value": "3ceb709c-3e85-4de4-b65e-8ffba2dcd8fb"
          }
        ],
        "address": [
          {
            "city": "Oslo",
            "postalCode": "0155",
            "country": "Norway"
          }
        ],
        "text": {
          "status": "generated",
          "div": "<div xmlns=\"http://www.w3.org/1999/xhtml\">Provider Organization: Oslo universitetssykehus (Ullevål)</div>"
        },
        "name": "Oslo universitetssykehus (Ullevål)"
      }
    },
    {
      "fullUrl": "urn:uuid:77c6991c-2584-4f60-a434-da27b6eb40fe",
      "resource": {
        "resourceType": "Specimen",
        "id": "77c6991c-2584-4f60-a434-da27b6eb40fe",
        "meta": {
          "profile": [
            "http://hl7.eu/fhir/laboratory/StructureDefinition/Specimen-eu-lab"
          ]
        },
        "collection": {
          "collectedDateTime": "2022-11-19"
        },
        "text": {
          "status": "generated",
          "div": "<div xmlns=\"http://www.w3.org/1999/xhtml\"><table class=\"hl7__eu__lab__report\"><tr><th>Specimen</th><th>Collection Date</th></tr><tr><td>Whole blood specimen (specimen)</td><td><span class=\"nb\">19-Nov-2022</span></td></tr></table></div>"
        },
        "type": {
          "coding": [
            {
              "code": "258580003",
              "system": "http://snomed.info/sct",
              "display": "Whole blood specimen (specimen)"
            }
          ]
        }
      }
    },
    {
      "fullUrl": "urn:uuid:717e1a8f-5e0b-4f11-8736-ba583d36763f",
      "resource": {
        "resourceType": "Specimen",
        "id": "717e1a8f-5e0b-4f11-8736-ba583d36763f",
        "meta": {
          "profile": [
            "http://hl7.eu/fhir/laboratory/StructureDefinition/Specimen-eu-lab"
          ]
        },
        "collection": {
          "collectedDateTime": "2022-11-19"
        },
        "text": {
          "status": "generated",
          "div": "<div xmlns=\"http://www.w3.org/1999/xhtml\"><table class=\"hl7__eu__lab__report\"><tr><th>Specimen</th><th>Collection Date</th></tr><tr><td>Acellular blood (serum or plasma) specimen</td><td><span class=\"nb\">19-Nov-2022</span></td></tr></table></div>"
        },
        "type": {
          "coding": [
            {
              "code": "122592007",
              "system": "http://snomed.info/sct",
              "display": "Acellular blood (serum or plasma) specimen"
            }
          ]
        }
      }
    },
    {
      "fullUrl": "urn:uuid:87246a9f-29a6-4a73-ab71-d57bcad36999",
      "resource": {
        "resourceType": "Specimen",
        "id": "87246a9f-29a6-4a73-ab71-d57bcad36999",
        "meta": {
          "profile": [
            "http://hl7.eu/fhir/laboratory/StructureDefinition/Specimen-eu-lab"
          ]
        },
        "collection": {
          "collectedDateTime": "2022-11-19"
        },
        "text": {
          "status": "generated",
          "div": "<div xmlns=\"http://www.w3.org/1999/xhtml\"><table class=\"hl7__eu__lab__report\"><tr><th>Specimen</th><th>Collection Date</th></tr><tr><td>Serum specimen</td><td><span class=\"nb\">19-Nov-2022</span></td></tr></table></div>"
        },
        "type": {
          "coding": [
            {
              "code": "119364003",
              "system": "http://snomed.info/sct",
              "display": "Serum specimen"
            }
          ]
        }
      }
    },
    {
      "fullUrl": "urn:uuid:da506873-a301-4e88-b216-3f5ece53533e",
      "resource": {
        "resourceType": "Observation",
        "id": "da506873-a301-4e88-b216-3f5ece53533e",
        "meta": {
          "profile": [
            "http://hl7.eu/fhir/laboratory/StructureDefinition/Observation-resultslab-eu-lab"
          ]
        },
        "performer": [
          {
            "display": "The Central European Lab"
          }
        ],
        "category": [
          {
            "coding": [
              {
                "system": "http://terminology.hl7.org/CodeSystem/observation-category",
                "code": "laboratory"
              }
            ]
          }
        ],
        "code": {
          "coding": [
            {
              "code": "2339-0",
              "system": "http://loinc.org",
              "display": "Glucose [Mass/volume] in Blood"
            }
          ],
          "text": "Glucose [Mass/volume] in Blood"
        },
        "valueQuantity": {
          "system": "http://unitsofmeasure.org",
          "value": 91.8,
          "unit": "mg/dL",
          "code": "mg/dL"
        },
        "referenceRange": [
          {
            "low": {
              "value": 70,
              "code": "mg/dL",
              "system": "http://unitsofmeasure.org"
            }
          },
          {
            "high": {
              "value": 140,
              "code": "mg/dL",
              "system": "http://unitsofmeasure.org"
            }
          }
        ],
        "text": {
          "status": "generated",
          "div": "<div xmlns=\"http://www.w3.org/1999/xhtml\"><table class=\"hl7__eu__lab__report\"><tr><th>Test</th><th>19-Nov-2022</th><th>Reference&#xA0;Range</th><th>Unit</th></tr><tr><td>Glucose [Mass/volume] in Blood</td><td>91.8</td><td>70 - 140</td><td></td><td>mg/dL</td></tr></table></div>"
        },
        "status": "final",
        "subject": {
          "reference": "urn:uuid:6d288cdd-79b7-4a6c-93d7-19ecaa633661",
          "display": "Helene Andresen"
        },
        "effectiveDateTime": "2022-11-19T22:53:36Z",
        "specimen": {
          "reference": "urn:uuid:77c6991c-2584-4f60-a434-da27b6eb40fe"
        }
      }
    },
    {
      "fullUrl": "urn:uuid:ae0fc1dc-5878-4d10-8f23-d6dc80289f8a",
      "resource": {
        "resourceType": "Observation",
        "id": "ae0fc1dc-5878-4d10-8f23-d6dc80289f8a",
        "meta": {
          "profile": [
            "http://hl7.eu/fhir/laboratory/StructureDefinition/Observation-resultslab-eu-lab"
          ]
        },
        "performer": [
          {
            "display": "The Central European Lab"
          }
        ],
        "category": [
          {
            "coding": [
              {
                "system": "http://terminology.hl7.org/CodeSystem/observation-category",
                "code": "laboratory"
              }
            ]
          }
        ],
        "code": {
          "coding": [
            {
              "code": "6299-2",
              "system": "http://loinc.org",
              "display": "Urea nitrogen [Mass/volume] in Blood"
            }
          ],
          "text": "Urea nitrogen [Mass/volume] in Blood"
        },
        "valueQuantity": {
          "system": "http://unitsofmeasure.org",
          "value": 7.1,
          "unit": "mg/dL",
          "code": "mg/dL"
        },
        "referenceRange": [
          {
            "low": {
              "value": 7,
              "code": "mg/dL",
              "system": "http://unitsofmeasure.org"
            }
          },
          {
            "high": {
              "value": 25,
              "code": "mg/dL",
              "system": "http://unitsofmeasure.org"
            }
          }
        ],
        "text": {
          "status": "generated",
          "div": "<div xmlns=\"http://www.w3.org/1999/xhtml\"><table class=\"hl7__eu__lab__report\"><tr><th>Test</th><th>19-Nov-2022</th><th>Reference&#xA0;Range</th><th>Unit</th></tr><tr><td>Urea nitrogen [Mass/volume] in Blood</td><td>7.1</td><td>7 - 25</td><td></td><td>mg/dL</td></tr></table></div>"
        },
        "status": "final",
        "subject": {
          "reference": "urn:uuid:6d288cdd-79b7-4a6c-93d7-19ecaa633661",
          "display": "Helene Andresen"
        },
        "effectiveDateTime": "2022-11-19T22:53:36Z",
        "specimen": {
          "reference": "urn:uuid:77c6991c-2584-4f60-a434-da27b6eb40fe"
        }
      }
    },
    {
      "fullUrl": "urn:uuid:515266ca-136c-466b-a076-f739f7a2343c",
      "resource": {
        "resourceType": "Observation",
        "id": "515266ca-136c-466b-a076-f739f7a2343c",
        "meta": {
          "profile": [
            "http://hl7.eu/fhir/laboratory/StructureDefinition/Observation-resultslab-eu-lab"
          ]
        },
        "performer": [
          {
            "display": "The Central European Lab"
          }
        ],
        "category": [
          {
            "coding": [
              {
                "system": "http://terminology.hl7.org/CodeSystem/observation-category",
                "code": "laboratory"
              }
            ]
          }
        ],
        "code": {
          "coding": [
            {
              "code": "38483-4",
              "system": "http://loinc.org",
              "display": "Creatinine [Mass/volume] in Blood"
            }
          ],
          "text": "Creatinine [Mass/volume] in Blood"
        },
        "valueQuantity": {
          "system": "http://unitsofmeasure.org",
          "value": 3.4,
          "unit": "mg/dL",
          "code": "mg/dL"
        },
        "referenceRange": [
          {
            "low": {
              "value": 0.6,
              "code": "mg/dL",
              "system": "http://unitsofmeasure.org"
            }
          },
          {
            "high": {
              "value": 1.1,
              "code": "mg/dL",
              "system": "http://unitsofmeasure.org"
            }
          }
        ],
        "interpretation": [
          {
            "coding": [
              {
                "code": "H",
                "system": "http://terminology.hl7.org/CodeSystem/v3-ObservationInterpretation",
                "display": "High"
              }
            ]
          }
        ],
        "text": {
          "status": "generated",
          "div": "<div xmlns=\"http://www.w3.org/1999/xhtml\"><table class=\"hl7__eu__lab__report\"><tr><th>Test</th><th>19-Nov-2022</th><th>Reference&#xA0;Range</th><th>Unit</th></tr><tr><td>Creatinine [Mass/volume] in Blood</td><td>3.4</td><td>0.6 - 1.1</td><td>H</td><td>mg/dL</td></tr></table></div>"
        },
        "status": "final",
        "subject": {
          "reference": "urn:uuid:6d288cdd-79b7-4a6c-93d7-19ecaa633661",
          "display": "Helene Andresen"
        },
        "effectiveDateTime": "2022-11-19T22:53:36Z",
        "specimen": {
          "reference": "urn:uuid:77c6991c-2584-4f60-a434-da27b6eb40fe"
        }
      }
    },
    {
      "fullUrl": "urn:uuid:e497e253-0347-432b-8fc6-8e64b61433cb",
      "resource": {
        "resourceType": "Observation",
        "id": "e497e253-0347-432b-8fc6-8e64b61433cb",
        "meta": {
          "profile": [
            "http://hl7.eu/fhir/laboratory/StructureDefinition/Observation-resultslab-eu-lab"
          ]
        },
        "performer": [
          {
            "display": "The Central European Lab"
          }
        ],
        "category": [
          {
            "coding": [
              {
                "system": "http://terminology.hl7.org/CodeSystem/observation-category",
                "code": "laboratory"
              }
            ]
          }
        ],
        "code": {
          "coding": [
            {
              "code": "49765-1",
              "system": "http://loinc.org",
              "display": "Calcium [Mass/volume] in Blood"
            }
          ],
          "text": "Calcium [Mass/volume] in Blood"
        },
        "valueQuantity": {
          "system": "http://unitsofmeasure.org",
          "value": 8.5,
          "unit": "mg/dL",
          "code": "mg/dL"
        },
        "referenceRange": [
          {
            "low": {
              "value": 8.6,
              "code": "mg/dL",
              "system": "http://unitsofmeasure.org"
            }
          },
          {
            "high": {
              "value": 10.4,
              "code": "mg/dL",
              "system": "http://unitsofmeasure.org"
            }
          }
        ],
        "interpretation": [
          {
            "coding": [
              {
                "code": "L",
                "system": "http://terminology.hl7.org/CodeSystem/v3-ObservationInterpretation",
                "display": "Low"
              }
            ]
          }
        ],
        "text": {
          "status": "generated",
          "div": "<div xmlns=\"http://www.w3.org/1999/xhtml\"><table class=\"hl7__eu__lab__report\"><tr><th>Test</th><th>19-Nov-2022</th><th>Reference&#xA0;Range</th><th>Unit</th></tr><tr><td>Calcium [Mass/volume] in Blood</td><td>8.5</td><td>8.6 - 10.4</td><td>L</td><td>mg/dL</td></tr></table></div>"
        },
        "status": "final",
        "subject": {
          "reference": "urn:uuid:6d288cdd-79b7-4a6c-93d7-19ecaa633661",
          "display": "Helene Andresen"
        },
        "effectiveDateTime": "2022-11-19T22:53:36Z",
        "specimen": {
          "reference": "urn:uuid:77c6991c-2584-4f60-a434-da27b6eb40fe"
        }
      }
    },
    {
      "fullUrl": "urn:uuid:4103b97e-cf23-41a5-87ff-dc785e397acf",
      "resource": {
        "resourceType": "Observation",
        "id": "4103b97e-cf23-41a5-87ff-dc785e397acf",
        "meta": {
          "profile": [
            "http://hl7.eu/fhir/laboratory/StructureDefinition/Observation-resultslab-eu-lab"
          ]
        },
        "performer": [
          {
            "display": "The Central European Lab"
          }
        ],
        "category": [
          {
            "coding": [
              {
                "system": "http://terminology.hl7.org/CodeSystem/observation-category",
                "code": "laboratory"
              }
            ]
          }
        ],
        "code": {
          "coding": [
            {
              "code": "2947-0",
              "system": "http://loinc.org",
              "display": "Sodium [Moles/volume] in Blood"
            }
          ],
          "text": "Sodium [Moles/volume] in Blood"
        },
        "valueQuantity": {
          "system": "http://unitsofmeasure.org",
          "value": 141.3,
          "unit": "mmol/L",
          "code": "mmol/L"
        },
        "referenceRange": [
          {
            "low": {
              "value": 135,
              "code": "mmol/L",
              "system": "http://unitsofmeasure.org"
            }
          },
          {
            "high": {
              "value": 145,
              "code": "mmol/L",
              "system": "http://unitsofmeasure.org"
            }
          }
        ],
        "text": {
          "status": "generated",
          "div": "<div xmlns=\"http://www.w3.org/1999/xhtml\"><table class=\"hl7__eu__lab__report\"><tr><th>Test</th><th>19-Nov-2022</th><th>Reference&#xA0;Range</th><th>Unit</th></tr><tr><td>Sodium [Moles/volume] in Blood</td><td>141.3</td><td>135 - 145</td><td></td><td>mmol/L</td></tr></table></div>"
        },
        "status": "final",
        "subject": {
          "reference": "urn:uuid:6d288cdd-79b7-4a6c-93d7-19ecaa633661",
          "display": "Helene Andresen"
        },
        "effectiveDateTime": "2022-11-19T22:53:36Z",
        "specimen": {
          "reference": "urn:uuid:77c6991c-2584-4f60-a434-da27b6eb40fe"
        }
      }
    },
    {
      "fullUrl": "urn:uuid:805c105d-68c0-420b-ab0c-8d763be758c1",
      "resource": {
        "resourceType": "Observation",
        "id": "805c105d-68c0-420b-ab0c-8d763be758c1",
        "meta": {
          "profile": [
            "http://hl7.eu/fhir/laboratory/StructureDefinition/Observation-resultslab-eu-lab"
          ]
        },
        "performer": [
          {
            "display": "The Central European Lab"
          }
        ],
        "category": [
          {
            "coding": [
              {
                "system": "http://terminology.hl7.org/CodeSystem/observation-category",
                "code": "laboratory"
              }
            ]
          }
        ],
        "code": {
          "coding": [
            {
              "code": "6298-4",
              "system": "http://loinc.org",
              "display": "Potassium [Moles/volume] in Blood"
            }
          ],
          "text": "Potassium [Moles/volume] in Blood"
        },
        "valueQuantity": {
          "system": "http://unitsofmeasure.org",
          "value": 4.4,
          "unit": "mmol/L",
          "code": "mmol/L"
        },
        "referenceRange": [
          {
            "low": {
              "value": 3.5,
              "code": "mmol/L",
              "system": "http://unitsofmeasure.org"
            }
          },
          {
            "high": {
              "value": 5.3,
              "code": "mmol/L",
              "system": "http://unitsofmeasure.org"
            }
          }
        ],
        "text": {
          "status": "generated",
          "div": "<div xmlns=\"http://www.w3.org/1999/xhtml\"><table class=\"hl7__eu__lab__report\"><tr><th>Test</th><th>19-Nov-2022</th><th>Reference&#xA0;Range</th><th>Unit</th></tr><tr><td>Potassium [Moles/volume] in Blood</td><td>4.4</td><td>3.5 - 5.3</td><td></td><td>mmol/L</td></tr></table></div>"
        },
        "status": "final",
        "subject": {
          "reference": "urn:uuid:6d288cdd-79b7-4a6c-93d7-19ecaa633661",
          "display": "Helene Andresen"
        },
        "effectiveDateTime": "2022-11-19T22:53:36Z",
        "specimen": {
          "reference": "urn:uuid:77c6991c-2584-4f60-a434-da27b6eb40fe"
        }
      }
    },
    {
      "fullUrl": "urn:uuid:ddeb6550-d291-41fe-800a-cf27226a237b",
      "resource": {
        "resourceType": "Observation",
        "id": "ddeb6550-d291-41fe-800a-cf27226a237b",
        "meta": {
          "profile": [
            "http://hl7.eu/fhir/laboratory/StructureDefinition/Observation-resultslab-eu-lab"
          ]
        },
        "performer": [
          {
            "display": "The Central European Lab"
          }
        ],
        "category": [
          {
            "coding": [
              {
                "system": "http://terminology.hl7.org/CodeSystem/observation-category",
                "code": "laboratory"
              }
            ]
          }
        ],
        "code": {
          "coding": [
            {
              "code": "2069-3",
              "system": "http://loinc.org",
              "display": "Chloride [Moles/volume] in Blood"
            }
          ],
          "text": "Chloride [Moles/volume] in Blood"
        },
        "valueQuantity": {
          "system": "http://unitsofmeasure.org",
          "value": 104.4,
          "unit": "mmol/L",
          "code": "mmol/L"
        },
        "referenceRange": [
          {
            "low": {
              "value": 98,
              "code": "mmol/L",
              "system": "http://unitsofmeasure.org"
            }
          },
          {
            "high": {
              "value": 108,
              "code": "mmol/L",
              "system": "http://unitsofmeasure.org"
            }
          }
        ],
        "text": {
          "status": "generated",
          "div": "<div xmlns=\"http://www.w3.org/1999/xhtml\"><table class=\"hl7__eu__lab__report\"><tr><th>Test</th><th>19-Nov-2022</th><th>Reference&#xA0;Range</th><th>Unit</th></tr><tr><td>Chloride [Moles/volume] in Blood</td><td>104.4</td><td>98 - 108</td><td></td><td>mmol/L</td></tr></table></div>"
        },
        "status": "final",
        "subject": {
          "reference": "urn:uuid:6d288cdd-79b7-4a6c-93d7-19ecaa633661",
          "display": "Helene Andresen"
        },
        "effectiveDateTime": "2022-11-19T22:53:36Z",
        "specimen": {
          "reference": "urn:uuid:77c6991c-2584-4f60-a434-da27b6eb40fe"
        }
      }
    },
    {
      "fullUrl": "urn:uuid:8d3d204f-2338-4d12-b97d-8209c9efd277",
      "resource": {
        "resourceType": "Observation",
        "id": "8d3d204f-2338-4d12-b97d-8209c9efd277",
        "meta": {
          "profile": [
            "http://hl7.eu/fhir/laboratory/StructureDefinition/Observation-resultslab-eu-lab"
          ]
        },
        "performer": [
          {
            "display": "The Central European Lab"
          }
        ],
        "category": [
          {
            "coding": [
              {
                "system": "http://terminology.hl7.org/CodeSystem/observation-category",
                "code": "laboratory"
              }
            ]
          }
        ],
        "code": {
          "coding": [
            {
              "code": "20565-8",
              "system": "http://loinc.org",
              "display": "Carbon dioxide, total [Moles/volume] in Blood"
            }
          ],
          "text": "Carbon dioxide, total [Moles/volume] in Blood"
        },
        "valueQuantity": {
          "system": "http://unitsofmeasure.org",
          "value": 23.3,
          "unit": "mmol/L",
          "code": "mmol/L"
        },
        "referenceRange": [
          {
            "low": {
              "value": 22,
              "code": "mmol/L",
              "system": "http://unitsofmeasure.org"
            }
          },
          {
            "high": {
              "value": 32,
              "code": "mmol/L",
              "system": "http://unitsofmeasure.org"
            }
          }
        ],
        "text": {
          "status": "generated",
          "div": "<div xmlns=\"http://www.w3.org/1999/xhtml\"><table class=\"hl7__eu__lab__report\"><tr><th>Test</th><th>19-Nov-2022</th><th>Reference&#xA0;Range</th><th>Unit</th></tr><tr><td>Carbon dioxide, total [Moles/volume] in Blood</td><td>23.3</td><td>22 - 32</td><td></td><td>mmol/L</td></tr></table></div>"
        },
        "status": "final",
        "subject": {
          "reference": "urn:uuid:6d288cdd-79b7-4a6c-93d7-19ecaa633661",
          "display": "Helene Andresen"
        },
        "effectiveDateTime": "2022-11-19T22:53:36Z",
        "specimen": {
          "reference": "urn:uuid:77c6991c-2584-4f60-a434-da27b6eb40fe"
        }
      }
    },
    {
      "fullUrl": "urn:uuid:7ca3d671-729e-434a-8e8d-694f426256be",
      "resource": {
        "resourceType": "Observation",
        "id": "7ca3d671-729e-434a-8e8d-694f426256be",
        "meta": {
          "profile": [
            "http://hl7.eu/fhir/laboratory/StructureDefinition/Observation-resultslab-eu-lab"
          ]
        },
        "performer": [
          {
            "display": "The Central European Lab"
          }
        ],
        "category": [
          {
            "coding": [
              {
                "system": "http://terminology.hl7.org/CodeSystem/observation-category",
                "code": "laboratory"
              }
            ]
          }
        ],
        "code": {
          "coding": [
            {
              "code": "2885-2",
              "system": "http://loinc.org",
              "display": "Protein [Mass/volume] in Serum or Plasma"
            }
          ],
          "text": "Protein [Mass/volume] in Serum or Plasma"
        },
        "valueQuantity": {
          "system": "http://unitsofmeasure.org",
          "value": 7.4,
          "unit": "g/dL",
          "code": "g/dL"
        },
        "referenceRange": [
          {
            "low": {
              "value": 6.6,
              "code": "g/dL",
              "system": "http://unitsofmeasure.org"
            }
          },
          {
            "high": {
              "value": 8.3,
              "code": "g/dL",
              "system": "http://unitsofmeasure.org"
            }
          }
        ],
        "text": {
          "status": "generated",
          "div": "<div xmlns=\"http://www.w3.org/1999/xhtml\"><table class=\"hl7__eu__lab__report\"><tr><th>Test</th><th>19-Nov-2022</th><th>Reference&#xA0;Range</th><th>Unit</th></tr><tr><td>Protein [Mass/volume] in Serum or Plasma</td><td>7.4</td><td>6.6 - 8.3</td><td></td><td>g/dL</td></tr></table></div>"
        },
        "status": "final",
        "subject": {
          "reference": "urn:uuid:6d288cdd-79b7-4a6c-93d7-19ecaa633661",
          "display": "Helene Andresen"
        },
        "effectiveDateTime": "2022-11-19T22:53:36Z",
        "specimen": {
          "reference": "urn:uuid:717e1a8f-5e0b-4f11-8736-ba583d36763f"
        }
      }
    },
    {
      "fullUrl": "urn:uuid:2b002134-6bc9-4b41-a654-dab7f030a20e",
      "resource": {
        "resourceType": "Observation",
        "id": "2b002134-6bc9-4b41-a654-dab7f030a20e",
        "meta": {
          "profile": [
            "http://hl7.eu/fhir/laboratory/StructureDefinition/Observation-resultslab-eu-lab"
          ]
        },
        "performer": [
          {
            "display": "The Central European Lab"
          }
        ],
        "category": [
          {
            "coding": [
              {
                "system": "http://terminology.hl7.org/CodeSystem/observation-category",
                "code": "laboratory"
              }
            ]
          }
        ],
        "code": {
          "coding": [
            {
              "code": "1751-7",
              "system": "http://loinc.org",
              "display": "Albumin [Mass/volume] in Serum or Plasma"
            }
          ],
          "text": "Albumin [Mass/volume] in Serum or Plasma"
        },
        "valueQuantity": {
          "system": "http://unitsofmeasure.org",
          "value": 4.8,
          "unit": "g/dL",
          "code": "g/dL"
        },
        "referenceRange": [
          {
            "low": {
              "value": 3.5,
              "code": "g/dL",
              "system": "http://unitsofmeasure.org"
            }
          },
          {
            "high": {
              "value": 5.5,
              "code": "g/dL",
              "system": "http://unitsofmeasure.org"
            }
          }
        ],
        "text": {
          "status": "generated",
          "div": "<div xmlns=\"http://www.w3.org/1999/xhtml\"><table class=\"hl7__eu__lab__report\"><tr><th>Test</th><th>19-Nov-2022</th><th>Reference&#xA0;Range</th><th>Unit</th></tr><tr><td>Albumin [Mass/volume] in Serum or Plasma</td><td>4.8</td><td>3.5 - 5.5</td><td></td><td>g/dL</td></tr></table></div>"
        },
        "status": "final",
        "subject": {
          "reference": "urn:uuid:6d288cdd-79b7-4a6c-93d7-19ecaa633661",
          "display": "Helene Andresen"
        },
        "effectiveDateTime": "2022-11-19T22:53:36Z",
        "specimen": {
          "reference": "urn:uuid:717e1a8f-5e0b-4f11-8736-ba583d36763f"
        }
      }
    },
    {
      "fullUrl": "urn:uuid:1febf649-7ae7-481b-a172-bdc0cef3fbc2",
      "resource": {
        "resourceType": "Observation",
        "id": "1febf649-7ae7-481b-a172-bdc0cef3fbc2",
        "meta": {
          "profile": [
            "http://hl7.eu/fhir/laboratory/StructureDefinition/Observation-resultslab-eu-lab"
          ]
        },
        "performer": [
          {
            "display": "The Central European Lab"
          }
        ],
        "category": [
          {
            "coding": [
              {
                "system": "http://terminology.hl7.org/CodeSystem/observation-category",
                "code": "laboratory"
              }
            ]
          }
        ],
        "code": {
          "coding": [
            {
              "code": "10834-0",
              "system": "http://loinc.org",
              "display": "Globulin [Mass/volume] in Serum by calculation"
            }
          ],
          "text": "Globulin [Mass/volume] in Serum by calculation"
        },
        "valueQuantity": {
          "system": "http://unitsofmeasure.org",
          "value": 2,
          "unit": "g/L",
          "code": "g/L"
        },
        "referenceRange": [
          {
            "low": {
              "value": 2.2,
              "code": "g/L",
              "system": "http://unitsofmeasure.org"
            }
          },
          {
            "high": {
              "value": 3.7,
              "code": "g/L",
              "system": "http://unitsofmeasure.org"
            }
          }
        ],
        "interpretation": [
          {
            "coding": [
              {
                "code": "L",
                "system": "http://terminology.hl7.org/CodeSystem/v3-ObservationInterpretation",
                "display": "Low"
              }
            ]
          }
        ],
        "text": {
          "status": "generated",
          "div": "<div xmlns=\"http://www.w3.org/1999/xhtml\"><table class=\"hl7__eu__lab__report\"><tr><th>Test</th><th>19-Nov-2022</th><th>Reference&#xA0;Range</th><th>Unit</th></tr><tr><td>Globulin [Mass/volume] in Serum by calculation</td><td>2.0</td><td>2.2 - 3.7</td><td>L</td><td>g/L</td></tr></table></div>"
        },
        "status": "final",
        "subject": {
          "reference": "urn:uuid:6d288cdd-79b7-4a6c-93d7-19ecaa633661",
          "display": "Helene Andresen"
        },
        "effectiveDateTime": "2022-11-19T22:53:36Z",
        "specimen": {
          "reference": "urn:uuid:87246a9f-29a6-4a73-ab71-d57bcad36999"
        }
      }
    },
    {
      "fullUrl": "urn:uuid:94990004-b9de-4405-b88e-d2270cab30e9",
      "resource": {
        "resourceType": "Observation",
        "id": "94990004-b9de-4405-b88e-d2270cab30e9",
        "meta": {
          "profile": [
            "http://hl7.eu/fhir/laboratory/StructureDefinition/Observation-resultslab-eu-lab"
          ]
        },
        "performer": [
          {
            "display": "The Central European Lab"
          }
        ],
        "category": [
          {
            "coding": [
              {
                "system": "http://terminology.hl7.org/CodeSystem/observation-category",
                "code": "laboratory"
              }
            ]
          }
        ],
        "code": {
          "coding": [
            {
              "code": "1975-2",
              "system": "http://loinc.org",
              "display": "Bilirubin.total [Mass/volume] in Serum or Plasma"
            }
          ],
          "text": "Bilirubin.total [Mass/volume] in Serum or Plasma"
        },
        "valueQuantity": {
          "system": "http://unitsofmeasure.org",
          "value": 1.2,
          "unit": "mg/dL",
          "code": "mg/dL"
        },
        "referenceRange": [
          {
            "low": {
              "value": 0.3,
              "code": "mg/dL",
              "system": "http://unitsofmeasure.org"
            }
          },
          {
            "high": {
              "value": 1.2,
              "code": "mg/dL",
              "system": "http://unitsofmeasure.org"
            }
          }
        ],
        "text": {
          "status": "generated",
          "div": "<div xmlns=\"http://www.w3.org/1999/xhtml\"><table class=\"hl7__eu__lab__report\"><tr><th>Test</th><th>19-Nov-2022</th><th>Reference&#xA0;Range</th><th>Unit</th></tr><tr><td>Bilirubin.total [Mass/volume] in Serum or Plasma</td><td>1.2</td><td>0.3 - 1.2</td><td></td><td>mg/dL</td></tr></table></div>"
        },
        "status": "final",
        "subject": {
          "reference": "urn:uuid:6d288cdd-79b7-4a6c-93d7-19ecaa633661",
          "display": "Helene Andresen"
        },
        "effectiveDateTime": "2022-11-19T22:53:36Z",
        "specimen": {
          "reference": "urn:uuid:717e1a8f-5e0b-4f11-8736-ba583d36763f"
        }
      }
    },
    {
      "fullUrl": "urn:uuid:91bed153-318d-4fef-84b8-7de23f0ec5ef",
      "resource": {
        "resourceType": "Observation",
        "id": "91bed153-318d-4fef-84b8-7de23f0ec5ef",
        "meta": {
          "profile": [
            "http://hl7.eu/fhir/laboratory/StructureDefinition/Observation-resultslab-eu-lab"
          ]
        },
        "performer": [
          {
            "display": "The Central European Lab"
          }
        ],
        "category": [
          {
            "coding": [
              {
                "system": "http://terminology.hl7.org/CodeSystem/observation-category",
                "code": "laboratory"
              }
            ]
          }
        ],
        "code": {
          "coding": [
            {
              "code": "6768-6",
              "system": "http://loinc.org",
              "display": "Alkaline phosphatase [Enzymatic activity/volume] in Serum or Plasma"
            }
          ],
          "text": "Alkaline phosphatase [Enzymatic activity/volume] in Serum or Plasma"
        },
        "valueQuantity": {
          "system": "http://unitsofmeasure.org",
          "value": 84.2,
          "unit": "U/L",
          "code": "U/L"
        },
        "referenceRange": [
          {
            "low": {
              "value": 40,
              "code": "U/L",
              "system": "http://unitsofmeasure.org"
            }
          },
          {
            "high": {
              "value": 130,
              "code": "U/L",
              "system": "http://unitsofmeasure.org"
            }
          }
        ],
        "text": {
          "status": "generated",
          "div": "<div xmlns=\"http://www.w3.org/1999/xhtml\"><table class=\"hl7__eu__lab__report\"><tr><th>Test</th><th>19-Nov-2022</th><th>Reference&#xA0;Range</th><th>Unit</th></tr><tr><td>Alkaline phosphatase [Enzymatic activity/volume] in Serum or Plasma</td><td>84.2</td><td>40 - 130</td><td></td><td>U/L</td></tr></table></div>"
        },
        "status": "final",
        "subject": {
          "reference": "urn:uuid:6d288cdd-79b7-4a6c-93d7-19ecaa633661",
          "display": "Helene Andresen"
        },
        "effectiveDateTime": "2022-11-19T22:53:36Z",
        "specimen": {
          "reference": "urn:uuid:717e1a8f-5e0b-4f11-8736-ba583d36763f"
        }
      }
    },
    {
      "fullUrl": "urn:uuid:2fa4ba0e-e5e7-4fa1-86f3-05c74c3cd8be",
      "resource": {
        "resourceType": "Observation",
        "id": "2fa4ba0e-e5e7-4fa1-86f3-05c74c3cd8be",
        "meta": {
          "profile": [
            "http://hl7.eu/fhir/laboratory/StructureDefinition/Observation-resultslab-eu-lab"
          ]
        },
        "performer": [
          {
            "display": "The Central European Lab"
          }
        ],
        "category": [
          {
            "coding": [
              {
                "system": "http://terminology.hl7.org/CodeSystem/observation-category",
                "code": "laboratory"
              }
            ]
          }
        ],
        "code": {
          "coding": [
            {
              "code": "1742-6",
              "system": "http://loinc.org",
              "display": "Alanine aminotransferase [Enzymatic activity/volume] in Serum or Plasma"
            }
          ],
          "text": "Alanine aminotransferase [Enzymatic activity/volume] in Serum or Plasma"
        },
        "valueQuantity": {
          "system": "http://unitsofmeasure.org",
          "value": 34.6,
          "unit": "U/L",
          "code": "U/L"
        },
        "referenceRange": [
          {
            "low": {
              "value": 7,
              "code": "U/L",
              "system": "http://unitsofmeasure.org"
            }
          },
          {
            "high": {
              "value": 55,
              "code": "U/L",
              "system": "http://unitsofmeasure.org"
            }
          }
        ],
        "text": {
          "status": "generated",
          "div": "<div xmlns=\"http://www.w3.org/1999/xhtml\"><table class=\"hl7__eu__lab__report\"><tr><th>Test</th><th>19-Nov-2022</th><th>Reference&#xA0;Range</th><th>Unit</th></tr><tr><td>Alanine aminotransferase [Enzymatic activity/volume] in Serum or Plasma</td><td>34.6</td><td>7 - 55</td><td></td><td>U/L</td></tr></table></div>"
        },
        "status": "final",
        "subject": {
          "reference": "urn:uuid:6d288cdd-79b7-4a6c-93d7-19ecaa633661",
          "display": "Helene Andresen"
        },
        "effectiveDateTime": "2022-11-19T22:53:36Z",
        "specimen": {
          "reference": "urn:uuid:717e1a8f-5e0b-4f11-8736-ba583d36763f"
        }
      }
    },
    {
      "fullUrl": "urn:uuid:de6790d1-6323-4869-8985-a5e711778cf5",
      "resource": {
        "resourceType": "Observation",
        "id": "de6790d1-6323-4869-8985-a5e711778cf5",
        "meta": {
          "profile": [
            "http://hl7.eu/fhir/laboratory/StructureDefinition/Observation-resultslab-eu-lab"
          ]
        },
        "performer": [
          {
            "display": "The Central European Lab"
          }
        ],
        "category": [
          {
            "coding": [
              {
                "system": "http://terminology.hl7.org/CodeSystem/observation-category",
                "code": "laboratory"
              }
            ]
          }
        ],
        "code": {
          "coding": [
            {
              "code": "1920-8",
              "system": "http://loinc.org",
              "display": "Aspartate aminotransferase [Enzymatic activity/volume] in Serum or Plasma"
            }
          ],
          "text": "Aspartate aminotransferase [Enzymatic activity/volume] in Serum or Plasma"
        },
        "valueQuantity": {
          "system": "http://unitsofmeasure.org",
          "value": 26,
          "unit": "U/L",
          "code": "U/L"
        },
        "referenceRange": [
          {
            "low": {
              "value": 10,
              "code": "U/L",
              "system": "http://unitsofmeasure.org"
            }
          },
          {
            "high": {
              "value": 40,
              "code": "U/L",
              "system": "http://unitsofmeasure.org"
            }
          }
        ],
        "text": {
          "status": "generated",
          "div": "<div xmlns=\"http://www.w3.org/1999/xhtml\"><table class=\"hl7__eu__lab__report\"><tr><th>Test</th><th>19-Nov-2022</th><th>Reference&#xA0;Range</th><th>Unit</th></tr><tr><td>Aspartate aminotransferase [Enzymatic activity/volume] in Serum or Plasma</td><td>26.0</td><td>10 - 40</td><td></td><td>U/L</td></tr></table></div>"
        },
        "status": "final",
        "subject": {
          "reference": "urn:uuid:6d288cdd-79b7-4a6c-93d7-19ecaa633661",
          "display": "Helene Andresen"
        },
        "effectiveDateTime": "2022-11-19T22:53:36Z",
        "specimen": {
          "reference": "urn:uuid:717e1a8f-5e0b-4f11-8736-ba583d36763f"
        }
      }
    },
    {
      "fullUrl": "urn:uuid:79ca2902-414f-4171-bb2e-096ff7818b5e",
      "resource": {
        "resourceType": "Observation",
        "id": "79ca2902-414f-4171-bb2e-096ff7818b5e",
        "meta": {
          "profile": [
            "http://hl7.eu/fhir/laboratory/StructureDefinition/Observation-resultslab-eu-lab"
          ]
        },
        "performer": [
          {
            "display": "The Central European Lab"
          }
        ],
        "category": [
          {
            "coding": [
              {
                "system": "http://terminology.hl7.org/CodeSystem/observation-category",
                "code": "laboratory"
              }
            ]
          }
        ],
        "code": {
          "coding": [
            {
              "code": "2093-3",
              "system": "http://loinc.org",
              "display": "Cholesterol [Mass/volume] in Serum or Plasma"
            }
          ],
          "text": "Cholesterol [Mass/volume] in Serum or Plasma"
        },
        "valueQuantity": {
          "system": "http://unitsofmeasure.org",
          "value": 155.3,
          "unit": "mg/dL",
          "code": "mg/dL"
        },
        "referenceRange": [
          {
            "low": {
              "value": 125,
              "code": "mg/dL",
              "system": "http://unitsofmeasure.org"
            }
          },
          {
            "high": {
              "value": 200,
              "code": "mg/dL",
              "system": "http://unitsofmeasure.org"
            }
          }
        ],
        "text": {
          "status": "generated",
          "div": "<div xmlns=\"http://www.w3.org/1999/xhtml\"><table class=\"hl7__eu__lab__report\"><tr><th>Test</th><th>19-Nov-2022</th><th>Reference&#xA0;Range</th><th>Unit</th></tr><tr><td>Cholesterol [Mass/volume] in Serum or Plasma</td><td>155.3</td><td>125 - 200</td><td></td><td>mg/dL</td></tr></table></div>"
        },
        "status": "final",
        "subject": {
          "reference": "urn:uuid:6d288cdd-79b7-4a6c-93d7-19ecaa633661",
          "display": "Helene Andresen"
        },
        "effectiveDateTime": "2022-11-19T22:53:36Z",
        "specimen": {
          "reference": "urn:uuid:717e1a8f-5e0b-4f11-8736-ba583d36763f"
        }
      }
    },
    {
      "fullUrl": "urn:uuid:4d36c789-22a7-4764-9159-7151bd67f584",
      "resource": {
        "resourceType": "Observation",
        "id": "4d36c789-22a7-4764-9159-7151bd67f584",
        "meta": {
          "profile": [
            "http://hl7.eu/fhir/laboratory/StructureDefinition/Observation-resultslab-eu-lab"
          ]
        },
        "performer": [
          {
            "display": "The Central European Lab"
          }
        ],
        "category": [
          {
            "coding": [
              {
                "system": "http://terminology.hl7.org/CodeSystem/observation-category",
                "code": "laboratory"
              }
            ]
          }
        ],
        "code": {
          "coding": [
            {
              "code": "2571-8",
              "system": "http://loinc.org",
              "display": "Triglyceride [Mass/volume] in Serum or Plasma"
            }
          ],
          "text": "Triglyceride [Mass/volume] in Serum or Plasma"
        },
        "valueQuantity": {
          "system": "http://unitsofmeasure.org",
          "value": 159,
          "unit": "mg/dL",
          "code": "mg/dL"
        },
        "referenceRange": [
          {
            "low": {
              "value": 10,
              "code": "mg/dL",
              "system": "http://unitsofmeasure.org"
            }
          },
          {
            "high": {
              "value": 175,
              "code": "mg/dL",
              "system": "http://unitsofmeasure.org"
            }
          }
        ],
        "text": {
          "status": "generated",
          "div": "<div xmlns=\"http://www.w3.org/1999/xhtml\"><table class=\"hl7__eu__lab__report\"><tr><th>Test</th><th>19-Nov-2022</th><th>Reference&#xA0;Range</th><th>Unit</th></tr><tr><td>Triglyceride [Mass/volume] in Serum or Plasma</td><td>159.0</td><td>10 - 175</td><td></td><td>mg/dL</td></tr></table></div>"
        },
        "status": "final",
        "subject": {
          "reference": "urn:uuid:6d288cdd-79b7-4a6c-93d7-19ecaa633661",
          "display": "Helene Andresen"
        },
        "effectiveDateTime": "2022-11-19T22:53:36Z",
        "specimen": {
          "reference": "urn:uuid:717e1a8f-5e0b-4f11-8736-ba583d36763f"
        }
      }
    },
    {
      "fullUrl": "urn:uuid:3c8ba8d5-fd87-474b-b49e-ffcd7c829f2c",
      "resource": {
        "resourceType": "Observation",
        "id": "3c8ba8d5-fd87-474b-b49e-ffcd7c829f2c",
        "meta": {
          "profile": [
            "http://hl7.eu/fhir/laboratory/StructureDefinition/Observation-resultslab-eu-lab"
          ]
        },
        "performer": [
          {
            "display": "The Central European Lab"
          }
        ],
        "category": [
          {
            "coding": [
              {
                "system": "http://terminology.hl7.org/CodeSystem/observation-category",
                "code": "laboratory"
              }
            ]
          }
        ],
        "code": {
          "coding": [
            {
              "code": "18262-6",
              "system": "http://loinc.org",
              "display": "Cholesterol in LDL [Mass/volume] in Serum or Plasma by Direct assay"
            }
          ],
          "text": "Cholesterol in LDL [Mass/volume] in Serum or Plasma by Direct assay"
        },
        "valueQuantity": {
          "system": "http://unitsofmeasure.org",
          "value": 114.8,
          "unit": "mg/dL",
          "code": "mg/dL"
        },
        "referenceRange": [
          {
            "low": {
              "value": 0,
              "code": "mg/dL",
              "system": "http://unitsofmeasure.org"
            }
          },
          {
            "high": {
              "value": 130,
              "code": "mg/dL",
              "system": "http://unitsofmeasure.org"
            }
          }
        ],
        "text": {
          "status": "generated",
          "div": "<div xmlns=\"http://www.w3.org/1999/xhtml\"><table class=\"hl7__eu__lab__report\"><tr><th>Test</th><th>19-Nov-2022</th><th>Reference&#xA0;Range</th><th>Unit</th></tr><tr><td>Cholesterol in LDL [Mass/volume] in Serum or Plasma by Direct assay</td><td>114.8</td><td>0 - 130</td><td></td><td>mg/dL</td></tr></table></div>"
        },
        "status": "final",
        "subject": {
          "reference": "urn:uuid:6d288cdd-79b7-4a6c-93d7-19ecaa633661",
          "display": "Helene Andresen"
        },
        "effectiveDateTime": "2022-11-19T22:53:36Z",
        "specimen": {
          "reference": "urn:uuid:717e1a8f-5e0b-4f11-8736-ba583d36763f"
        }
      }
    },
    {
      "fullUrl": "urn:uuid:401a96a1-9e65-46b6-af13-d0a1f71a6bf8",
      "resource": {
        "resourceType": "Observation",
        "id": "401a96a1-9e65-46b6-af13-d0a1f71a6bf8",
        "meta": {
          "profile": [
            "http://hl7.eu/fhir/laboratory/StructureDefinition/Observation-resultslab-eu-lab"
          ]
        },
        "performer": [
          {
            "display": "The Central European Lab"
          }
        ],
        "category": [
          {
            "coding": [
              {
                "system": "http://terminology.hl7.org/CodeSystem/observation-category",
                "code": "laboratory"
              }
            ]
          }
        ],
        "code": {
          "coding": [
            {
              "code": "2085-9",
              "system": "http://loinc.org",
              "display": "Cholesterol in HDL [Mass/volume] in Serum or Plasma"
            }
          ],
          "text": "Cholesterol in HDL [Mass/volume] in Serum or Plasma"
        },
        "valueQuantity": {
          "system": "http://unitsofmeasure.org",
          "value": 51.6,
          "unit": "mg/dL",
          "code": "mg/dL"
        },
        "referenceRange": [
          {
            "low": {
              "value": 50,
              "code": "mg/dL",
              "system": "http://unitsofmeasure.org"
            }
          },
          {
            "high": {
              "value": 100,
              "code": "mg/dL",
              "system": "http://unitsofmeasure.org"
            }
          }
        ],
        "text": {
          "status": "generated",
          "div": "<div xmlns=\"http://www.w3.org/1999/xhtml\"><table class=\"hl7__eu__lab__report\"><tr><th>Test</th><th>19-Nov-2022</th><th>Reference&#xA0;Range</th><th>Unit</th></tr><tr><td>Cholesterol in HDL [Mass/volume] in Serum or Plasma</td><td>51.6</td><td>50 - 100</td><td></td><td>mg/dL</td></tr></table></div>"
        },
        "status": "final",
        "subject": {
          "reference": "urn:uuid:6d288cdd-79b7-4a6c-93d7-19ecaa633661",
          "display": "Helene Andresen"
        },
        "effectiveDateTime": "2022-11-19T22:53:36Z",
        "specimen": {
          "reference": "urn:uuid:717e1a8f-5e0b-4f11-8736-ba583d36763f"
        }
      }
    },
    {
      "fullUrl": "urn:uuid:4f5e47f9-9dc8-4a78-ab06-3ab667527711",
      "resource": {
        "resourceType": "Device",
        "id": "4f5e47f9-9dc8-4a78-ab06-3ab667527711",
        "deviceName": [
          {
            "name": "SYNDERAI Synthetic Generator",
            "type": "manufacturer-name"
          }
        ],
        "version": [
          {
            "value": "5.0"
          }
        ],
        "text": {
          "status": "generated",
          "div": "<div xmlns=\"http://www.w3.org/1999/xhtml\">SYNDERAI Synthetic Generator v5.0</div>"
        },
        "status": "active\"",
        "distinctIdentifier": "synderai-generator-50",
        "manufacturer": "SYNDERAI Project"
      }
    },
    {
      "fullUrl": "urn:uuid:c9f457e9-6dda-434a-a07f-e78f8851e402",
      "resource": {
        "resourceType": "Provenance",
        "id": "c9f457e9-6dda-434a-a07f-e78f8851e402",
        "target": [
          {
            "reference": "Patient/6d288cdd-79b7-4a6c-93d7-19ecaa633661"
          },
          {
            "reference": "Bundle/fb06b34a-50a2-4f1f-a30a-b90b2a40db6c"
          },
          {
            "reference": "Composition/5d7e8dd1-cb8a-41cc-84d4-c9627fbea392"
          },
          {
            "reference": "PractitionerRole/038690ad-7de7-4190-bbbe-671ea40c5e80"
          },
          {
            "reference": "Practitioner/18bf8899-adea-415b-8fb0-b4b68f5f87f7"
          },
          {
            "reference": "PractitionerRole/d554d1c0-fe7f-4bee-b268-0494b28f54ce"
          },
          {
            "reference": "Organization/1a61459c-e701-4acb-95d0-8a9168d59fdf"
          }
        ],
        "activity": {
          "text": "Synthetic Example Data Generation"
        },
        "policy": [
          "https://synderai.net/synderai-synthetic-data-policy"
        ],
        "agent": [
          {
            "type": {
              "text": "author"
            },
            "who": {
              "reference": "Device/4f5e47f9-9dc8-4a78-ab06-3ab667527711"
            }
          }
        ],
        "reason": [
          {
            "text": "Interoperability Testing and Training (non-clinical use)"
          }
        ],
        "text": {
          "status": "generated",
          "div": "<div xmlns=\"http://www.w3.org/1999/xhtml\">Provenance for SYNDERAI Synthetic Example Data Resource</div>"
        },
        "recorded": "2022-11-19T23:53:36Z"
      }
    },
    {
      "fullUrl": "urn:uuid:038690ad-7de7-4190-bbbe-671ea40c5e80",
      "resource": {
        "resourceType": "PractitionerRole",
        "id": "038690ad-7de7-4190-bbbe-671ea40c5e80",
        "meta": {
          "profile": [
            "http://hl7.eu/fhir/base/StructureDefinition/practitionerRole-eu"
          ]
        },
        "text": {
          "status": "generated",
          "div": "<div xmlns=\"http://www.w3.org/1999/xhtml\">Laboratory Role Id: 038690ad-7de7-4190-bbbe-671ea40c5e80</div>"
        },
        "practitioner": {
          "reference": "urn:uuid:18bf8899-adea-415b-8fb0-b4b68f5f87f7"
        }
      }
    },
    {
      "fullUrl": "urn:uuid:18bf8899-adea-415b-8fb0-b4b68f5f87f7",
      "resource": {
        "resourceType": "Practitioner",
        "id": "18bf8899-adea-415b-8fb0-b4b68f5f87f7",
        "meta": {
          "profile": [
            "http://hl7.eu/fhir/base/StructureDefinition/practitioner-eu"
          ]
        },
        "identifier": [
          {
            "assigner": {
              "display": "HL7 Europe"
            },
            "system": "urn:oid:2.16.840.1.113883.2.51.999",
            "value": "96272e67-63ee-495c-8c79-65cb66c7c512"
          }
        ],
        "name": [
          {
            "prefix": [
              "dr"
            ],
            "given": [
              "Ex"
            ],
            "family": "Ample"
          }
        ],
        "address": [
          {
            "line": [
              "Laboratoire Central Européenne",
              "Boulevard du Jardin Botanique 32"
            ],
            "postalCode": "1000",
            "city": "Brussels",
            "country": "Belgium"
          }
        ],
        "text": {
          "status": "generated",
          "div": "<div xmlns=\"http://www.w3.org/1999/xhtml\">Laboratory: Laboratoire Central Européenne, 1000 Brussels, Belgium</div>"
        }
      }
    }
  ],
  "type": "document",
  "timestamp": "2022-11-19T23:53:36Z"
}
