{
  "resourceType": "Bundle",
  "id": "f9a84460-e487-498c-91b1-3154033b52c8",
  "meta": {
    "profile": [
      "http://hl7.eu/fhir/laboratory/StructureDefinition/Bundle-eu-lab"
    ]
  },
  "identifier": {
    "assigner": {
      "display": "HL7 Europe"
    },
    "system": "urn:oid:2.16.840.1.113883.2.51.999",
    "value": "a427986d-0558-48e9-b21e-e60d12a2cc85"
  },
  "entry": [
    {
      "fullUrl": "urn:uuid:55492688-36fe-4b8f-a4fc-cc0e11a75a2e",
      "resource": {
        "resourceType": "Composition",
        "id": "55492688-36fe-4b8f-a4fc-cc0e11a75a2e",
        "meta": {
          "profile": [
            "http://hl7.eu/fhir/laboratory/StructureDefinition/Composition-eu-lab"
          ]
        },
        "identifier": {
          "assigner": {
            "display": "HL7 Europe"
          },
          "system": "urn:oid:2.16.840.1.113883.2.51.999",
          "value": "79739be5-7c06-453c-ba03-493ff23c7697"
        },
        "author": [
          {
            "reference": "urn:uuid:1cb656ad-22f5-47d6-9983-c1747f36f35d"
          }
        ],
        "category": [
          {
            "coding": [
              {
                "code": "26436-6",
                "system": "http://loinc.org",
                "display": "Laboratory studies (set)"
              }
            ]
          }
        ],
        "type": {
          "coding": [
            {
              "code": "11502-2",
              "system": "http://loinc.org",
              "display": "Laboratory report"
            }
          ],
          "text": "Laboratory Report"
        },
        "section": [
          {
            "code": {
              "coding": [
                {
                  "code": "26436-6",
                  "system": "http://loinc.org",
                  "display": "Laboratory studies (set)"
                }
              ],
              "text": "Laboratory studies"
            },
            "section": [
              {
                "code": {
                  "coding": [
                    {
                      "code": "$18719-5",
                      "system": "http://loinc.org",
                      "display": "Chemistry studies (set)"
                    }
                  ],
                  "text": "Chemistry"
                },
                "entry": [
                  {
                    "reference": "urn:uuid:56a8f3a4-21b8-4a6a-aa30-8cb95bf3155c"
                  },
                  {
                    "reference": "urn:uuid:c0ea940e-6ef6-4b35-b312-c4461cc56e50"
                  },
                  {
                    "reference": "urn:uuid:dc93cbba-7f2e-411e-8873-f678de2460bc"
                  },
                  {
                    "reference": "urn:uuid:b097dc46-d63a-4df3-91ac-0bf1e294ec50"
                  },
                  {
                    "reference": "urn:uuid:e4f235bc-2477-425f-8689-e063f1357dc7"
                  },
                  {
                    "reference": "urn:uuid:ddd400ab-7d09-4bc7-bc90-790a0c955521"
                  },
                  {
                    "reference": "urn:uuid:0feab003-0e61-4f30-b1e4-c4709b8c7b41"
                  },
                  {
                    "reference": "urn:uuid:9b30ab81-5587-4aa7-ac60-5d1f40c93ea7"
                  },
                  {
                    "reference": "urn:uuid:bfc39fcb-a136-42c5-97e2-b723d97e443c"
                  },
                  {
                    "reference": "urn:uuid:7214a6bf-01ae-45d2-a3d9-e9f3eb0612f4"
                  },
                  {
                    "reference": "urn:uuid:03d8be8d-1776-46ed-bc1e-6a070e0d91a6"
                  },
                  {
                    "reference": "urn:uuid:56540dc6-25b3-4f9a-954b-829982480280"
                  },
                  {
                    "reference": "urn:uuid:547fdc1e-a381-4362-be45-f53e9cf2b00b"
                  },
                  {
                    "reference": "urn:uuid:4c0047b6-8ea9-4b1d-8433-de5cc188c408"
                  },
                  {
                    "reference": "urn:uuid:f338c628-aa29-41db-a714-68838106a99b"
                  },
                  {
                    "reference": "urn:uuid:8c458709-5d2e-46f3-b41f-7e3a5aef2f05"
                  },
                  {
                    "reference": "urn:uuid:4d253319-f092-4533-8aad-121747ebd578"
                  },
                  {
                    "reference": "urn:uuid:38c596cc-f1db-4a39-b3b5-fa52599ced4b"
                  }
                ],
                "text": {
                  "status": "generated",
                  "div": "<div xmlns=\"http://www.w3.org/1999/xhtml\"><h3>Chemistry</h3><table class=\"hl7__eu__lab__report\"><thead><tr><th>Test</th><th>16-DEC-2024</th><th>Reference&#xA0;Range</th><th>Unit</th></tr></thead><tbody><tr><td>Glucose [Mass/volume] in Serum or Plasma</td><td>93.1</td><td>70 - 99</td><td>mg/dL</td></tr><tr><td>Urea nitrogen [Mass/volume] in Serum or Plasma</td><td>9.0</td><td>7 - 50</td><td>mg/dL</td></tr><tr><td>Creatinine [Mass/volume] in Serum or Plasma</td><td><strong>1.9 H</strong></td><td>0.6 - 1.1</td><td>mg/dL</td></tr><tr><td>Calcium [Mass/volume] in Serum or Plasma</td><td>9.6</td><td>8.6 - 10.4</td><td>mg/dL</td></tr><tr><td>Sodium [Moles/volume] in Serum or Plasma</td><td>137.8</td><td>135 - 145</td><td>mmol/L</td></tr><tr><td>Potassium [Moles/volume] in Serum or Plasma</td><td>4.0</td><td>3.5 - 5.1</td><td>mmol/L</td></tr><tr><td>Chloride [Moles/volume] in Serum or Plasma</td><td>102.7</td><td>98 - 108</td><td>mmol/L</td></tr><tr><td>Carbon dioxide, total [Moles/volume] in Serum or Plasma</td><td><strong>20.9 L</strong></td><td>22 - 32</td><td>mmol/L</td></tr><tr><td>Ketones [Presence] in Urine by Test strip</td><td>Urine ketone test = ++</td><td></td><td></td></tr><tr><td>Hemoglobin A1c/Hemoglobin.total in Blood</td><td>4.0</td><td>4 - 6.4</td><td>%</td></tr><tr><td>Glucose [Mass/volume] in Blood</td><td>93.1</td><td>70 - 100</td><td>mg/dL</td></tr><tr><td>Urea nitrogen [Mass/volume] in Blood</td><td>9.0</td><td>7 - 43</td><td>mg/dL</td></tr><tr><td>Creatinine [Mass/volume] in Blood</td><td><strong>2.4 H</strong></td><td>0.6 - 1.1</td><td>mg/dL</td></tr><tr><td>Calcium [Mass/volume] in Blood</td><td>9.6</td><td>8.5 - 10.5</td><td>mg/dL</td></tr><tr><td>Sodium [Moles/volume] in Blood</td><td>137.8</td><td>135 - 145</td><td>mmol/L</td></tr><tr><td>Potassium [Moles/volume] in Blood</td><td>4.0</td><td>3.5 - 5.1</td><td>mmol/L</td></tr><tr><td>Chloride [Moles/volume] in Blood</td><td>102.7</td><td>98 - 108</td><td>mmol/L</td></tr><tr><td>Carbon dioxide, total [Moles/volume] in Blood</td><td><strong>20.9 L</strong></td><td>22 - 29</td><td>mmol/L</td></tr></tbody></table></div>"
                },
                "title": "Chemistry"
              },
              {
                "code": {
                  "coding": [
                    {
                      "code": "$18729-4",
                      "system": "http://loinc.org",
                      "display": "Urinalysis studies (set)"
                    }
                  ],
                  "text": "Urinalysis"
                },
                "entry": [
                  {
                    "reference": "urn:uuid:ae668a91-6aa6-4b1e-b1fe-6a06304e58a7"
                  },
                  {
                    "reference": "urn:uuid:69385cab-7186-4a5f-bb6a-04c491c751ed"
                  },
                  {
                    "reference": "urn:uuid:713cc588-acc5-481b-8872-72c8113d5211"
                  },
                  {
                    "reference": "urn:uuid:ebf8b2a3-9d76-4ea7-8e2d-6f0c9a4e8a6d"
                  },
                  {
                    "reference": "urn:uuid:36f6fcaa-82b1-4bf9-aee4-010fb35d45a8"
                  },
                  {
                    "reference": "urn:uuid:ab4c803a-de3d-402b-851a-c92e487d63c0"
                  },
                  {
                    "reference": "urn:uuid:95d03276-d158-458d-909f-5d496af29de6"
                  },
                  {
                    "reference": "urn:uuid:f0d8f14f-a46b-4e0b-bd85-9318b91548ca"
                  },
                  {
                    "reference": "urn:uuid:d2d06de3-271e-4db0-b8f4-c65a26b5ed99"
                  },
                  {
                    "reference": "urn:uuid:e1e0031a-4031-4c3c-a26b-2ac8dee0d046"
                  },
                  {
                    "reference": "urn:uuid:2cdd8b9f-51ce-4b63-8dbc-85b1ad7ea084"
                  },
                  {
                    "reference": "urn:uuid:25e7c15e-cb68-4cf9-9aa5-db9c3ae0ce5e"
                  }
                ],
                "text": {
                  "status": "generated",
                  "div": "<div xmlns=\"http://www.w3.org/1999/xhtml\"><h3>Urinalysis</h3><table class=\"hl7__eu__lab__report\"><thead><tr><th>Test</th><th>16-DEC-2024</th><th>Reference&#xA0;Range</th><th>Unit</th></tr></thead><tbody><tr><td>Glucose [Mass/volume] in Urine by Test strip</td><td><strong>0.7 L</strong></td><td>0.8 - 0</td><td>mg/dL</td></tr><tr><td>Glucose [Presence] in Urine by Test strip</td><td>++</td><td></td><td></td></tr><tr><td>Bilirubin.total [Mass/volume] in Urine by Test strip</td><td><strong>1.5 H</strong></td><td>0 - 1</td><td>mg/dL</td></tr><tr><td>Bilirubin.total [Presence] in Urine by Test strip</td><td>Finding of bilirubin in urine</td><td></td><td></td></tr><tr><td>Ketones [Mass/volume] in Urine by Test strip</td><td><strong>7.7 H</strong></td><td>0 - 4</td><td>mg/dL</td></tr><tr><td>Specific gravity of Urine by Test strip</td><td><strong>1.0 L</strong></td><td>1.005 - 1.03</td><td>{nominal}</td></tr><tr><td>pH of Urine by Test strip</td><td>5.4</td><td>4.6 - 7</td><td>pH</td></tr><tr><td>Protein [Mass/volume] in Urine by Test strip</td><td><strong>337.6 H</strong></td><td>0 - 14</td><td>mg/dL</td></tr><tr><td>Protein [Presence] in Urine by Test strip</td><td>Urine protein test = ++</td><td></td><td></td></tr><tr><td>Nitrite [Presence] in Urine by Test strip</td><td>Urine nitrite negative</td><td></td><td></td></tr><tr><td>Hemoglobin [Presence] in Urine by Test strip</td><td>Urine blood test = negative</td><td></td><td></td></tr><tr><td>Leukocyte esterase [Presence] in Urine by Test strip</td><td>Urine leukocyte test negative</td><td></td><td></td></tr></tbody></table></div>"
                },
                "title": "Urinalysis"
              },
              {
                "code": {
                  "coding": [
                    {
                      "code": "$LP7846-1",
                      "system": "http://loinc.org",
                      "display": "Specimen information"
                    }
                  ],
                  "text": "Specimen information"
                },
                "entry": [
                  {
                    "reference": "urn:uuid:ef4016fc-b42f-4169-9b22-8f2670979ec8"
                  },
                  {
                    "reference": "urn:uuid:40d1da55-07d5-42a6-b861-a85ecd0f2c91"
                  },
                  {
                    "reference": "urn:uuid:024c0338-9d7c-4a8e-839e-36e365f3335f"
                  },
                  {
                    "reference": "urn:uuid:c53f2495-62a1-44fe-b41f-54f4afd3fd4d"
                  }
                ],
                "text": {
                  "status": "generated",
                  "div": "<div xmlns=\"http://www.w3.org/1999/xhtml\"><h3>Specimen information</h3><table class=\"hl7__eu__lab__report\"><thead><tr><th>Test</th><th>16-DEC-2024</th><th>Specimen</th><th></th></tr></thead><tbody><tr><td>Appearance of Urine</td><td>Cloudy urine</td><td>Urine</td><td></td></tr><tr><td>Odor of Urine</td><td>Urine smell ammoniacal</td><td>Urine</td><td></td></tr><tr><td>Clarity of Urine</td><td>Translucent</td><td>Urine</td><td></td></tr><tr><td>Color of Urine</td><td>Brown color</td><td>Urine</td><td></td></tr></tbody></table></div>"
                },
                "title": "Specimen information"
              }
            ],
            "title": "Laboratory Report"
          },
          {
            "text": {
              "status": "generated",
              "div": "<div xmlns=\"http://www.w3.org/1999/xhtml\"><h3>Annotation</h3><table class=\"hl7__eu__lab__report\"><tr><th>Conclusion and Recommendations based on this report and previous findings known to us</th></tr><tr><td>The patient shows elevated creatinine, low CO₂, and significant proteinuria, suggesting impaired renal function with possible metabolic acidosis. Urine findings (cloudy, brown, ammoniacal, high protein, bilirubin, ketones, and glucose) further support renal dysfunction, possibly with tubular involvement. No evidence of urinary infection. Recommend urgent nephrology evaluation and further assessment for underlying renal pathology.</td></tr></table></div>"
            },
            "code": {
              "coding": [
                {
                  "system": "http://loinc.org",
                  "code": "48767-8",
                  "display": "Annotation comment"
                }
              ]
            },
            "title": "Annotation comment"
          }
        ],
        "status": "final",
        "subject": {
          "reference": "urn:uuid:4c6c8e95-bfeb-48d8-94c1-332615d73896",
          "display": "Meaghan Neary"
        },
        "date": "2024-12-16T23:11:04Z",
        "title": "Laboratory Report",
        "confidentiality": "N"
      }
    },
    {
      "fullUrl": "urn:uuid:e379e391-f43c-43ad-959c-d3f1294f6a28",
      "resource": {
        "resourceType": "DiagnosticReport",
        "id": "e379e391-f43c-43ad-959c-d3f1294f6a28",
        "meta": {
          "profile": [
            "http://hl7.eu/fhir/laboratory/StructureDefinition/DiagnosticReport-eu-lab"
          ]
        },
        "identifier": [
          {
            "assigner": {
              "display": "HL7 Europe"
            },
            "system": "urn:oid:2.16.840.1.113883.2.51.999",
            "value": "c396ba60-6a23-4fb1-860d-3163c3fb691b"
          }
        ],
        "extension": [
          {
            "url": "http://hl7.org/fhir/5.0/StructureDefinition/extension-DiagnosticReport.composition",
            "valueReference": {
              "reference": "urn:uuid:79739be5-7c06-453c-ba03-493ff23c7697"
            }
          }
        ],
        "category": [
          {
            "coding": [
              {
                "code": "26436-6",
                "system": "http://loinc.org",
                "display": "Laboratory studies (set)"
              }
            ]
          }
        ],
        "specimen": [
          {
            "reference": "urn:uuid:16f88337-6cc2-44f7-88c8-8dbb14e33a07"
          },
          {
            "reference": "urn:uuid:0300aea3-0e17-4426-81f5-73eeab58dd85"
          },
          {
            "reference": "urn:uuid:ee2a250b-094a-48eb-8492-ae37cc29ca85"
          }
        ],
        "result": [
          {
            "reference": "urn:uuid:56a8f3a4-21b8-4a6a-aa30-8cb95bf3155c"
          },
          {
            "reference": "urn:uuid:c0ea940e-6ef6-4b35-b312-c4461cc56e50"
          },
          {
            "reference": "urn:uuid:dc93cbba-7f2e-411e-8873-f678de2460bc"
          },
          {
            "reference": "urn:uuid:b097dc46-d63a-4df3-91ac-0bf1e294ec50"
          },
          {
            "reference": "urn:uuid:e4f235bc-2477-425f-8689-e063f1357dc7"
          },
          {
            "reference": "urn:uuid:ddd400ab-7d09-4bc7-bc90-790a0c955521"
          },
          {
            "reference": "urn:uuid:0feab003-0e61-4f30-b1e4-c4709b8c7b41"
          },
          {
            "reference": "urn:uuid:9b30ab81-5587-4aa7-ac60-5d1f40c93ea7"
          },
          {
            "reference": "urn:uuid:ef4016fc-b42f-4169-9b22-8f2670979ec8"
          },
          {
            "reference": "urn:uuid:40d1da55-07d5-42a6-b861-a85ecd0f2c91"
          },
          {
            "reference": "urn:uuid:024c0338-9d7c-4a8e-839e-36e365f3335f"
          },
          {
            "reference": "urn:uuid:c53f2495-62a1-44fe-b41f-54f4afd3fd4d"
          },
          {
            "reference": "urn:uuid:ae668a91-6aa6-4b1e-b1fe-6a06304e58a7"
          },
          {
            "reference": "urn:uuid:69385cab-7186-4a5f-bb6a-04c491c751ed"
          },
          {
            "reference": "urn:uuid:713cc588-acc5-481b-8872-72c8113d5211"
          },
          {
            "reference": "urn:uuid:ebf8b2a3-9d76-4ea7-8e2d-6f0c9a4e8a6d"
          },
          {
            "reference": "urn:uuid:36f6fcaa-82b1-4bf9-aee4-010fb35d45a8"
          },
          {
            "reference": "urn:uuid:bfc39fcb-a136-42c5-97e2-b723d97e443c"
          },
          {
            "reference": "urn:uuid:ab4c803a-de3d-402b-851a-c92e487d63c0"
          },
          {
            "reference": "urn:uuid:95d03276-d158-458d-909f-5d496af29de6"
          },
          {
            "reference": "urn:uuid:f0d8f14f-a46b-4e0b-bd85-9318b91548ca"
          },
          {
            "reference": "urn:uuid:d2d06de3-271e-4db0-b8f4-c65a26b5ed99"
          },
          {
            "reference": "urn:uuid:e1e0031a-4031-4c3c-a26b-2ac8dee0d046"
          },
          {
            "reference": "urn:uuid:2cdd8b9f-51ce-4b63-8dbc-85b1ad7ea084"
          },
          {
            "reference": "urn:uuid:25e7c15e-cb68-4cf9-9aa5-db9c3ae0ce5e"
          },
          {
            "reference": "urn:uuid:7214a6bf-01ae-45d2-a3d9-e9f3eb0612f4"
          },
          {
            "reference": "urn:uuid:03d8be8d-1776-46ed-bc1e-6a070e0d91a6"
          },
          {
            "reference": "urn:uuid:56540dc6-25b3-4f9a-954b-829982480280"
          },
          {
            "reference": "urn:uuid:547fdc1e-a381-4362-be45-f53e9cf2b00b"
          },
          {
            "reference": "urn:uuid:4c0047b6-8ea9-4b1d-8433-de5cc188c408"
          },
          {
            "reference": "urn:uuid:f338c628-aa29-41db-a714-68838106a99b"
          },
          {
            "reference": "urn:uuid:8c458709-5d2e-46f3-b41f-7e3a5aef2f05"
          },
          {
            "reference": "urn:uuid:4d253319-f092-4533-8aad-121747ebd578"
          },
          {
            "reference": "urn:uuid:38c596cc-f1db-4a39-b3b5-fa52599ced4b"
          }
        ],
        "status": "registered",
        "code": {
          "coding": [
            {
              "code": "11502-2",
              "system": "http://loinc.org",
              "display": "Laboratory report"
            }
          ]
        },
        "subject": {
          "reference": "urn:uuid:4c6c8e95-bfeb-48d8-94c1-332615d73896",
          "display": "Meaghan Neary"
        }
      }
    },
    {
      "fullUrl": "urn:uuid:4c6c8e95-bfeb-48d8-94c1-332615d73896",
      "resource": {
        "resourceType": "Patient",
        "id": "4c6c8e95-bfeb-48d8-94c1-332615d73896",
        "meta": {
          "security": [
            {
              "system": "http://terminology.hl7.org/CodeSystem/v3-ActReason",
              "code": "HTEST"
            },
            {
              "system": "http://terminology.hl7.org/CodeSystem/v3-ActReason",
              "code": "TRAIN"
            }
          ],
          "tag": [
            {
              "system": "https://synderai.net/fhir/CodeSystem/tags",
              "code": "synthetic",
              "display": "SYNDERAI Synthetic data"
            }
          ],
          "profile": [
            "http://hl7.eu/fhir/base/StructureDefinition/patient-eu-core"
          ]
        },
        "identifier": [
          {
            "type": {
              "coding": [
                {
                  "code": "PT",
                  "system": "http://terminology.hl7.org/CodeSystem/v2-0203"
                }
              ]
            },
            "system": "http://ec.europa.eu/identifier/eci",
            "value": "1586-567257-8"
          },
          {
            "type": {
              "coding": [
                {
                  "code": "MR",
                  "system": "http://terminology.hl7.org/CodeSystem/v2-0203"
                }
              ]
            },
            "system": "http://local.setting.eu/identifier",
            "value": "443e6379-f231-b364-3ccb-644740a1aa2a"
          }
        ],
        "name": [
          {
            "family": "Neary"
          },
          {
            "given": [
              "Meaghan"
            ]
          },
          {
            "text": "Meaghan Neary"
          }
        ],
        "address": [
          {
            "line": [
              "64 Linskey Street"
            ],
            "use": "home",
            "type": "physical",
            "postalCode": "D02",
            "city": "Dublin",
            "country": "Ireland"
          }
        ],
        "telecom": [
          {
            "system": "phone",
            "value": "001-967-573-0911x465"
          }
        ],
        "extension": [
          {
            "url": "http://hl7.org/fhir/StructureDefinition/patient-nationality",
            "valueCodeableConcept": {
              "coding": [
                {
                  "code": "IE",
                  "system": "http://hl7.org/fhir/ValueSet/country"
                }
              ]
            }
          }
        ],
        "text": {
          "status": "generated",
          "div": "<div xmlns=\"http://www.w3.org/1999/xhtml\"><table class=\"hl7__ips\"><tr><td>Meaghan Neary</td><td>female</td><td>19-Dec-1960</td></tr></table></div>"
        },
        "gender": "female",
        "birthDate": "1960-12-19"
      }
    },
    {
      "fullUrl": "urn:uuid:ac6098e4-89b0-4b47-8f97-41e7761b682b",
      "resource": {
        "resourceType": "ServiceRequest",
        "id": "ac6098e4-89b0-4b47-8f97-41e7761b682b",
        "meta": {
          "profile": [
            "http://hl7.eu/fhir/laboratory/StructureDefinition/ServiceRequest-eu-lab"
          ]
        },
        "identifier": [
          {
            "system": "http://example.org",
            "value": "77038df6-5e67-42f3-883a-7f80ac99dba1"
          }
        ],
        "specimen": [
          {
            "reference": "urn:uuid:16f88337-6cc2-44f7-88c8-8dbb14e33a07"
          },
          {
            "reference": "urn:uuid:0300aea3-0e17-4426-81f5-73eeab58dd85"
          },
          {
            "reference": "urn:uuid:ee2a250b-094a-48eb-8492-ae37cc29ca85"
          }
        ],
        "reasonCode": [
          {
            "coding": [
              {
                "code": "55822004",
                "system": "http://snomed.info/sct",
                "display": "Hyperlipidemia"
              }
            ]
          },
          {
            "coding": [
              {
                "code": "433144002",
                "system": "http://snomed.info/sct",
                "display": "Chronic kidney disease stage 3"
              }
            ]
          },
          {
            "coding": [
              {
                "code": "157141000119108",
                "system": "http://snomed.info/sct",
                "display": "Proteinuria due to type 2 diabetes mellitus"
              }
            ]
          },
          {
            "coding": [
              {
                "code": "431856006",
                "system": "http://snomed.info/sct",
                "display": "Chronic kidney disease stage 2"
              }
            ]
          },
          {
            "coding": [
              {
                "code": "90781000119102",
                "system": "http://snomed.info/sct",
                "display": "Microalbuminuria due to type 2 diabetes mellitus"
              }
            ]
          },
          {
            "coding": [
              {
                "code": "127013003",
                "system": "http://snomed.info/sct",
                "display": "Disorder of kidney due to diabetes mellitus"
              }
            ]
          },
          {
            "coding": [
              {
                "code": "431855005",
                "system": "http://snomed.info/sct",
                "display": "Chronic kidney disease stage 1"
              }
            ]
          },
          {
            "coding": [
              {
                "code": "237602007",
                "system": "http://snomed.info/sct",
                "display": "Metabolic syndrome X"
              }
            ]
          },
          {
            "coding": [
              {
                "code": "271737000",
                "system": "http://snomed.info/sct",
                "display": "Anemia"
              }
            ]
          },
          {
            "coding": [
              {
                "code": "15777000",
                "system": "http://snomed.info/sct",
                "display": "Prediabetes"
              }
            ]
          },
          {
            "coding": [
              {
                "code": "59621000",
                "system": "http://snomed.info/sct",
                "display": "Essential hypertension"
              }
            ]
          }
        ],
        "status": "active",
        "intent": "order",
        "code": {
          "coding": [
            {
              "code": "108252007",
              "system": "http://snomed.info/sct",
              "display": "Laboratory procedure"
            }
          ]
        },
        "subject": {
          "reference": "urn:uuid:4c6c8e95-bfeb-48d8-94c1-332615d73896",
          "display": "Meaghan Neary"
        },
        "requester": {
          "reference": "urn:uuid:b0b4a027-e739-49b3-afa5-4c0e34c0d7dc"
        }
      }
    },
    {
      "fullUrl": "urn:uuid:b0b4a027-e739-49b3-afa5-4c0e34c0d7dc",
      "resource": {
        "resourceType": "PractitionerRole",
        "id": "b0b4a027-e739-49b3-afa5-4c0e34c0d7dc",
        "meta": {
          "profile": [
            "http://hl7.eu/fhir/base/StructureDefinition/practitionerRole-eu"
          ]
        },
        "text": {
          "status": "generated",
          "div": "<div xmlns=\"http://www.w3.org/1999/xhtml\">Provider Role Id: b0b4a027-e739-49b3-afa5-4c0e34c0d7dc</div>"
        },
        "organization": {
          "reference": "urn:uuid:ec7f3e87-089e-4406-bb85-f8b824fba72a"
        }
      }
    },
    {
      "fullUrl": "urn:uuid:ec7f3e87-089e-4406-bb85-f8b824fba72a",
      "resource": {
        "resourceType": "Organization",
        "id": "ec7f3e87-089e-4406-bb85-f8b824fba72a",
        "meta": {
          "profile": [
            "http://hl7.eu/fhir/base/StructureDefinition/organization-eu"
          ]
        },
        "identifier": [
          {
            "assigner": {
              "display": "HL7 Europe"
            },
            "system": "urn:oid:2.16.840.1.113883.2.51.999",
            "value": "12382e05-b234-4c23-a7eb-eae9ea37809c"
          }
        ],
        "address": [
          {
            "line": [
              "Parnell Square West nan"
            ],
            "city": "Dublin",
            "postalCode": "D01",
            "country": "Ireland"
          }
        ],
        "text": {
          "status": "generated",
          "div": "<div xmlns=\"http://www.w3.org/1999/xhtml\">Provider Organization: Rotunda Hospital</div>"
        },
        "name": "Rotunda Hospital"
      }
    },
    {
      "fullUrl": "urn:uuid:16f88337-6cc2-44f7-88c8-8dbb14e33a07",
      "resource": {
        "resourceType": "Specimen",
        "id": "16f88337-6cc2-44f7-88c8-8dbb14e33a07",
        "meta": {
          "profile": [
            "http://hl7.eu/fhir/laboratory/StructureDefinition/Specimen-eu-lab"
          ]
        },
        "collection": {
          "collectedDateTime": "2024-12-16"
        },
        "text": {
          "status": "generated",
          "div": "<div xmlns=\"http://www.w3.org/1999/xhtml\"><table class=\"hl7__eu__lab__report\"><tr><th>Specimen</th><th>Collection Date</th></tr><tr><td>Acellular blood (serum or plasma) specimen</td><td><span class=\"nb\">16-Dec-2024</span></td></tr></table></div>"
        },
        "type": {
          "coding": [
            {
              "code": "122592007",
              "system": "http://snomed.info/sct",
              "display": "Acellular blood (serum or plasma) specimen"
            }
          ]
        }
      }
    },
    {
      "fullUrl": "urn:uuid:0300aea3-0e17-4426-81f5-73eeab58dd85",
      "resource": {
        "resourceType": "Specimen",
        "id": "0300aea3-0e17-4426-81f5-73eeab58dd85",
        "meta": {
          "profile": [
            "http://hl7.eu/fhir/laboratory/StructureDefinition/Specimen-eu-lab"
          ]
        },
        "collection": {
          "collectedDateTime": "2024-12-16"
        },
        "text": {
          "status": "generated",
          "div": "<div xmlns=\"http://www.w3.org/1999/xhtml\"><table class=\"hl7__eu__lab__report\"><tr><th>Specimen</th><th>Collection Date</th></tr><tr><td>Urine specimen</td><td><span class=\"nb\">16-Dec-2024</span></td></tr></table></div>"
        },
        "type": {
          "coding": [
            {
              "code": "122575003",
              "system": "http://snomed.info/sct",
              "display": "Urine specimen"
            }
          ]
        }
      }
    },
    {
      "fullUrl": "urn:uuid:ee2a250b-094a-48eb-8492-ae37cc29ca85",
      "resource": {
        "resourceType": "Specimen",
        "id": "ee2a250b-094a-48eb-8492-ae37cc29ca85",
        "meta": {
          "profile": [
            "http://hl7.eu/fhir/laboratory/StructureDefinition/Specimen-eu-lab"
          ]
        },
        "collection": {
          "collectedDateTime": "2024-12-16"
        },
        "text": {
          "status": "generated",
          "div": "<div xmlns=\"http://www.w3.org/1999/xhtml\"><table class=\"hl7__eu__lab__report\"><tr><th>Specimen</th><th>Collection Date</th></tr><tr><td>Whole blood specimen (specimen)</td><td><span class=\"nb\">16-Dec-2024</span></td></tr></table></div>"
        },
        "type": {
          "coding": [
            {
              "code": "258580003",
              "system": "http://snomed.info/sct",
              "display": "Whole blood specimen (specimen)"
            }
          ]
        }
      }
    },
    {
      "fullUrl": "urn:uuid:56a8f3a4-21b8-4a6a-aa30-8cb95bf3155c",
      "resource": {
        "resourceType": "Observation",
        "id": "56a8f3a4-21b8-4a6a-aa30-8cb95bf3155c",
        "meta": {
          "profile": [
            "http://hl7.eu/fhir/laboratory/StructureDefinition/Observation-resultslab-eu-lab"
          ]
        },
        "performer": [
          {
            "display": "The Central European Lab"
          }
        ],
        "category": [
          {
            "coding": [
              {
                "system": "http://terminology.hl7.org/CodeSystem/observation-category",
                "code": "laboratory"
              }
            ]
          }
        ],
        "code": {
          "coding": [
            {
              "code": "2345-7",
              "system": "http://loinc.org",
              "display": "Glucose [Mass/volume] in Serum or Plasma"
            }
          ],
          "text": "Glucose [Mass/volume] in Serum or Plasma"
        },
        "valueQuantity": {
          "system": "http://unitsofmeasure.org",
          "value": 93.1,
          "unit": "mg/dL",
          "code": "mg/dL"
        },
        "referenceRange": [
          {
            "low": {
              "value": 70,
              "code": "mg/dL",
              "system": "http://unitsofmeasure.org"
            }
          },
          {
            "high": {
              "value": 99,
              "code": "mg/dL",
              "system": "http://unitsofmeasure.org"
            }
          }
        ],
        "text": {
          "status": "generated",
          "div": "<div xmlns=\"http://www.w3.org/1999/xhtml\"><table class=\"hl7__eu__lab__report\"><tr><th>Test</th><th>16-Dec-2024</th><th>Reference&#xA0;Range</th><th>Unit</th></tr><tr><td>Glucose [Mass/volume] in Serum or Plasma</td><td>93.1</td><td>70 - 99</td><td></td><td>mg/dL</td></tr></table></div>"
        },
        "status": "final",
        "subject": {
          "reference": "urn:uuid:4c6c8e95-bfeb-48d8-94c1-332615d73896",
          "display": "Meaghan Neary"
        },
        "effectiveDateTime": "2024-12-16T22:11:04Z",
        "specimen": {
          "reference": "urn:uuid:16f88337-6cc2-44f7-88c8-8dbb14e33a07"
        }
      }
    },
    {
      "fullUrl": "urn:uuid:c0ea940e-6ef6-4b35-b312-c4461cc56e50",
      "resource": {
        "resourceType": "Observation",
        "id": "c0ea940e-6ef6-4b35-b312-c4461cc56e50",
        "meta": {
          "profile": [
            "http://hl7.eu/fhir/laboratory/StructureDefinition/Observation-resultslab-eu-lab"
          ]
        },
        "performer": [
          {
            "display": "The Central European Lab"
          }
        ],
        "category": [
          {
            "coding": [
              {
                "system": "http://terminology.hl7.org/CodeSystem/observation-category",
                "code": "laboratory"
              }
            ]
          }
        ],
        "code": {
          "coding": [
            {
              "code": "3094-0",
              "system": "http://loinc.org",
              "display": "Urea nitrogen [Mass/volume] in Serum or Plasma"
            }
          ],
          "text": "Urea nitrogen [Mass/volume] in Serum or Plasma"
        },
        "valueQuantity": {
          "system": "http://unitsofmeasure.org",
          "value": 9,
          "unit": "mg/dL",
          "code": "mg/dL"
        },
        "referenceRange": [
          {
            "low": {
              "value": 7,
              "code": "mg/dL",
              "system": "http://unitsofmeasure.org"
            }
          },
          {
            "high": {
              "value": 50,
              "code": "mg/dL",
              "system": "http://unitsofmeasure.org"
            }
          }
        ],
        "text": {
          "status": "generated",
          "div": "<div xmlns=\"http://www.w3.org/1999/xhtml\"><table class=\"hl7__eu__lab__report\"><tr><th>Test</th><th>16-Dec-2024</th><th>Reference&#xA0;Range</th><th>Unit</th></tr><tr><td>Urea nitrogen [Mass/volume] in Serum or Plasma</td><td>9.0</td><td>7 - 50</td><td></td><td>mg/dL</td></tr></table></div>"
        },
        "status": "final",
        "subject": {
          "reference": "urn:uuid:4c6c8e95-bfeb-48d8-94c1-332615d73896",
          "display": "Meaghan Neary"
        },
        "effectiveDateTime": "2024-12-16T22:11:04Z",
        "specimen": {
          "reference": "urn:uuid:16f88337-6cc2-44f7-88c8-8dbb14e33a07"
        }
      }
    },
    {
      "fullUrl": "urn:uuid:dc93cbba-7f2e-411e-8873-f678de2460bc",
      "resource": {
        "resourceType": "Observation",
        "id": "dc93cbba-7f2e-411e-8873-f678de2460bc",
        "meta": {
          "profile": [
            "http://hl7.eu/fhir/laboratory/StructureDefinition/Observation-resultslab-eu-lab"
          ]
        },
        "performer": [
          {
            "display": "The Central European Lab"
          }
        ],
        "category": [
          {
            "coding": [
              {
                "system": "http://terminology.hl7.org/CodeSystem/observation-category",
                "code": "laboratory"
              }
            ]
          }
        ],
        "code": {
          "coding": [
            {
              "code": "2160-0",
              "system": "http://loinc.org",
              "display": "Creatinine [Mass/volume] in Serum or Plasma"
            }
          ],
          "text": "Creatinine [Mass/volume] in Serum or Plasma"
        },
        "valueQuantity": {
          "system": "http://unitsofmeasure.org",
          "value": 1.9,
          "unit": "mg/dL",
          "code": "mg/dL"
        },
        "referenceRange": [
          {
            "low": {
              "value": 0.6,
              "code": "mg/dL",
              "system": "http://unitsofmeasure.org"
            }
          },
          {
            "high": {
              "value": 1.1,
              "code": "mg/dL",
              "system": "http://unitsofmeasure.org"
            }
          }
        ],
        "interpretation": [
          {
            "coding": [
              {
                "code": "H",
                "system": "http://terminology.hl7.org/CodeSystem/v3-ObservationInterpretation",
                "display": "High"
              }
            ]
          }
        ],
        "text": {
          "status": "generated",
          "div": "<div xmlns=\"http://www.w3.org/1999/xhtml\"><table class=\"hl7__eu__lab__report\"><tr><th>Test</th><th>16-Dec-2024</th><th>Reference&#xA0;Range</th><th>Unit</th></tr><tr><td>Creatinine [Mass/volume] in Serum or Plasma</td><td>1.9</td><td>0.6 - 1.1</td><td>H</td><td>mg/dL</td></tr></table></div>"
        },
        "status": "final",
        "subject": {
          "reference": "urn:uuid:4c6c8e95-bfeb-48d8-94c1-332615d73896",
          "display": "Meaghan Neary"
        },
        "effectiveDateTime": "2024-12-16T22:11:04Z",
        "specimen": {
          "reference": "urn:uuid:16f88337-6cc2-44f7-88c8-8dbb14e33a07"
        }
      }
    },
    {
      "fullUrl": "urn:uuid:b097dc46-d63a-4df3-91ac-0bf1e294ec50",
      "resource": {
        "resourceType": "Observation",
        "id": "b097dc46-d63a-4df3-91ac-0bf1e294ec50",
        "meta": {
          "profile": [
            "http://hl7.eu/fhir/laboratory/StructureDefinition/Observation-resultslab-eu-lab"
          ]
        },
        "performer": [
          {
            "display": "The Central European Lab"
          }
        ],
        "category": [
          {
            "coding": [
              {
                "system": "http://terminology.hl7.org/CodeSystem/observation-category",
                "code": "laboratory"
              }
            ]
          }
        ],
        "code": {
          "coding": [
            {
              "code": "17861-6",
              "system": "http://loinc.org",
              "display": "Calcium [Mass/volume] in Serum or Plasma"
            }
          ],
          "text": "Calcium [Mass/volume] in Serum or Plasma"
        },
        "valueQuantity": {
          "system": "http://unitsofmeasure.org",
          "value": 9.6,
          "unit": "mg/dL",
          "code": "mg/dL"
        },
        "referenceRange": [
          {
            "low": {
              "value": 8.6,
              "code": "mg/dL",
              "system": "http://unitsofmeasure.org"
            }
          },
          {
            "high": {
              "value": 10.4,
              "code": "mg/dL",
              "system": "http://unitsofmeasure.org"
            }
          }
        ],
        "text": {
          "status": "generated",
          "div": "<div xmlns=\"http://www.w3.org/1999/xhtml\"><table class=\"hl7__eu__lab__report\"><tr><th>Test</th><th>16-Dec-2024</th><th>Reference&#xA0;Range</th><th>Unit</th></tr><tr><td>Calcium [Mass/volume] in Serum or Plasma</td><td>9.6</td><td>8.6 - 10.4</td><td></td><td>mg/dL</td></tr></table></div>"
        },
        "status": "final",
        "subject": {
          "reference": "urn:uuid:4c6c8e95-bfeb-48d8-94c1-332615d73896",
          "display": "Meaghan Neary"
        },
        "effectiveDateTime": "2024-12-16T22:11:04Z",
        "specimen": {
          "reference": "urn:uuid:16f88337-6cc2-44f7-88c8-8dbb14e33a07"
        }
      }
    },
    {
      "fullUrl": "urn:uuid:e4f235bc-2477-425f-8689-e063f1357dc7",
      "resource": {
        "resourceType": "Observation",
        "id": "e4f235bc-2477-425f-8689-e063f1357dc7",
        "meta": {
          "profile": [
            "http://hl7.eu/fhir/laboratory/StructureDefinition/Observation-resultslab-eu-lab"
          ]
        },
        "performer": [
          {
            "display": "The Central European Lab"
          }
        ],
        "category": [
          {
            "coding": [
              {
                "system": "http://terminology.hl7.org/CodeSystem/observation-category",
                "code": "laboratory"
              }
            ]
          }
        ],
        "code": {
          "coding": [
            {
              "code": "2951-2",
              "system": "http://loinc.org",
              "display": "Sodium [Moles/volume] in Serum or Plasma"
            }
          ],
          "text": "Sodium [Moles/volume] in Serum or Plasma"
        },
        "valueQuantity": {
          "system": "http://unitsofmeasure.org",
          "value": 137.8,
          "unit": "mmol/L",
          "code": "mmol/L"
        },
        "referenceRange": [
          {
            "low": {
              "value": 135,
              "code": "mmol/L",
              "system": "http://unitsofmeasure.org"
            }
          },
          {
            "high": {
              "value": 145,
              "code": "mmol/L",
              "system": "http://unitsofmeasure.org"
            }
          }
        ],
        "text": {
          "status": "generated",
          "div": "<div xmlns=\"http://www.w3.org/1999/xhtml\"><table class=\"hl7__eu__lab__report\"><tr><th>Test</th><th>16-Dec-2024</th><th>Reference&#xA0;Range</th><th>Unit</th></tr><tr><td>Sodium [Moles/volume] in Serum or Plasma</td><td>137.8</td><td>135 - 145</td><td></td><td>mmol/L</td></tr></table></div>"
        },
        "status": "final",
        "subject": {
          "reference": "urn:uuid:4c6c8e95-bfeb-48d8-94c1-332615d73896",
          "display": "Meaghan Neary"
        },
        "effectiveDateTime": "2024-12-16T22:11:04Z",
        "specimen": {
          "reference": "urn:uuid:16f88337-6cc2-44f7-88c8-8dbb14e33a07"
        }
      }
    },
    {
      "fullUrl": "urn:uuid:ddd400ab-7d09-4bc7-bc90-790a0c955521",
      "resource": {
        "resourceType": "Observation",
        "id": "ddd400ab-7d09-4bc7-bc90-790a0c955521",
        "meta": {
          "profile": [
            "http://hl7.eu/fhir/laboratory/StructureDefinition/Observation-resultslab-eu-lab"
          ]
        },
        "performer": [
          {
            "display": "The Central European Lab"
          }
        ],
        "category": [
          {
            "coding": [
              {
                "system": "http://terminology.hl7.org/CodeSystem/observation-category",
                "code": "laboratory"
              }
            ]
          }
        ],
        "code": {
          "coding": [
            {
              "code": "2823-3",
              "system": "http://loinc.org",
              "display": "Potassium [Moles/volume] in Serum or Plasma"
            }
          ],
          "text": "Potassium [Moles/volume] in Serum or Plasma"
        },
        "valueQuantity": {
          "system": "http://unitsofmeasure.org",
          "value": 4,
          "unit": "mmol/L",
          "code": "mmol/L"
        },
        "referenceRange": [
          {
            "low": {
              "value": 3.5,
              "code": "mmol/L",
              "system": "http://unitsofmeasure.org"
            }
          },
          {
            "high": {
              "value": 5.1,
              "code": "mmol/L",
              "system": "http://unitsofmeasure.org"
            }
          }
        ],
        "text": {
          "status": "generated",
          "div": "<div xmlns=\"http://www.w3.org/1999/xhtml\"><table class=\"hl7__eu__lab__report\"><tr><th>Test</th><th>16-Dec-2024</th><th>Reference&#xA0;Range</th><th>Unit</th></tr><tr><td>Potassium [Moles/volume] in Serum or Plasma</td><td>4.0</td><td>3.5 - 5.1</td><td></td><td>mmol/L</td></tr></table></div>"
        },
        "status": "final",
        "subject": {
          "reference": "urn:uuid:4c6c8e95-bfeb-48d8-94c1-332615d73896",
          "display": "Meaghan Neary"
        },
        "effectiveDateTime": "2024-12-16T22:11:04Z",
        "specimen": {
          "reference": "urn:uuid:16f88337-6cc2-44f7-88c8-8dbb14e33a07"
        }
      }
    },
    {
      "fullUrl": "urn:uuid:0feab003-0e61-4f30-b1e4-c4709b8c7b41",
      "resource": {
        "resourceType": "Observation",
        "id": "0feab003-0e61-4f30-b1e4-c4709b8c7b41",
        "meta": {
          "profile": [
            "http://hl7.eu/fhir/laboratory/StructureDefinition/Observation-resultslab-eu-lab"
          ]
        },
        "performer": [
          {
            "display": "The Central European Lab"
          }
        ],
        "category": [
          {
            "coding": [
              {
                "system": "http://terminology.hl7.org/CodeSystem/observation-category",
                "code": "laboratory"
              }
            ]
          }
        ],
        "code": {
          "coding": [
            {
              "code": "2075-0",
              "system": "http://loinc.org",
              "display": "Chloride [Moles/volume] in Serum or Plasma"
            }
          ],
          "text": "Chloride [Moles/volume] in Serum or Plasma"
        },
        "valueQuantity": {
          "system": "http://unitsofmeasure.org",
          "value": 102.7,
          "unit": "mmol/L",
          "code": "mmol/L"
        },
        "referenceRange": [
          {
            "low": {
              "value": 98,
              "code": "mmol/L",
              "system": "http://unitsofmeasure.org"
            }
          },
          {
            "high": {
              "value": 108,
              "code": "mmol/L",
              "system": "http://unitsofmeasure.org"
            }
          }
        ],
        "text": {
          "status": "generated",
          "div": "<div xmlns=\"http://www.w3.org/1999/xhtml\"><table class=\"hl7__eu__lab__report\"><tr><th>Test</th><th>16-Dec-2024</th><th>Reference&#xA0;Range</th><th>Unit</th></tr><tr><td>Chloride [Moles/volume] in Serum or Plasma</td><td>102.7</td><td>98 - 108</td><td></td><td>mmol/L</td></tr></table></div>"
        },
        "status": "final",
        "subject": {
          "reference": "urn:uuid:4c6c8e95-bfeb-48d8-94c1-332615d73896",
          "display": "Meaghan Neary"
        },
        "effectiveDateTime": "2024-12-16T22:11:04Z",
        "specimen": {
          "reference": "urn:uuid:16f88337-6cc2-44f7-88c8-8dbb14e33a07"
        }
      }
    },
    {
      "fullUrl": "urn:uuid:9b30ab81-5587-4aa7-ac60-5d1f40c93ea7",
      "resource": {
        "resourceType": "Observation",
        "id": "9b30ab81-5587-4aa7-ac60-5d1f40c93ea7",
        "meta": {
          "profile": [
            "http://hl7.eu/fhir/laboratory/StructureDefinition/Observation-resultslab-eu-lab"
          ]
        },
        "performer": [
          {
            "display": "The Central European Lab"
          }
        ],
        "category": [
          {
            "coding": [
              {
                "system": "http://terminology.hl7.org/CodeSystem/observation-category",
                "code": "laboratory"
              }
            ]
          }
        ],
        "code": {
          "coding": [
            {
              "code": "2028-9",
              "system": "http://loinc.org",
              "display": "Carbon dioxide, total [Moles/volume] in Serum or Plasma"
            }
          ],
          "text": "Carbon dioxide, total [Moles/volume] in Serum or Plasma"
        },
        "valueQuantity": {
          "system": "http://unitsofmeasure.org",
          "value": 20.9,
          "unit": "mmol/L",
          "code": "mmol/L"
        },
        "referenceRange": [
          {
            "low": {
              "value": 22,
              "code": "mmol/L",
              "system": "http://unitsofmeasure.org"
            }
          },
          {
            "high": {
              "value": 32,
              "code": "mmol/L",
              "system": "http://unitsofmeasure.org"
            }
          }
        ],
        "interpretation": [
          {
            "coding": [
              {
                "code": "L",
                "system": "http://terminology.hl7.org/CodeSystem/v3-ObservationInterpretation",
                "display": "Low"
              }
            ]
          }
        ],
        "text": {
          "status": "generated",
          "div": "<div xmlns=\"http://www.w3.org/1999/xhtml\"><table class=\"hl7__eu__lab__report\"><tr><th>Test</th><th>16-Dec-2024</th><th>Reference&#xA0;Range</th><th>Unit</th></tr><tr><td>Carbon dioxide, total [Moles/volume] in Serum or Plasma</td><td>20.9</td><td>22 - 32</td><td>L</td><td>mmol/L</td></tr></table></div>"
        },
        "status": "final",
        "subject": {
          "reference": "urn:uuid:4c6c8e95-bfeb-48d8-94c1-332615d73896",
          "display": "Meaghan Neary"
        },
        "effectiveDateTime": "2024-12-16T22:11:04Z",
        "specimen": {
          "reference": "urn:uuid:16f88337-6cc2-44f7-88c8-8dbb14e33a07"
        }
      }
    },
    {
      "fullUrl": "urn:uuid:ef4016fc-b42f-4169-9b22-8f2670979ec8",
      "resource": {
        "resourceType": "Observation",
        "id": "ef4016fc-b42f-4169-9b22-8f2670979ec8",
        "meta": {
          "profile": [
            "http://hl7.eu/fhir/laboratory/StructureDefinition/Observation-resultslab-eu-lab"
          ]
        },
        "performer": [
          {
            "display": "The Central European Lab"
          }
        ],
        "category": [
          {
            "coding": [
              {
                "system": "http://terminology.hl7.org/CodeSystem/observation-category",
                "code": "laboratory"
              }
            ]
          }
        ],
        "code": {
          "coding": [
            {
              "code": "5767-9",
              "system": "http://loinc.org",
              "display": "Appearance of Urine"
            }
          ],
          "text": "Appearance of Urine"
        },
        "text": {
          "status": "generated",
          "div": "<div xmlns=\"http://www.w3.org/1999/xhtml\"><table class=\"hl7__eu__lab__report\"><tr><th>Test</th><th>16-Dec-2024</th><th>Reference&#xA0;Range</th><th>Unit</th></tr><tr><td>Appearance of Urine</td></tr></table></div>"
        },
        "status": "final",
        "subject": {
          "reference": "urn:uuid:4c6c8e95-bfeb-48d8-94c1-332615d73896",
          "display": "Meaghan Neary"
        },
        "effectiveDateTime": "2024-12-16T22:11:04Z",
        "specimen": {
          "reference": "urn:uuid:0300aea3-0e17-4426-81f5-73eeab58dd85"
        }
      }
    },
    {
      "fullUrl": "urn:uuid:40d1da55-07d5-42a6-b861-a85ecd0f2c91",
      "resource": {
        "resourceType": "Observation",
        "id": "40d1da55-07d5-42a6-b861-a85ecd0f2c91",
        "meta": {
          "profile": [
            "http://hl7.eu/fhir/laboratory/StructureDefinition/Observation-resultslab-eu-lab"
          ]
        },
        "performer": [
          {
            "display": "The Central European Lab"
          }
        ],
        "category": [
          {
            "coding": [
              {
                "system": "http://terminology.hl7.org/CodeSystem/observation-category",
                "code": "laboratory"
              }
            ]
          }
        ],
        "code": {
          "coding": [
            {
              "code": "34533-0",
              "system": "http://loinc.org",
              "display": "Odor of Urine"
            }
          ],
          "text": "Odor of Urine"
        },
        "text": {
          "status": "generated",
          "div": "<div xmlns=\"http://www.w3.org/1999/xhtml\"><table class=\"hl7__eu__lab__report\"><tr><th>Test</th><th>16-Dec-2024</th><th>Reference&#xA0;Range</th><th>Unit</th></tr><tr><td>Odor of Urine</td></tr></table></div>"
        },
        "status": "final",
        "subject": {
          "reference": "urn:uuid:4c6c8e95-bfeb-48d8-94c1-332615d73896",
          "display": "Meaghan Neary"
        },
        "effectiveDateTime": "2024-12-16T22:11:04Z",
        "specimen": {
          "reference": "urn:uuid:0300aea3-0e17-4426-81f5-73eeab58dd85"
        }
      }
    },
    {
      "fullUrl": "urn:uuid:024c0338-9d7c-4a8e-839e-36e365f3335f",
      "resource": {
        "resourceType": "Observation",
        "id": "024c0338-9d7c-4a8e-839e-36e365f3335f",
        "meta": {
          "profile": [
            "http://hl7.eu/fhir/laboratory/StructureDefinition/Observation-resultslab-eu-lab"
          ]
        },
        "performer": [
          {
            "display": "The Central European Lab"
          }
        ],
        "category": [
          {
            "coding": [
              {
                "system": "http://terminology.hl7.org/CodeSystem/observation-category",
                "code": "laboratory"
              }
            ]
          }
        ],
        "code": {
          "coding": [
            {
              "code": "32167-9",
              "system": "http://loinc.org",
              "display": "Clarity of Urine"
            }
          ],
          "text": "Clarity of Urine"
        },
        "text": {
          "status": "generated",
          "div": "<div xmlns=\"http://www.w3.org/1999/xhtml\"><table class=\"hl7__eu__lab__report\"><tr><th>Test</th><th>16-Dec-2024</th><th>Reference&#xA0;Range</th><th>Unit</th></tr><tr><td>Clarity of Urine</td></tr></table></div>"
        },
        "status": "final",
        "subject": {
          "reference": "urn:uuid:4c6c8e95-bfeb-48d8-94c1-332615d73896",
          "display": "Meaghan Neary"
        },
        "effectiveDateTime": "2024-12-16T22:11:04Z",
        "specimen": {
          "reference": "urn:uuid:0300aea3-0e17-4426-81f5-73eeab58dd85"
        }
      }
    },
    {
      "fullUrl": "urn:uuid:c53f2495-62a1-44fe-b41f-54f4afd3fd4d",
      "resource": {
        "resourceType": "Observation",
        "id": "c53f2495-62a1-44fe-b41f-54f4afd3fd4d",
        "meta": {
          "profile": [
            "http://hl7.eu/fhir/laboratory/StructureDefinition/Observation-resultslab-eu-lab"
          ]
        },
        "performer": [
          {
            "display": "The Central European Lab"
          }
        ],
        "category": [
          {
            "coding": [
              {
                "system": "http://terminology.hl7.org/CodeSystem/observation-category",
                "code": "laboratory"
              }
            ]
          }
        ],
        "code": {
          "coding": [
            {
              "code": "5778-6",
              "system": "http://loinc.org",
              "display": "Color of Urine"
            }
          ],
          "text": "Color of Urine"
        },
        "text": {
          "status": "generated",
          "div": "<div xmlns=\"http://www.w3.org/1999/xhtml\"><table class=\"hl7__eu__lab__report\"><tr><th>Test</th><th>16-Dec-2024</th><th>Reference&#xA0;Range</th><th>Unit</th></tr><tr><td>Color of Urine</td></tr></table></div>"
        },
        "status": "final",
        "subject": {
          "reference": "urn:uuid:4c6c8e95-bfeb-48d8-94c1-332615d73896",
          "display": "Meaghan Neary"
        },
        "effectiveDateTime": "2024-12-16T22:11:04Z",
        "specimen": {
          "reference": "urn:uuid:0300aea3-0e17-4426-81f5-73eeab58dd85"
        }
      }
    },
    {
      "fullUrl": "urn:uuid:ae668a91-6aa6-4b1e-b1fe-6a06304e58a7",
      "resource": {
        "resourceType": "Observation",
        "id": "ae668a91-6aa6-4b1e-b1fe-6a06304e58a7",
        "meta": {
          "profile": [
            "http://hl7.eu/fhir/laboratory/StructureDefinition/Observation-resultslab-eu-lab"
          ]
        },
        "performer": [
          {
            "display": "The Central European Lab"
          }
        ],
        "category": [
          {
            "coding": [
              {
                "system": "http://terminology.hl7.org/CodeSystem/observation-category",
                "code": "laboratory"
              }
            ]
          }
        ],
        "code": {
          "coding": [
            {
              "code": "5792-7",
              "system": "http://loinc.org",
              "display": "Glucose [Mass/volume] in Urine by Test strip"
            }
          ],
          "text": "Glucose [Mass/volume] in Urine by Test strip"
        },
        "valueQuantity": {
          "system": "http://unitsofmeasure.org",
          "value": 0.7,
          "unit": "mg/dL",
          "code": "mg/dL"
        },
        "referenceRange": [
          {
            "low": {
              "value": 0.8,
              "code": "mg/dL",
              "system": "http://unitsofmeasure.org"
            }
          },
          {
            "high": {
              "value": 0,
              "code": "mg/dL",
              "system": "http://unitsofmeasure.org"
            }
          }
        ],
        "interpretation": [
          {
            "coding": [
              {
                "code": "L",
                "system": "http://terminology.hl7.org/CodeSystem/v3-ObservationInterpretation",
                "display": "Low"
              }
            ]
          }
        ],
        "text": {
          "status": "generated",
          "div": "<div xmlns=\"http://www.w3.org/1999/xhtml\"><table class=\"hl7__eu__lab__report\"><tr><th>Test</th><th>16-Dec-2024</th><th>Reference&#xA0;Range</th><th>Unit</th></tr><tr><td>Glucose [Mass/volume] in Urine by Test strip</td><td>0.7</td><td>0.8 - 0</td><td>L</td><td>mg/dL</td></tr></table></div>"
        },
        "status": "final",
        "subject": {
          "reference": "urn:uuid:4c6c8e95-bfeb-48d8-94c1-332615d73896",
          "display": "Meaghan Neary"
        },
        "effectiveDateTime": "2024-12-16T22:11:04Z",
        "specimen": {
          "reference": "urn:uuid:0300aea3-0e17-4426-81f5-73eeab58dd85"
        }
      }
    },
    {
      "fullUrl": "urn:uuid:69385cab-7186-4a5f-bb6a-04c491c751ed",
      "resource": {
        "resourceType": "Observation",
        "id": "69385cab-7186-4a5f-bb6a-04c491c751ed",
        "meta": {
          "profile": [
            "http://hl7.eu/fhir/laboratory/StructureDefinition/Observation-resultslab-eu-lab"
          ]
        },
        "performer": [
          {
            "display": "The Central European Lab"
          }
        ],
        "category": [
          {
            "coding": [
              {
                "system": "http://terminology.hl7.org/CodeSystem/observation-category",
                "code": "laboratory"
              }
            ]
          }
        ],
        "code": {
          "coding": [
            {
              "code": "25428-4",
              "system": "http://loinc.org",
              "display": "Glucose [Presence] in Urine by Test strip"
            }
          ],
          "text": "Glucose [Presence] in Urine by Test strip"
        },
        "text": {
          "status": "generated",
          "div": "<div xmlns=\"http://www.w3.org/1999/xhtml\"><table class=\"hl7__eu__lab__report\"><tr><th>Test</th><th>16-Dec-2024</th><th>Reference&#xA0;Range</th><th>Unit</th></tr><tr><td>Glucose [Presence] in Urine by Test strip</td></tr></table></div>"
        },
        "status": "final",
        "subject": {
          "reference": "urn:uuid:4c6c8e95-bfeb-48d8-94c1-332615d73896",
          "display": "Meaghan Neary"
        },
        "effectiveDateTime": "2024-12-16T22:11:04Z",
        "specimen": {
          "reference": "urn:uuid:0300aea3-0e17-4426-81f5-73eeab58dd85"
        }
      }
    },
    {
      "fullUrl": "urn:uuid:713cc588-acc5-481b-8872-72c8113d5211",
      "resource": {
        "resourceType": "Observation",
        "id": "713cc588-acc5-481b-8872-72c8113d5211",
        "meta": {
          "profile": [
            "http://hl7.eu/fhir/laboratory/StructureDefinition/Observation-resultslab-eu-lab"
          ]
        },
        "performer": [
          {
            "display": "The Central European Lab"
          }
        ],
        "category": [
          {
            "coding": [
              {
                "system": "http://terminology.hl7.org/CodeSystem/observation-category",
                "code": "laboratory"
              }
            ]
          }
        ],
        "code": {
          "coding": [
            {
              "code": "20505-4",
              "system": "http://loinc.org",
              "display": "Bilirubin.total [Mass/volume] in Urine by Test strip"
            }
          ],
          "text": "Bilirubin.total [Mass/volume] in Urine by Test strip"
        },
        "valueQuantity": {
          "system": "http://unitsofmeasure.org",
          "value": 1.5,
          "unit": "mg/dL",
          "code": "mg/dL"
        },
        "referenceRange": [
          {
            "low": {
              "value": 0,
              "code": "mg/dL",
              "system": "http://unitsofmeasure.org"
            }
          },
          {
            "high": {
              "value": 1,
              "code": "mg/dL",
              "system": "http://unitsofmeasure.org"
            }
          }
        ],
        "interpretation": [
          {
            "coding": [
              {
                "code": "H",
                "system": "http://terminology.hl7.org/CodeSystem/v3-ObservationInterpretation",
                "display": "High"
              }
            ]
          }
        ],
        "text": {
          "status": "generated",
          "div": "<div xmlns=\"http://www.w3.org/1999/xhtml\"><table class=\"hl7__eu__lab__report\"><tr><th>Test</th><th>16-Dec-2024</th><th>Reference&#xA0;Range</th><th>Unit</th></tr><tr><td>Bilirubin.total [Mass/volume] in Urine by Test strip</td><td>1.5</td><td>0 - 1</td><td>H</td><td>mg/dL</td></tr></table></div>"
        },
        "status": "final",
        "subject": {
          "reference": "urn:uuid:4c6c8e95-bfeb-48d8-94c1-332615d73896",
          "display": "Meaghan Neary"
        },
        "effectiveDateTime": "2024-12-16T22:11:04Z",
        "specimen": {
          "reference": "urn:uuid:0300aea3-0e17-4426-81f5-73eeab58dd85"
        }
      }
    },
    {
      "fullUrl": "urn:uuid:ebf8b2a3-9d76-4ea7-8e2d-6f0c9a4e8a6d",
      "resource": {
        "resourceType": "Observation",
        "id": "ebf8b2a3-9d76-4ea7-8e2d-6f0c9a4e8a6d",
        "meta": {
          "profile": [
            "http://hl7.eu/fhir/laboratory/StructureDefinition/Observation-resultslab-eu-lab"
          ]
        },
        "performer": [
          {
            "display": "The Central European Lab"
          }
        ],
        "category": [
          {
            "coding": [
              {
                "system": "http://terminology.hl7.org/CodeSystem/observation-category",
                "code": "laboratory"
              }
            ]
          }
        ],
        "code": {
          "coding": [
            {
              "code": "5770-3",
              "system": "http://loinc.org",
              "display": "Bilirubin.total [Presence] in Urine by Test strip"
            }
          ],
          "text": "Bilirubin.total [Presence] in Urine by Test strip"
        },
        "text": {
          "status": "generated",
          "div": "<div xmlns=\"http://www.w3.org/1999/xhtml\"><table class=\"hl7__eu__lab__report\"><tr><th>Test</th><th>16-Dec-2024</th><th>Reference&#xA0;Range</th><th>Unit</th></tr><tr><td>Bilirubin.total [Presence] in Urine by Test strip</td></tr></table></div>"
        },
        "status": "final",
        "subject": {
          "reference": "urn:uuid:4c6c8e95-bfeb-48d8-94c1-332615d73896",
          "display": "Meaghan Neary"
        },
        "effectiveDateTime": "2024-12-16T22:11:04Z",
        "specimen": {
          "reference": "urn:uuid:0300aea3-0e17-4426-81f5-73eeab58dd85"
        }
      }
    },
    {
      "fullUrl": "urn:uuid:36f6fcaa-82b1-4bf9-aee4-010fb35d45a8",
      "resource": {
        "resourceType": "Observation",
        "id": "36f6fcaa-82b1-4bf9-aee4-010fb35d45a8",
        "meta": {
          "profile": [
            "http://hl7.eu/fhir/laboratory/StructureDefinition/Observation-resultslab-eu-lab"
          ]
        },
        "performer": [
          {
            "display": "The Central European Lab"
          }
        ],
        "category": [
          {
            "coding": [
              {
                "system": "http://terminology.hl7.org/CodeSystem/observation-category",
                "code": "laboratory"
              }
            ]
          }
        ],
        "code": {
          "coding": [
            {
              "code": "5797-6",
              "system": "http://loinc.org",
              "display": "Ketones [Mass/volume] in Urine by Test strip"
            }
          ],
          "text": "Ketones [Mass/volume] in Urine by Test strip"
        },
        "valueQuantity": {
          "system": "http://unitsofmeasure.org",
          "value": 7.7,
          "unit": "mg/dL",
          "code": "mg/dL"
        },
        "referenceRange": [
          {
            "low": {
              "value": 0,
              "code": "mg/dL",
              "system": "http://unitsofmeasure.org"
            }
          },
          {
            "high": {
              "value": 4,
              "code": "mg/dL",
              "system": "http://unitsofmeasure.org"
            }
          }
        ],
        "interpretation": [
          {
            "coding": [
              {
                "code": "H",
                "system": "http://terminology.hl7.org/CodeSystem/v3-ObservationInterpretation",
                "display": "High"
              }
            ]
          }
        ],
        "text": {
          "status": "generated",
          "div": "<div xmlns=\"http://www.w3.org/1999/xhtml\"><table class=\"hl7__eu__lab__report\"><tr><th>Test</th><th>16-Dec-2024</th><th>Reference&#xA0;Range</th><th>Unit</th></tr><tr><td>Ketones [Mass/volume] in Urine by Test strip</td><td>7.7</td><td>0 - 4</td><td>H</td><td>mg/dL</td></tr></table></div>"
        },
        "status": "final",
        "subject": {
          "reference": "urn:uuid:4c6c8e95-bfeb-48d8-94c1-332615d73896",
          "display": "Meaghan Neary"
        },
        "effectiveDateTime": "2024-12-16T22:11:04Z",
        "specimen": {
          "reference": "urn:uuid:0300aea3-0e17-4426-81f5-73eeab58dd85"
        }
      }
    },
    {
      "fullUrl": "urn:uuid:bfc39fcb-a136-42c5-97e2-b723d97e443c",
      "resource": {
        "resourceType": "Observation",
        "id": "bfc39fcb-a136-42c5-97e2-b723d97e443c",
        "meta": {
          "profile": [
            "http://hl7.eu/fhir/laboratory/StructureDefinition/Observation-resultslab-eu-lab"
          ]
        },
        "performer": [
          {
            "display": "The Central European Lab"
          }
        ],
        "category": [
          {
            "coding": [
              {
                "system": "http://terminology.hl7.org/CodeSystem/observation-category",
                "code": "laboratory"
              }
            ]
          }
        ],
        "code": {
          "coding": [
            {
              "code": "2514-8",
              "system": "http://loinc.org",
              "display": "Ketones [Presence] in Urine by Test strip"
            }
          ],
          "text": "Ketones [Presence] in Urine by Test strip"
        },
        "text": {
          "status": "generated",
          "div": "<div xmlns=\"http://www.w3.org/1999/xhtml\"><table class=\"hl7__eu__lab__report\"><tr><th>Test</th><th>16-Dec-2024</th><th>Reference&#xA0;Range</th><th>Unit</th></tr><tr><td>Ketones [Presence] in Urine by Test strip</td></tr></table></div>"
        },
        "status": "final",
        "subject": {
          "reference": "urn:uuid:4c6c8e95-bfeb-48d8-94c1-332615d73896",
          "display": "Meaghan Neary"
        },
        "effectiveDateTime": "2024-12-16T22:11:04Z",
        "specimen": {
          "reference": "urn:uuid:0300aea3-0e17-4426-81f5-73eeab58dd85"
        }
      }
    },
    {
      "fullUrl": "urn:uuid:ab4c803a-de3d-402b-851a-c92e487d63c0",
      "resource": {
        "resourceType": "Observation",
        "id": "ab4c803a-de3d-402b-851a-c92e487d63c0",
        "meta": {
          "profile": [
            "http://hl7.eu/fhir/laboratory/StructureDefinition/Observation-resultslab-eu-lab"
          ]
        },
        "performer": [
          {
            "display": "The Central European Lab"
          }
        ],
        "category": [
          {
            "coding": [
              {
                "system": "http://terminology.hl7.org/CodeSystem/observation-category",
                "code": "laboratory"
              }
            ]
          }
        ],
        "code": {
          "coding": [
            {
              "code": "5811-5",
              "system": "http://loinc.org",
              "display": "Specific gravity of Urine by Test strip"
            }
          ],
          "text": "Specific gravity of Urine by Test strip"
        },
        "valueQuantity": {
          "system": "http://unitsofmeasure.org",
          "value": 1,
          "unit": "{nominal}",
          "code": "{nominal}"
        },
        "referenceRange": [
          {
            "low": {
              "value": 1.005,
              "code": "g/mL",
              "system": "http://unitsofmeasure.org"
            }
          },
          {
            "high": {
              "value": 1.03,
              "code": "g/mL",
              "system": "http://unitsofmeasure.org"
            }
          }
        ],
        "interpretation": [
          {
            "coding": [
              {
                "code": "L",
                "system": "http://terminology.hl7.org/CodeSystem/v3-ObservationInterpretation",
                "display": "Low"
              }
            ]
          }
        ],
        "text": {
          "status": "generated",
          "div": "<div xmlns=\"http://www.w3.org/1999/xhtml\"><table class=\"hl7__eu__lab__report\"><tr><th>Test</th><th>16-Dec-2024</th><th>Reference&#xA0;Range</th><th>Unit</th></tr><tr><td>Specific gravity of Urine by Test strip</td><td>1.0</td><td>1.005 - 1.03</td><td>L</td><td>{nominal}</td></tr></table></div>"
        },
        "status": "final",
        "subject": {
          "reference": "urn:uuid:4c6c8e95-bfeb-48d8-94c1-332615d73896",
          "display": "Meaghan Neary"
        },
        "effectiveDateTime": "2024-12-16T22:11:04Z",
        "specimen": {
          "reference": "urn:uuid:0300aea3-0e17-4426-81f5-73eeab58dd85"
        }
      }
    },
    {
      "fullUrl": "urn:uuid:95d03276-d158-458d-909f-5d496af29de6",
      "resource": {
        "resourceType": "Observation",
        "id": "95d03276-d158-458d-909f-5d496af29de6",
        "meta": {
          "profile": [
            "http://hl7.eu/fhir/laboratory/StructureDefinition/Observation-resultslab-eu-lab"
          ]
        },
        "performer": [
          {
            "display": "The Central European Lab"
          }
        ],
        "category": [
          {
            "coding": [
              {
                "system": "http://terminology.hl7.org/CodeSystem/observation-category",
                "code": "laboratory"
              }
            ]
          }
        ],
        "code": {
          "coding": [
            {
              "code": "5803-2",
              "system": "http://loinc.org",
              "display": "pH of Urine by Test strip"
            }
          ],
          "text": "pH of Urine by Test strip"
        },
        "valueQuantity": {
          "system": "http://unitsofmeasure.org",
          "value": 5.4,
          "unit": "pH",
          "code": "pH"
        },
        "referenceRange": [
          {
            "low": {
              "value": 4.6,
              "code": "pH",
              "system": "http://unitsofmeasure.org"
            }
          },
          {
            "high": {
              "value": 7,
              "code": "pH",
              "system": "http://unitsofmeasure.org"
            }
          }
        ],
        "text": {
          "status": "generated",
          "div": "<div xmlns=\"http://www.w3.org/1999/xhtml\"><table class=\"hl7__eu__lab__report\"><tr><th>Test</th><th>16-Dec-2024</th><th>Reference&#xA0;Range</th><th>Unit</th></tr><tr><td>pH of Urine by Test strip</td><td>5.4</td><td>4.6 - 7</td><td></td><td>pH</td></tr></table></div>"
        },
        "status": "final",
        "subject": {
          "reference": "urn:uuid:4c6c8e95-bfeb-48d8-94c1-332615d73896",
          "display": "Meaghan Neary"
        },
        "effectiveDateTime": "2024-12-16T22:11:04Z",
        "specimen": {
          "reference": "urn:uuid:0300aea3-0e17-4426-81f5-73eeab58dd85"
        }
      }
    },
    {
      "fullUrl": "urn:uuid:f0d8f14f-a46b-4e0b-bd85-9318b91548ca",
      "resource": {
        "resourceType": "Observation",
        "id": "f0d8f14f-a46b-4e0b-bd85-9318b91548ca",
        "meta": {
          "profile": [
            "http://hl7.eu/fhir/laboratory/StructureDefinition/Observation-resultslab-eu-lab"
          ]
        },
        "performer": [
          {
            "display": "The Central European Lab"
          }
        ],
        "category": [
          {
            "coding": [
              {
                "system": "http://terminology.hl7.org/CodeSystem/observation-category",
                "code": "laboratory"
              }
            ]
          }
        ],
        "code": {
          "coding": [
            {
              "code": "5804-0",
              "system": "http://loinc.org",
              "display": "Protein [Mass/volume] in Urine by Test strip"
            }
          ],
          "text": "Protein [Mass/volume] in Urine by Test strip"
        },
        "valueQuantity": {
          "system": "http://unitsofmeasure.org",
          "value": 337.6,
          "unit": "mg/dL",
          "code": "mg/dL"
        },
        "referenceRange": [
          {
            "low": {
              "value": 0,
              "code": "mg/dL",
              "system": "http://unitsofmeasure.org"
            }
          },
          {
            "high": {
              "value": 14,
              "code": "mg/dL",
              "system": "http://unitsofmeasure.org"
            }
          }
        ],
        "interpretation": [
          {
            "coding": [
              {
                "code": "H",
                "system": "http://terminology.hl7.org/CodeSystem/v3-ObservationInterpretation",
                "display": "High"
              }
            ]
          }
        ],
        "text": {
          "status": "generated",
          "div": "<div xmlns=\"http://www.w3.org/1999/xhtml\"><table class=\"hl7__eu__lab__report\"><tr><th>Test</th><th>16-Dec-2024</th><th>Reference&#xA0;Range</th><th>Unit</th></tr><tr><td>Protein [Mass/volume] in Urine by Test strip</td><td>337.6</td><td>0 - 14</td><td>H</td><td>mg/dL</td></tr></table></div>"
        },
        "status": "final",
        "subject": {
          "reference": "urn:uuid:4c6c8e95-bfeb-48d8-94c1-332615d73896",
          "display": "Meaghan Neary"
        },
        "effectiveDateTime": "2024-12-16T22:11:04Z",
        "specimen": {
          "reference": "urn:uuid:0300aea3-0e17-4426-81f5-73eeab58dd85"
        }
      }
    },
    {
      "fullUrl": "urn:uuid:d2d06de3-271e-4db0-b8f4-c65a26b5ed99",
      "resource": {
        "resourceType": "Observation",
        "id": "d2d06de3-271e-4db0-b8f4-c65a26b5ed99",
        "meta": {
          "profile": [
            "http://hl7.eu/fhir/laboratory/StructureDefinition/Observation-resultslab-eu-lab"
          ]
        },
        "performer": [
          {
            "display": "The Central European Lab"
          }
        ],
        "category": [
          {
            "coding": [
              {
                "system": "http://terminology.hl7.org/CodeSystem/observation-category",
                "code": "laboratory"
              }
            ]
          }
        ],
        "code": {
          "coding": [
            {
              "code": "20454-5",
              "system": "http://loinc.org",
              "display": "Protein [Presence] in Urine by Test strip"
            }
          ],
          "text": "Protein [Presence] in Urine by Test strip"
        },
        "text": {
          "status": "generated",
          "div": "<div xmlns=\"http://www.w3.org/1999/xhtml\"><table class=\"hl7__eu__lab__report\"><tr><th>Test</th><th>16-Dec-2024</th><th>Reference&#xA0;Range</th><th>Unit</th></tr><tr><td>Protein [Presence] in Urine by Test strip</td></tr></table></div>"
        },
        "status": "final",
        "subject": {
          "reference": "urn:uuid:4c6c8e95-bfeb-48d8-94c1-332615d73896",
          "display": "Meaghan Neary"
        },
        "effectiveDateTime": "2024-12-16T22:11:04Z",
        "specimen": {
          "reference": "urn:uuid:0300aea3-0e17-4426-81f5-73eeab58dd85"
        }
      }
    },
    {
      "fullUrl": "urn:uuid:e1e0031a-4031-4c3c-a26b-2ac8dee0d046",
      "resource": {
        "resourceType": "Observation",
        "id": "e1e0031a-4031-4c3c-a26b-2ac8dee0d046",
        "meta": {
          "profile": [
            "http://hl7.eu/fhir/laboratory/StructureDefinition/Observation-resultslab-eu-lab"
          ]
        },
        "performer": [
          {
            "display": "The Central European Lab"
          }
        ],
        "category": [
          {
            "coding": [
              {
                "system": "http://terminology.hl7.org/CodeSystem/observation-category",
                "code": "laboratory"
              }
            ]
          }
        ],
        "code": {
          "coding": [
            {
              "code": "5802-4",
              "system": "http://loinc.org",
              "display": "Nitrite [Presence] in Urine by Test strip"
            }
          ],
          "text": "Nitrite [Presence] in Urine by Test strip"
        },
        "text": {
          "status": "generated",
          "div": "<div xmlns=\"http://www.w3.org/1999/xhtml\"><table class=\"hl7__eu__lab__report\"><tr><th>Test</th><th>16-Dec-2024</th><th>Reference&#xA0;Range</th><th>Unit</th></tr><tr><td>Nitrite [Presence] in Urine by Test strip</td></tr></table></div>"
        },
        "status": "final",
        "subject": {
          "reference": "urn:uuid:4c6c8e95-bfeb-48d8-94c1-332615d73896",
          "display": "Meaghan Neary"
        },
        "effectiveDateTime": "2024-12-16T22:11:04Z",
        "specimen": {
          "reference": "urn:uuid:0300aea3-0e17-4426-81f5-73eeab58dd85"
        }
      }
    },
    {
      "fullUrl": "urn:uuid:2cdd8b9f-51ce-4b63-8dbc-85b1ad7ea084",
      "resource": {
        "resourceType": "Observation",
        "id": "2cdd8b9f-51ce-4b63-8dbc-85b1ad7ea084",
        "meta": {
          "profile": [
            "http://hl7.eu/fhir/laboratory/StructureDefinition/Observation-resultslab-eu-lab"
          ]
        },
        "performer": [
          {
            "display": "The Central European Lab"
          }
        ],
        "category": [
          {
            "coding": [
              {
                "system": "http://terminology.hl7.org/CodeSystem/observation-category",
                "code": "laboratory"
              }
            ]
          }
        ],
        "code": {
          "coding": [
            {
              "code": "5794-3",
              "system": "http://loinc.org",
              "display": "Hemoglobin [Presence] in Urine by Test strip"
            }
          ],
          "text": "Hemoglobin [Presence] in Urine by Test strip"
        },
        "text": {
          "status": "generated",
          "div": "<div xmlns=\"http://www.w3.org/1999/xhtml\"><table class=\"hl7__eu__lab__report\"><tr><th>Test</th><th>16-Dec-2024</th><th>Reference&#xA0;Range</th><th>Unit</th></tr><tr><td>Hemoglobin [Presence] in Urine by Test strip</td></tr></table></div>"
        },
        "status": "final",
        "subject": {
          "reference": "urn:uuid:4c6c8e95-bfeb-48d8-94c1-332615d73896",
          "display": "Meaghan Neary"
        },
        "effectiveDateTime": "2024-12-16T22:11:04Z",
        "specimen": {
          "reference": "urn:uuid:0300aea3-0e17-4426-81f5-73eeab58dd85"
        }
      }
    },
    {
      "fullUrl": "urn:uuid:25e7c15e-cb68-4cf9-9aa5-db9c3ae0ce5e",
      "resource": {
        "resourceType": "Observation",
        "id": "25e7c15e-cb68-4cf9-9aa5-db9c3ae0ce5e",
        "meta": {
          "profile": [
            "http://hl7.eu/fhir/laboratory/StructureDefinition/Observation-resultslab-eu-lab"
          ]
        },
        "performer": [
          {
            "display": "The Central European Lab"
          }
        ],
        "category": [
          {
            "coding": [
              {
                "system": "http://terminology.hl7.org/CodeSystem/observation-category",
                "code": "laboratory"
              }
            ]
          }
        ],
        "code": {
          "coding": [
            {
              "code": "5799-2",
              "system": "http://loinc.org",
              "display": "Leukocyte esterase [Presence] in Urine by Test strip"
            }
          ],
          "text": "Leukocyte esterase [Presence] in Urine by Test strip"
        },
        "text": {
          "status": "generated",
          "div": "<div xmlns=\"http://www.w3.org/1999/xhtml\"><table class=\"hl7__eu__lab__report\"><tr><th>Test</th><th>16-Dec-2024</th><th>Reference&#xA0;Range</th><th>Unit</th></tr><tr><td>Leukocyte esterase [Presence] in Urine by Test strip</td></tr></table></div>"
        },
        "status": "final",
        "subject": {
          "reference": "urn:uuid:4c6c8e95-bfeb-48d8-94c1-332615d73896",
          "display": "Meaghan Neary"
        },
        "effectiveDateTime": "2024-12-16T22:11:04Z",
        "specimen": {
          "reference": "urn:uuid:0300aea3-0e17-4426-81f5-73eeab58dd85"
        }
      }
    },
    {
      "fullUrl": "urn:uuid:7214a6bf-01ae-45d2-a3d9-e9f3eb0612f4",
      "resource": {
        "resourceType": "Observation",
        "id": "7214a6bf-01ae-45d2-a3d9-e9f3eb0612f4",
        "meta": {
          "profile": [
            "http://hl7.eu/fhir/laboratory/StructureDefinition/Observation-resultslab-eu-lab"
          ]
        },
        "performer": [
          {
            "display": "The Central European Lab"
          }
        ],
        "category": [
          {
            "coding": [
              {
                "system": "http://terminology.hl7.org/CodeSystem/observation-category",
                "code": "laboratory"
              }
            ]
          }
        ],
        "code": {
          "coding": [
            {
              "code": "4548-4",
              "system": "http://loinc.org",
              "display": "Hemoglobin A1c/Hemoglobin.total in Blood"
            }
          ],
          "text": "Hemoglobin A1c/Hemoglobin.total in Blood"
        },
        "valueQuantity": {
          "system": "http://unitsofmeasure.org",
          "value": 4,
          "unit": "%",
          "code": "%"
        },
        "referenceRange": [
          {
            "low": {
              "value": 4,
              "code": "%",
              "system": "http://unitsofmeasure.org"
            }
          },
          {
            "high": {
              "value": 6.4,
              "code": "%",
              "system": "http://unitsofmeasure.org"
            }
          }
        ],
        "text": {
          "status": "generated",
          "div": "<div xmlns=\"http://www.w3.org/1999/xhtml\"><table class=\"hl7__eu__lab__report\"><tr><th>Test</th><th>16-Dec-2024</th><th>Reference&#xA0;Range</th><th>Unit</th></tr><tr><td>Hemoglobin A1c/Hemoglobin.total in Blood</td><td>4.0</td><td>4 - 6.4</td><td></td><td>%</td></tr></table></div>"
        },
        "status": "final",
        "subject": {
          "reference": "urn:uuid:4c6c8e95-bfeb-48d8-94c1-332615d73896",
          "display": "Meaghan Neary"
        },
        "effectiveDateTime": "2024-12-16T22:11:04Z",
        "specimen": {
          "reference": "urn:uuid:ee2a250b-094a-48eb-8492-ae37cc29ca85"
        }
      }
    },
    {
      "fullUrl": "urn:uuid:03d8be8d-1776-46ed-bc1e-6a070e0d91a6",
      "resource": {
        "resourceType": "Observation",
        "id": "03d8be8d-1776-46ed-bc1e-6a070e0d91a6",
        "meta": {
          "profile": [
            "http://hl7.eu/fhir/laboratory/StructureDefinition/Observation-resultslab-eu-lab"
          ]
        },
        "performer": [
          {
            "display": "The Central European Lab"
          }
        ],
        "category": [
          {
            "coding": [
              {
                "system": "http://terminology.hl7.org/CodeSystem/observation-category",
                "code": "laboratory"
              }
            ]
          }
        ],
        "code": {
          "coding": [
            {
              "code": "2339-0",
              "system": "http://loinc.org",
              "display": "Glucose [Mass/volume] in Blood"
            }
          ],
          "text": "Glucose [Mass/volume] in Blood"
        },
        "valueQuantity": {
          "system": "http://unitsofmeasure.org",
          "value": 93.1,
          "unit": "mg/dL",
          "code": "mg/dL"
        },
        "referenceRange": [
          {
            "low": {
              "value": 70,
              "code": "mg/dL",
              "system": "http://unitsofmeasure.org"
            }
          },
          {
            "high": {
              "value": 100,
              "code": "mg/dL",
              "system": "http://unitsofmeasure.org"
            }
          }
        ],
        "text": {
          "status": "generated",
          "div": "<div xmlns=\"http://www.w3.org/1999/xhtml\"><table class=\"hl7__eu__lab__report\"><tr><th>Test</th><th>16-Dec-2024</th><th>Reference&#xA0;Range</th><th>Unit</th></tr><tr><td>Glucose [Mass/volume] in Blood</td><td>93.1</td><td>70 - 100</td><td></td><td>mg/dL</td></tr></table></div>"
        },
        "status": "final",
        "subject": {
          "reference": "urn:uuid:4c6c8e95-bfeb-48d8-94c1-332615d73896",
          "display": "Meaghan Neary"
        },
        "effectiveDateTime": "2024-12-16T22:11:04Z",
        "specimen": {
          "reference": "urn:uuid:ee2a250b-094a-48eb-8492-ae37cc29ca85"
        }
      }
    },
    {
      "fullUrl": "urn:uuid:56540dc6-25b3-4f9a-954b-829982480280",
      "resource": {
        "resourceType": "Observation",
        "id": "56540dc6-25b3-4f9a-954b-829982480280",
        "meta": {
          "profile": [
            "http://hl7.eu/fhir/laboratory/StructureDefinition/Observation-resultslab-eu-lab"
          ]
        },
        "performer": [
          {
            "display": "The Central European Lab"
          }
        ],
        "category": [
          {
            "coding": [
              {
                "system": "http://terminology.hl7.org/CodeSystem/observation-category",
                "code": "laboratory"
              }
            ]
          }
        ],
        "code": {
          "coding": [
            {
              "code": "6299-2",
              "system": "http://loinc.org",
              "display": "Urea nitrogen [Mass/volume] in Blood"
            }
          ],
          "text": "Urea nitrogen [Mass/volume] in Blood"
        },
        "valueQuantity": {
          "system": "http://unitsofmeasure.org",
          "value": 9,
          "unit": "mg/dL",
          "code": "mg/dL"
        },
        "referenceRange": [
          {
            "low": {
              "value": 7,
              "code": "mg/dL",
              "system": "http://unitsofmeasure.org"
            }
          },
          {
            "high": {
              "value": 43,
              "code": "mg/dL",
              "system": "http://unitsofmeasure.org"
            }
          }
        ],
        "text": {
          "status": "generated",
          "div": "<div xmlns=\"http://www.w3.org/1999/xhtml\"><table class=\"hl7__eu__lab__report\"><tr><th>Test</th><th>16-Dec-2024</th><th>Reference&#xA0;Range</th><th>Unit</th></tr><tr><td>Urea nitrogen [Mass/volume] in Blood</td><td>9.0</td><td>7 - 43</td><td></td><td>mg/dL</td></tr></table></div>"
        },
        "status": "final",
        "subject": {
          "reference": "urn:uuid:4c6c8e95-bfeb-48d8-94c1-332615d73896",
          "display": "Meaghan Neary"
        },
        "effectiveDateTime": "2024-12-16T22:11:04Z",
        "specimen": {
          "reference": "urn:uuid:ee2a250b-094a-48eb-8492-ae37cc29ca85"
        }
      }
    },
    {
      "fullUrl": "urn:uuid:547fdc1e-a381-4362-be45-f53e9cf2b00b",
      "resource": {
        "resourceType": "Observation",
        "id": "547fdc1e-a381-4362-be45-f53e9cf2b00b",
        "meta": {
          "profile": [
            "http://hl7.eu/fhir/laboratory/StructureDefinition/Observation-resultslab-eu-lab"
          ]
        },
        "performer": [
          {
            "display": "The Central European Lab"
          }
        ],
        "category": [
          {
            "coding": [
              {
                "system": "http://terminology.hl7.org/CodeSystem/observation-category",
                "code": "laboratory"
              }
            ]
          }
        ],
        "code": {
          "coding": [
            {
              "code": "38483-4",
              "system": "http://loinc.org",
              "display": "Creatinine [Mass/volume] in Blood"
            }
          ],
          "text": "Creatinine [Mass/volume] in Blood"
        },
        "valueQuantity": {
          "system": "http://unitsofmeasure.org",
          "value": 2.4,
          "unit": "mg/dL",
          "code": "mg/dL"
        },
        "referenceRange": [
          {
            "low": {
              "value": 0.6,
              "code": "mg/dL",
              "system": "http://unitsofmeasure.org"
            }
          },
          {
            "high": {
              "value": 1.1,
              "code": "mg/dL",
              "system": "http://unitsofmeasure.org"
            }
          }
        ],
        "interpretation": [
          {
            "coding": [
              {
                "code": "H",
                "system": "http://terminology.hl7.org/CodeSystem/v3-ObservationInterpretation",
                "display": "High"
              }
            ]
          }
        ],
        "text": {
          "status": "generated",
          "div": "<div xmlns=\"http://www.w3.org/1999/xhtml\"><table class=\"hl7__eu__lab__report\"><tr><th>Test</th><th>16-Dec-2024</th><th>Reference&#xA0;Range</th><th>Unit</th></tr><tr><td>Creatinine [Mass/volume] in Blood</td><td>2.4</td><td>0.6 - 1.1</td><td>H</td><td>mg/dL</td></tr></table></div>"
        },
        "status": "final",
        "subject": {
          "reference": "urn:uuid:4c6c8e95-bfeb-48d8-94c1-332615d73896",
          "display": "Meaghan Neary"
        },
        "effectiveDateTime": "2024-12-16T22:11:04Z",
        "specimen": {
          "reference": "urn:uuid:ee2a250b-094a-48eb-8492-ae37cc29ca85"
        }
      }
    },
    {
      "fullUrl": "urn:uuid:4c0047b6-8ea9-4b1d-8433-de5cc188c408",
      "resource": {
        "resourceType": "Observation",
        "id": "4c0047b6-8ea9-4b1d-8433-de5cc188c408",
        "meta": {
          "profile": [
            "http://hl7.eu/fhir/laboratory/StructureDefinition/Observation-resultslab-eu-lab"
          ]
        },
        "performer": [
          {
            "display": "The Central European Lab"
          }
        ],
        "category": [
          {
            "coding": [
              {
                "system": "http://terminology.hl7.org/CodeSystem/observation-category",
                "code": "laboratory"
              }
            ]
          }
        ],
        "code": {
          "coding": [
            {
              "code": "49765-1",
              "system": "http://loinc.org",
              "display": "Calcium [Mass/volume] in Blood"
            }
          ],
          "text": "Calcium [Mass/volume] in Blood"
        },
        "valueQuantity": {
          "system": "http://unitsofmeasure.org",
          "value": 9.6,
          "unit": "mg/dL",
          "code": "mg/dL"
        },
        "referenceRange": [
          {
            "low": {
              "value": 8.5,
              "code": "mg/dL",
              "system": "http://unitsofmeasure.org"
            }
          },
          {
            "high": {
              "value": 10.5,
              "code": "mg/dL",
              "system": "http://unitsofmeasure.org"
            }
          }
        ],
        "text": {
          "status": "generated",
          "div": "<div xmlns=\"http://www.w3.org/1999/xhtml\"><table class=\"hl7__eu__lab__report\"><tr><th>Test</th><th>16-Dec-2024</th><th>Reference&#xA0;Range</th><th>Unit</th></tr><tr><td>Calcium [Mass/volume] in Blood</td><td>9.6</td><td>8.5 - 10.5</td><td></td><td>mg/dL</td></tr></table></div>"
        },
        "status": "final",
        "subject": {
          "reference": "urn:uuid:4c6c8e95-bfeb-48d8-94c1-332615d73896",
          "display": "Meaghan Neary"
        },
        "effectiveDateTime": "2024-12-16T22:11:04Z",
        "specimen": {
          "reference": "urn:uuid:ee2a250b-094a-48eb-8492-ae37cc29ca85"
        }
      }
    },
    {
      "fullUrl": "urn:uuid:f338c628-aa29-41db-a714-68838106a99b",
      "resource": {
        "resourceType": "Observation",
        "id": "f338c628-aa29-41db-a714-68838106a99b",
        "meta": {
          "profile": [
            "http://hl7.eu/fhir/laboratory/StructureDefinition/Observation-resultslab-eu-lab"
          ]
        },
        "performer": [
          {
            "display": "The Central European Lab"
          }
        ],
        "category": [
          {
            "coding": [
              {
                "system": "http://terminology.hl7.org/CodeSystem/observation-category",
                "code": "laboratory"
              }
            ]
          }
        ],
        "code": {
          "coding": [
            {
              "code": "2947-0",
              "system": "http://loinc.org",
              "display": "Sodium [Moles/volume] in Blood"
            }
          ],
          "text": "Sodium [Moles/volume] in Blood"
        },
        "valueQuantity": {
          "system": "http://unitsofmeasure.org",
          "value": 137.8,
          "unit": "mmol/L",
          "code": "mmol/L"
        },
        "referenceRange": [
          {
            "low": {
              "value": 135,
              "code": "mmol/L",
              "system": "http://unitsofmeasure.org"
            }
          },
          {
            "high": {
              "value": 145,
              "code": "mmol/L",
              "system": "http://unitsofmeasure.org"
            }
          }
        ],
        "text": {
          "status": "generated",
          "div": "<div xmlns=\"http://www.w3.org/1999/xhtml\"><table class=\"hl7__eu__lab__report\"><tr><th>Test</th><th>16-Dec-2024</th><th>Reference&#xA0;Range</th><th>Unit</th></tr><tr><td>Sodium [Moles/volume] in Blood</td><td>137.8</td><td>135 - 145</td><td></td><td>mmol/L</td></tr></table></div>"
        },
        "status": "final",
        "subject": {
          "reference": "urn:uuid:4c6c8e95-bfeb-48d8-94c1-332615d73896",
          "display": "Meaghan Neary"
        },
        "effectiveDateTime": "2024-12-16T22:11:04Z",
        "specimen": {
          "reference": "urn:uuid:ee2a250b-094a-48eb-8492-ae37cc29ca85"
        }
      }
    },
    {
      "fullUrl": "urn:uuid:8c458709-5d2e-46f3-b41f-7e3a5aef2f05",
      "resource": {
        "resourceType": "Observation",
        "id": "8c458709-5d2e-46f3-b41f-7e3a5aef2f05",
        "meta": {
          "profile": [
            "http://hl7.eu/fhir/laboratory/StructureDefinition/Observation-resultslab-eu-lab"
          ]
        },
        "performer": [
          {
            "display": "The Central European Lab"
          }
        ],
        "category": [
          {
            "coding": [
              {
                "system": "http://terminology.hl7.org/CodeSystem/observation-category",
                "code": "laboratory"
              }
            ]
          }
        ],
        "code": {
          "coding": [
            {
              "code": "6298-4",
              "system": "http://loinc.org",
              "display": "Potassium [Moles/volume] in Blood"
            }
          ],
          "text": "Potassium [Moles/volume] in Blood"
        },
        "valueQuantity": {
          "system": "http://unitsofmeasure.org",
          "value": 4,
          "unit": "mmol/L",
          "code": "mmol/L"
        },
        "referenceRange": [
          {
            "low": {
              "value": 3.5,
              "code": "mmol/L",
              "system": "http://unitsofmeasure.org"
            }
          },
          {
            "high": {
              "value": 5.1,
              "code": "mmol/L",
              "system": "http://unitsofmeasure.org"
            }
          }
        ],
        "text": {
          "status": "generated",
          "div": "<div xmlns=\"http://www.w3.org/1999/xhtml\"><table class=\"hl7__eu__lab__report\"><tr><th>Test</th><th>16-Dec-2024</th><th>Reference&#xA0;Range</th><th>Unit</th></tr><tr><td>Potassium [Moles/volume] in Blood</td><td>4.0</td><td>3.5 - 5.1</td><td></td><td>mmol/L</td></tr></table></div>"
        },
        "status": "final",
        "subject": {
          "reference": "urn:uuid:4c6c8e95-bfeb-48d8-94c1-332615d73896",
          "display": "Meaghan Neary"
        },
        "effectiveDateTime": "2024-12-16T22:11:04Z",
        "specimen": {
          "reference": "urn:uuid:ee2a250b-094a-48eb-8492-ae37cc29ca85"
        }
      }
    },
    {
      "fullUrl": "urn:uuid:4d253319-f092-4533-8aad-121747ebd578",
      "resource": {
        "resourceType": "Observation",
        "id": "4d253319-f092-4533-8aad-121747ebd578",
        "meta": {
          "profile": [
            "http://hl7.eu/fhir/laboratory/StructureDefinition/Observation-resultslab-eu-lab"
          ]
        },
        "performer": [
          {
            "display": "The Central European Lab"
          }
        ],
        "category": [
          {
            "coding": [
              {
                "system": "http://terminology.hl7.org/CodeSystem/observation-category",
                "code": "laboratory"
              }
            ]
          }
        ],
        "code": {
          "coding": [
            {
              "code": "2069-3",
              "system": "http://loinc.org",
              "display": "Chloride [Moles/volume] in Blood"
            }
          ],
          "text": "Chloride [Moles/volume] in Blood"
        },
        "valueQuantity": {
          "system": "http://unitsofmeasure.org",
          "value": 102.7,
          "unit": "mmol/L",
          "code": "mmol/L"
        },
        "referenceRange": [
          {
            "low": {
              "value": 98,
              "code": "mmol/L",
              "system": "http://unitsofmeasure.org"
            }
          },
          {
            "high": {
              "value": 108,
              "code": "mmol/L",
              "system": "http://unitsofmeasure.org"
            }
          }
        ],
        "text": {
          "status": "generated",
          "div": "<div xmlns=\"http://www.w3.org/1999/xhtml\"><table class=\"hl7__eu__lab__report\"><tr><th>Test</th><th>16-Dec-2024</th><th>Reference&#xA0;Range</th><th>Unit</th></tr><tr><td>Chloride [Moles/volume] in Blood</td><td>102.7</td><td>98 - 108</td><td></td><td>mmol/L</td></tr></table></div>"
        },
        "status": "final",
        "subject": {
          "reference": "urn:uuid:4c6c8e95-bfeb-48d8-94c1-332615d73896",
          "display": "Meaghan Neary"
        },
        "effectiveDateTime": "2024-12-16T22:11:04Z",
        "specimen": {
          "reference": "urn:uuid:ee2a250b-094a-48eb-8492-ae37cc29ca85"
        }
      }
    },
    {
      "fullUrl": "urn:uuid:38c596cc-f1db-4a39-b3b5-fa52599ced4b",
      "resource": {
        "resourceType": "Observation",
        "id": "38c596cc-f1db-4a39-b3b5-fa52599ced4b",
        "meta": {
          "profile": [
            "http://hl7.eu/fhir/laboratory/StructureDefinition/Observation-resultslab-eu-lab"
          ]
        },
        "performer": [
          {
            "display": "The Central European Lab"
          }
        ],
        "category": [
          {
            "coding": [
              {
                "system": "http://terminology.hl7.org/CodeSystem/observation-category",
                "code": "laboratory"
              }
            ]
          }
        ],
        "code": {
          "coding": [
            {
              "code": "20565-8",
              "system": "http://loinc.org",
              "display": "Carbon dioxide, total [Moles/volume] in Blood"
            }
          ],
          "text": "Carbon dioxide, total [Moles/volume] in Blood"
        },
        "valueQuantity": {
          "system": "http://unitsofmeasure.org",
          "value": 20.9,
          "unit": "mmol/L",
          "code": "mmol/L"
        },
        "referenceRange": [
          {
            "low": {
              "value": 22,
              "code": "mmol/L",
              "system": "http://unitsofmeasure.org"
            }
          },
          {
            "high": {
              "value": 29,
              "code": "mmol/L",
              "system": "http://unitsofmeasure.org"
            }
          }
        ],
        "interpretation": [
          {
            "coding": [
              {
                "code": "L",
                "system": "http://terminology.hl7.org/CodeSystem/v3-ObservationInterpretation",
                "display": "Low"
              }
            ]
          }
        ],
        "text": {
          "status": "generated",
          "div": "<div xmlns=\"http://www.w3.org/1999/xhtml\"><table class=\"hl7__eu__lab__report\"><tr><th>Test</th><th>16-Dec-2024</th><th>Reference&#xA0;Range</th><th>Unit</th></tr><tr><td>Carbon dioxide, total [Moles/volume] in Blood</td><td>20.9</td><td>22 - 29</td><td>L</td><td>mmol/L</td></tr></table></div>"
        },
        "status": "final",
        "subject": {
          "reference": "urn:uuid:4c6c8e95-bfeb-48d8-94c1-332615d73896",
          "display": "Meaghan Neary"
        },
        "effectiveDateTime": "2024-12-16T22:11:04Z",
        "specimen": {
          "reference": "urn:uuid:ee2a250b-094a-48eb-8492-ae37cc29ca85"
        }
      }
    },
    {
      "fullUrl": "urn:uuid:77a51623-de9e-4f0e-9224-0ec91564a787",
      "resource": {
        "resourceType": "Device",
        "id": "77a51623-de9e-4f0e-9224-0ec91564a787",
        "deviceName": [
          {
            "name": "SYNDERAI Synthetic Generator",
            "type": "manufacturer-name"
          }
        ],
        "version": [
          {
            "value": "5.0"
          }
        ],
        "text": {
          "status": "generated",
          "div": "<div xmlns=\"http://www.w3.org/1999/xhtml\">SYNDERAI Synthetic Generator v5.0</div>"
        },
        "status": "active\"",
        "distinctIdentifier": "synderai-generator-50",
        "manufacturer": "SYNDERAI Project"
      }
    },
    {
      "fullUrl": "urn:uuid:ecaca38d-6b1c-45fa-9ec3-9c115e0d89ee",
      "resource": {
        "resourceType": "Provenance",
        "id": "ecaca38d-6b1c-45fa-9ec3-9c115e0d89ee",
        "target": [
          {
            "reference": "Patient/4c6c8e95-bfeb-48d8-94c1-332615d73896"
          },
          {
            "reference": "Bundle/f9a84460-e487-498c-91b1-3154033b52c8"
          },
          {
            "reference": "Composition/55492688-36fe-4b8f-a4fc-cc0e11a75a2e"
          },
          {
            "reference": "PractitionerRole/1cb656ad-22f5-47d6-9983-c1747f36f35d"
          },
          {
            "reference": "Practitioner/bd1dbdd9-512a-4bb1-85ef-583a9e450511"
          },
          {
            "reference": "PractitionerRole/b0b4a027-e739-49b3-afa5-4c0e34c0d7dc"
          },
          {
            "reference": "Organization/ec7f3e87-089e-4406-bb85-f8b824fba72a"
          }
        ],
        "activity": {
          "text": "Synthetic Example Data Generation"
        },
        "policy": [
          "https://synderai.net/synderai-synthetic-data-policy"
        ],
        "agent": [
          {
            "type": {
              "text": "author"
            },
            "who": {
              "reference": "Device/77a51623-de9e-4f0e-9224-0ec91564a787"
            }
          }
        ],
        "reason": [
          {
            "text": "Interoperability Testing and Training (non-clinical use)"
          }
        ],
        "text": {
          "status": "generated",
          "div": "<div xmlns=\"http://www.w3.org/1999/xhtml\">Provenance for SYNDERAI Synthetic Example Data Resource</div>"
        },
        "recorded": "2024-12-16T23:11:04Z"
      }
    },
    {
      "fullUrl": "urn:uuid:1cb656ad-22f5-47d6-9983-c1747f36f35d",
      "resource": {
        "resourceType": "PractitionerRole",
        "id": "1cb656ad-22f5-47d6-9983-c1747f36f35d",
        "meta": {
          "profile": [
            "http://hl7.eu/fhir/base/StructureDefinition/practitionerRole-eu"
          ]
        },
        "text": {
          "status": "generated",
          "div": "<div xmlns=\"http://www.w3.org/1999/xhtml\">Laboratory Role Id: 1cb656ad-22f5-47d6-9983-c1747f36f35d</div>"
        },
        "practitioner": {
          "reference": "urn:uuid:bd1dbdd9-512a-4bb1-85ef-583a9e450511"
        }
      }
    },
    {
      "fullUrl": "urn:uuid:bd1dbdd9-512a-4bb1-85ef-583a9e450511",
      "resource": {
        "resourceType": "Practitioner",
        "id": "bd1dbdd9-512a-4bb1-85ef-583a9e450511",
        "meta": {
          "profile": [
            "http://hl7.eu/fhir/base/StructureDefinition/practitioner-eu"
          ]
        },
        "identifier": [
          {
            "assigner": {
              "display": "HL7 Europe"
            },
            "system": "urn:oid:2.16.840.1.113883.2.51.999",
            "value": "d90382ac-a1d1-4bc2-9820-29c7adde4c9b"
          }
        ],
        "name": [
          {
            "prefix": [
              "dr"
            ],
            "given": [
              "Ex"
            ],
            "family": "Ample"
          }
        ],
        "address": [
          {
            "line": [
              "Laboratoire Central Européenne",
              "Boulevard du Jardin Botanique 32"
            ],
            "postalCode": "1000",
            "city": "Brussels",
            "country": "Belgium"
          }
        ],
        "text": {
          "status": "generated",
          "div": "<div xmlns=\"http://www.w3.org/1999/xhtml\">Laboratory: Laboratoire Central Européenne, 1000 Brussels, Belgium</div>"
        }
      }
    }
  ],
  "type": "document",
  "timestamp": "2024-12-16T23:11:04Z"
}
