{
  "resourceType": "Bundle",
  "id": "0c9ccf6e-1efe-4201-b965-006e2a7f683b",
  "meta": {
    "profile": [
      "http://hl7.eu/fhir/laboratory/StructureDefinition/Bundle-eu-lab"
    ]
  },
  "identifier": {
    "assigner": {
      "display": "HL7 Europe"
    },
    "system": "urn:oid:2.16.840.1.113883.2.51.999",
    "value": "4aa87c31-f84a-4865-9847-e89441b02109"
  },
  "entry": [
    {
      "fullUrl": "urn:uuid:937909c1-3605-40b8-a72f-558d6b961929",
      "resource": {
        "resourceType": "Composition",
        "id": "937909c1-3605-40b8-a72f-558d6b961929",
        "meta": {
          "profile": [
            "http://hl7.eu/fhir/laboratory/StructureDefinition/Composition-eu-lab"
          ]
        },
        "identifier": {
          "assigner": {
            "display": "HL7 Europe"
          },
          "system": "urn:oid:2.16.840.1.113883.2.51.999",
          "value": "810ca5fb-bc7d-4330-8848-203418b2ff05"
        },
        "author": [
          {
            "reference": "urn:uuid:fd952907-7f9c-484e-91a5-2954d852113f"
          }
        ],
        "category": [
          {
            "coding": [
              {
                "code": "26436-6",
                "system": "http://loinc.org",
                "display": "Laboratory studies (set)"
              }
            ]
          }
        ],
        "type": {
          "coding": [
            {
              "code": "11502-2",
              "system": "http://loinc.org",
              "display": "Laboratory report"
            }
          ],
          "text": "Laboratory Report"
        },
        "section": [
          {
            "code": {
              "coding": [
                {
                  "code": "26436-6",
                  "system": "http://loinc.org",
                  "display": "Laboratory studies (set)"
                }
              ],
              "text": "Laboratory studies"
            },
            "section": [
              {
                "code": {
                  "coding": [
                    {
                      "code": "$18723-7",
                      "system": "http://loinc.org",
                      "display": "Hematology studies (set)"
                    }
                  ],
                  "text": "Hematology"
                },
                "entry": [
                  {
                    "reference": "urn:uuid:fe0e52df-cdd3-47bc-9bca-8b3aa2f37f42"
                  },
                  {
                    "reference": "urn:uuid:d5958098-16b0-43e4-83a9-d632105a15d2"
                  },
                  {
                    "reference": "urn:uuid:de640bdf-f470-4aa6-a78c-4944f0503f09"
                  },
                  {
                    "reference": "urn:uuid:f6c937e3-b9be-4eee-8ee7-d73f593ecb3f"
                  },
                  {
                    "reference": "urn:uuid:e5022567-cdc3-4ffd-b650-d5eaa3ca7105"
                  },
                  {
                    "reference": "urn:uuid:537a334f-96ea-4b22-979e-3c910dbbdba3"
                  },
                  {
                    "reference": "urn:uuid:4ac2124a-c34e-409f-a588-efbf7bce2ad9"
                  },
                  {
                    "reference": "urn:uuid:6ed37bef-d6a0-4c23-976e-a5a108a1a4bf"
                  },
                  {
                    "reference": "urn:uuid:3c7d372f-4708-4551-801d-8ead1592ecf6"
                  },
                  {
                    "reference": "urn:uuid:715e5cf9-d54e-46aa-9625-2c34f969d12c"
                  },
                  {
                    "reference": "urn:uuid:cd6b35b9-b43a-4667-bf05-becce8485f13"
                  }
                ],
                "text": {
                  "status": "generated",
                  "div": "<div xmlns=\"http://www.w3.org/1999/xhtml\"><h3>Hematology</h3><table class=\"hl7__eu__lab__report\"><thead><tr><th>Test</th><th>06-OCT-2022</th><th>Reference&#xA0;Range</th><th>Unit</th></tr></thead><tbody><tr><td>Leukocytes [#/volume] in Blood by Automated count</td><td>8.2</td><td>3.5 - 10.5</td><td>10*3/uL</td></tr><tr><td>Erythrocytes [#/volume] in Blood by Automated count</td><td><strong>4.0 L</strong></td><td>4.5 - 6.2</td><td>10*6/uL</td></tr><tr><td>Hemoglobin [Mass/volume] in Blood</td><td>16.0</td><td>14 - 18</td><td>g/dL</td></tr><tr><td>Hematocrit [Volume Fraction] of Blood by Automated count</td><td>48.7</td><td>38 - 52</td><td>%</td></tr><tr><td>MCV [Entitic volume] by Automated count</td><td>86.5</td><td>80 - 98</td><td>fL</td></tr><tr><td>MCH [Entitic mass] by Automated count</td><td>29.8</td><td>27 - 33</td><td>pg</td></tr><tr><td>MCHC [Mass/volume] by Automated count</td><td>33.8</td><td>32 - 36</td><td>g/dL</td></tr><tr><td>Erythrocyte distribution width [Entitic volume] by Automated count</td><td>45.7</td><td>36 - 55</td><td>fL</td></tr><tr><td>Platelets [#/volume] in Blood by Automated count</td><td>251.7</td><td>150 - 350</td><td>10*3/uL</td></tr><tr><td>Platelet distribution width [Entitic volume] in Blood by Automated count</td><td>377.3</td><td>150 - 450</td><td>fL</td></tr><tr><td>Platelet mean volume [Entitic volume] in Blood by Automated count</td><td>11.8</td><td>9.8 - 13.8</td><td>fL</td></tr></tbody></table></div>"
                },
                "title": "Hematology"
              }
            ],
            "title": "Laboratory Report"
          },
          {
            "text": {
              "status": "generated",
              "div": "<div xmlns=\"http://www.w3.org/1999/xhtml\"><h3>Annotation</h3><table class=\"hl7__eu__lab__report\"><tr><th>Conclusion and Recommendations based on this report and previous findings known to us</th></tr><tr><td>All measured parameters are within normal limits except for a mildly decreased erythrocyte count. Hemoglobin and hematocrit are normal, suggesting no clinically significant anemia. Other red cell indices and platelet parameters are unremarkable. No acute hematological abnormality is evident; the isolated low erythrocyte count may be a benign variation but should be correlated clinically if symptoms are present.</td></tr></table></div>"
            },
            "code": {
              "coding": [
                {
                  "system": "http://loinc.org",
                  "code": "48767-8",
                  "display": "Annotation comment"
                }
              ]
            },
            "title": "Annotation comment"
          }
        ],
        "status": "final",
        "subject": {
          "reference": "urn:uuid:8549f10d-98ab-45ba-a810-6a631eb5d8ec",
          "display": "Hynek Kubíčková"
        },
        "date": "2022-10-06T14:02:45Z",
        "title": "Laboratory Report",
        "confidentiality": "N"
      }
    },
    {
      "fullUrl": "urn:uuid:1897cb45-536a-4834-867a-d479b3b3d19a",
      "resource": {
        "resourceType": "DiagnosticReport",
        "id": "1897cb45-536a-4834-867a-d479b3b3d19a",
        "meta": {
          "profile": [
            "http://hl7.eu/fhir/laboratory/StructureDefinition/DiagnosticReport-eu-lab"
          ]
        },
        "identifier": [
          {
            "assigner": {
              "display": "HL7 Europe"
            },
            "system": "urn:oid:2.16.840.1.113883.2.51.999",
            "value": "d7209eb5-2305-411f-8733-3e9147219c82"
          }
        ],
        "extension": [
          {
            "url": "http://hl7.org/fhir/5.0/StructureDefinition/extension-DiagnosticReport.composition",
            "valueReference": {
              "reference": "urn:uuid:810ca5fb-bc7d-4330-8848-203418b2ff05"
            }
          }
        ],
        "category": [
          {
            "coding": [
              {
                "code": "26436-6",
                "system": "http://loinc.org",
                "display": "Laboratory studies (set)"
              }
            ]
          }
        ],
        "specimen": [
          {
            "reference": "urn:uuid:b8fe2272-59f9-4d36-8d68-63e8ad790779"
          },
          {
            "reference": "urn:uuid:b8fe2272-59f9-4d36-8d68-63e8ad790779"
          }
        ],
        "result": [
          {
            "reference": "urn:uuid:fe0e52df-cdd3-47bc-9bca-8b3aa2f37f42"
          },
          {
            "reference": "urn:uuid:d5958098-16b0-43e4-83a9-d632105a15d2"
          },
          {
            "reference": "urn:uuid:de640bdf-f470-4aa6-a78c-4944f0503f09"
          },
          {
            "reference": "urn:uuid:f6c937e3-b9be-4eee-8ee7-d73f593ecb3f"
          },
          {
            "reference": "urn:uuid:e5022567-cdc3-4ffd-b650-d5eaa3ca7105"
          },
          {
            "reference": "urn:uuid:537a334f-96ea-4b22-979e-3c910dbbdba3"
          },
          {
            "reference": "urn:uuid:4ac2124a-c34e-409f-a588-efbf7bce2ad9"
          },
          {
            "reference": "urn:uuid:6ed37bef-d6a0-4c23-976e-a5a108a1a4bf"
          },
          {
            "reference": "urn:uuid:3c7d372f-4708-4551-801d-8ead1592ecf6"
          },
          {
            "reference": "urn:uuid:715e5cf9-d54e-46aa-9625-2c34f969d12c"
          },
          {
            "reference": "urn:uuid:cd6b35b9-b43a-4667-bf05-becce8485f13"
          }
        ],
        "status": "registered",
        "code": {
          "coding": [
            {
              "code": "11502-2",
              "system": "http://loinc.org",
              "display": "Laboratory report"
            }
          ]
        },
        "subject": {
          "reference": "urn:uuid:8549f10d-98ab-45ba-a810-6a631eb5d8ec",
          "display": "Hynek Kubíčková"
        }
      }
    },
    {
      "fullUrl": "urn:uuid:8549f10d-98ab-45ba-a810-6a631eb5d8ec",
      "resource": {
        "resourceType": "Patient",
        "id": "8549f10d-98ab-45ba-a810-6a631eb5d8ec",
        "meta": {
          "security": [
            {
              "system": "http://terminology.hl7.org/CodeSystem/v3-ActReason",
              "code": "HTEST"
            },
            {
              "system": "http://terminology.hl7.org/CodeSystem/v3-ActReason",
              "code": "TRAIN"
            }
          ],
          "tag": [
            {
              "system": "https://synderai.net/fhir/CodeSystem/tags",
              "code": "synthetic",
              "display": "SYNDERAI Synthetic data"
            }
          ],
          "profile": [
            "http://hl7.eu/fhir/base/StructureDefinition/patient-eu-core"
          ]
        },
        "identifier": [
          {
            "type": {
              "coding": [
                {
                  "code": "PT",
                  "system": "http://terminology.hl7.org/CodeSystem/v2-0203"
                }
              ]
            },
            "system": "http://ec.europa.eu/identifier/eci",
            "value": "9771-756399-9"
          },
          {
            "type": {
              "coding": [
                {
                  "code": "MR",
                  "system": "http://terminology.hl7.org/CodeSystem/v2-0203"
                }
              ]
            },
            "system": "http://local.setting.eu/identifier",
            "value": "0a9c3ea6-b526-4dcc-cde1-545cdfca14b2"
          }
        ],
        "name": [
          {
            "family": "Kubíčková"
          },
          {
            "given": [
              "Hynek"
            ]
          },
          {
            "text": "Hynek Kubíčková"
          }
        ],
        "address": [
          {
            "line": [
              "Vraňanská 9"
            ],
            "use": "home",
            "type": "physical",
            "postalCode": "739 11",
            "city": "Frýdlant nad Ostravicí",
            "country": "Czechia"
          }
        ],
        "telecom": [
          {
            "system": "phone",
            "value": "+420 605 458 784"
          }
        ],
        "extension": [
          {
            "url": "http://hl7.org/fhir/StructureDefinition/patient-nationality",
            "valueCodeableConcept": {
              "coding": [
                {
                  "code": "CZ",
                  "system": "http://hl7.org/fhir/ValueSet/country"
                }
              ]
            }
          }
        ],
        "text": {
          "status": "generated",
          "div": "<div xmlns=\"http://www.w3.org/1999/xhtml\"><table class=\"hl7__ips\"><tr><td>Hynek Kubíčková</td><td>male</td><td>24-Jun-2005</td></tr></table></div>"
        },
        "gender": "male",
        "birthDate": "2005-06-24"
      }
    },
    {
      "fullUrl": "urn:uuid:d3030f31-0ef4-4d45-b947-c006b0f859fa",
      "resource": {
        "resourceType": "ServiceRequest",
        "id": "d3030f31-0ef4-4d45-b947-c006b0f859fa",
        "meta": {
          "profile": [
            "http://hl7.eu/fhir/laboratory/StructureDefinition/ServiceRequest-eu-lab"
          ]
        },
        "identifier": [
          {
            "system": "http://example.org",
            "value": "dc74b5ba-11f1-4b6c-8559-1b23fa9c1ad6"
          }
        ],
        "specimen": [
          {
            "reference": "urn:uuid:b8fe2272-59f9-4d36-8d68-63e8ad790779"
          }
        ],
        "status": "active",
        "intent": "order",
        "code": {
          "coding": [
            {
              "code": "108252007",
              "system": "http://snomed.info/sct",
              "display": "Laboratory procedure"
            }
          ]
        },
        "subject": {
          "reference": "urn:uuid:8549f10d-98ab-45ba-a810-6a631eb5d8ec",
          "display": "Hynek Kubíčková"
        },
        "requester": {
          "reference": "urn:uuid:12f620d9-4687-4a51-bbb1-0b284b6cc689"
        }
      }
    },
    {
      "fullUrl": "urn:uuid:12f620d9-4687-4a51-bbb1-0b284b6cc689",
      "resource": {
        "resourceType": "PractitionerRole",
        "id": "12f620d9-4687-4a51-bbb1-0b284b6cc689",
        "meta": {
          "profile": [
            "http://hl7.eu/fhir/base/StructureDefinition/practitionerRole-eu"
          ]
        },
        "text": {
          "status": "generated",
          "div": "<div xmlns=\"http://www.w3.org/1999/xhtml\">Provider Role Id: 12f620d9-4687-4a51-bbb1-0b284b6cc689</div>"
        },
        "organization": {
          "reference": "urn:uuid:024b5dad-66f6-49ce-b6ae-04f8b23cc5d6"
        }
      }
    },
    {
      "fullUrl": "urn:uuid:024b5dad-66f6-49ce-b6ae-04f8b23cc5d6",
      "resource": {
        "resourceType": "Organization",
        "id": "024b5dad-66f6-49ce-b6ae-04f8b23cc5d6",
        "meta": {
          "profile": [
            "http://hl7.eu/fhir/base/StructureDefinition/organization-eu"
          ]
        },
        "identifier": [
          {
            "assigner": {
              "display": "HL7 Europe"
            },
            "system": "urn:oid:2.16.840.1.113883.2.51.999",
            "value": "b2c18c2f-4f1f-4fc7-8683-3ce0f99b6156"
          }
        ],
        "address": [
          {
            "city": "Čeladná",
            "postalCode": "739 12",
            "country": "Czechia"
          }
        ],
        "text": {
          "status": "generated",
          "div": "<div xmlns=\"http://www.w3.org/1999/xhtml\">Provider Organization: Beskydské rehabilitační centrum</div>"
        },
        "name": "Beskydské rehabilitační centrum"
      }
    },
    {
      "fullUrl": "urn:uuid:b8fe2272-59f9-4d36-8d68-63e8ad790779",
      "resource": {
        "resourceType": "Specimen",
        "id": "b8fe2272-59f9-4d36-8d68-63e8ad790779",
        "meta": {
          "profile": [
            "http://hl7.eu/fhir/laboratory/StructureDefinition/Specimen-eu-lab"
          ]
        },
        "collection": {
          "collectedDateTime": "2022-10-06"
        },
        "text": {
          "status": "generated",
          "div": "<div xmlns=\"http://www.w3.org/1999/xhtml\"><table class=\"hl7__eu__lab__report\"><tr><th>Specimen</th><th>Collection Date</th></tr><tr><td>Whole blood specimen (specimen)</td><td><span class=\"nb\">06-Oct-2022</span></td></tr></table></div>"
        },
        "type": {
          "coding": [
            {
              "code": "258580003",
              "system": "http://snomed.info/sct",
              "display": "Whole blood specimen (specimen)"
            }
          ]
        }
      }
    },
    {
      "fullUrl": "urn:uuid:b8fe2272-59f9-4d36-8d68-63e8ad790779",
      "resource": {
        "resourceType": "Specimen",
        "id": "b8fe2272-59f9-4d36-8d68-63e8ad790779",
        "meta": {
          "profile": [
            "http://hl7.eu/fhir/laboratory/StructureDefinition/Specimen-eu-lab"
          ]
        },
        "collection": {
          "collectedDateTime": "2022-10-06"
        },
        "text": {
          "status": "generated",
          "div": "<div xmlns=\"http://www.w3.org/1999/xhtml\"><table class=\"hl7__eu__lab__report\"><tr><th>Specimen</th><th>Collection Date</th></tr><tr><td>Whole blood specimen (specimen)</td><td><span class=\"nb\">06-Oct-2022</span></td></tr></table></div>"
        },
        "type": {
          "coding": [
            {
              "code": "258580003",
              "system": "http://snomed.info/sct",
              "display": "Whole blood specimen (specimen)"
            }
          ]
        }
      }
    },
    {
      "fullUrl": "urn:uuid:fe0e52df-cdd3-47bc-9bca-8b3aa2f37f42",
      "resource": {
        "resourceType": "Observation",
        "id": "fe0e52df-cdd3-47bc-9bca-8b3aa2f37f42",
        "meta": {
          "profile": [
            "http://hl7.eu/fhir/laboratory/StructureDefinition/Observation-resultslab-eu-lab"
          ]
        },
        "performer": [
          {
            "display": "The Central European Lab"
          }
        ],
        "category": [
          {
            "coding": [
              {
                "system": "http://terminology.hl7.org/CodeSystem/observation-category",
                "code": "laboratory"
              }
            ]
          }
        ],
        "code": {
          "coding": [
            {
              "code": "6690-2",
              "system": "http://loinc.org",
              "display": "Leukocytes [#/volume] in Blood by Automated count"
            }
          ],
          "text": "Leukocytes [#/volume] in Blood by Automated count"
        },
        "valueQuantity": {
          "system": "http://unitsofmeasure.org",
          "value": 8.2,
          "unit": "10*3/uL",
          "code": "10*3/uL"
        },
        "referenceRange": [
          {
            "low": {
              "value": 3.5,
              "code": "10*3/uL",
              "system": "http://unitsofmeasure.org"
            }
          },
          {
            "high": {
              "value": 10.5,
              "code": "10*3/uL",
              "system": "http://unitsofmeasure.org"
            }
          }
        ],
        "text": {
          "status": "generated",
          "div": "<div xmlns=\"http://www.w3.org/1999/xhtml\"><table class=\"hl7__eu__lab__report\"><tr><th>Test</th><th>06-Oct-2022</th><th>Reference&#xA0;Range</th><th>Unit</th></tr><tr><td>Leukocytes [#/volume] in Blood by Automated count</td><td>8.2</td><td>3.5 - 10.5</td><td></td><td>10*3/uL</td></tr></table></div>"
        },
        "status": "final",
        "subject": {
          "reference": "urn:uuid:8549f10d-98ab-45ba-a810-6a631eb5d8ec",
          "display": "Hynek Kubíčková"
        },
        "effectiveDateTime": "2022-10-06T12:02:45Z",
        "specimen": {
          "reference": "urn:uuid:b8fe2272-59f9-4d36-8d68-63e8ad790779"
        }
      }
    },
    {
      "fullUrl": "urn:uuid:d5958098-16b0-43e4-83a9-d632105a15d2",
      "resource": {
        "resourceType": "Observation",
        "id": "d5958098-16b0-43e4-83a9-d632105a15d2",
        "meta": {
          "profile": [
            "http://hl7.eu/fhir/laboratory/StructureDefinition/Observation-resultslab-eu-lab"
          ]
        },
        "performer": [
          {
            "display": "The Central European Lab"
          }
        ],
        "category": [
          {
            "coding": [
              {
                "system": "http://terminology.hl7.org/CodeSystem/observation-category",
                "code": "laboratory"
              }
            ]
          }
        ],
        "code": {
          "coding": [
            {
              "code": "789-8",
              "system": "http://loinc.org",
              "display": "Erythrocytes [#/volume] in Blood by Automated count"
            }
          ],
          "text": "Erythrocytes [#/volume] in Blood by Automated count"
        },
        "valueQuantity": {
          "system": "http://unitsofmeasure.org",
          "value": 4,
          "unit": "10*6/uL",
          "code": "10*6/uL"
        },
        "referenceRange": [
          {
            "low": {
              "value": 4.5,
              "code": "10*6/uL",
              "system": "http://unitsofmeasure.org"
            }
          },
          {
            "high": {
              "value": 6.2,
              "code": "10*6/uL",
              "system": "http://unitsofmeasure.org"
            }
          }
        ],
        "interpretation": [
          {
            "coding": [
              {
                "code": "L",
                "system": "http://terminology.hl7.org/CodeSystem/v3-ObservationInterpretation",
                "display": "Low"
              }
            ]
          }
        ],
        "text": {
          "status": "generated",
          "div": "<div xmlns=\"http://www.w3.org/1999/xhtml\"><table class=\"hl7__eu__lab__report\"><tr><th>Test</th><th>06-Oct-2022</th><th>Reference&#xA0;Range</th><th>Unit</th></tr><tr><td>Erythrocytes [#/volume] in Blood by Automated count</td><td>4.0</td><td>4.5 - 6.2</td><td>L</td><td>10*6/uL</td></tr></table></div>"
        },
        "status": "final",
        "subject": {
          "reference": "urn:uuid:8549f10d-98ab-45ba-a810-6a631eb5d8ec",
          "display": "Hynek Kubíčková"
        },
        "effectiveDateTime": "2022-10-06T12:02:45Z",
        "specimen": {
          "reference": "urn:uuid:b8fe2272-59f9-4d36-8d68-63e8ad790779"
        }
      }
    },
    {
      "fullUrl": "urn:uuid:de640bdf-f470-4aa6-a78c-4944f0503f09",
      "resource": {
        "resourceType": "Observation",
        "id": "de640bdf-f470-4aa6-a78c-4944f0503f09",
        "meta": {
          "profile": [
            "http://hl7.eu/fhir/laboratory/StructureDefinition/Observation-resultslab-eu-lab"
          ]
        },
        "performer": [
          {
            "display": "The Central European Lab"
          }
        ],
        "category": [
          {
            "coding": [
              {
                "system": "http://terminology.hl7.org/CodeSystem/observation-category",
                "code": "laboratory"
              }
            ]
          }
        ],
        "code": {
          "coding": [
            {
              "code": "718-7",
              "system": "http://loinc.org",
              "display": "Hemoglobin [Mass/volume] in Blood"
            }
          ],
          "text": "Hemoglobin [Mass/volume] in Blood"
        },
        "valueQuantity": {
          "system": "http://unitsofmeasure.org",
          "value": 16,
          "unit": "g/dL",
          "code": "g/dL"
        },
        "referenceRange": [
          {
            "low": {
              "value": 14,
              "code": "g/dL",
              "system": "http://unitsofmeasure.org"
            }
          },
          {
            "high": {
              "value": 18,
              "code": "g/dL",
              "system": "http://unitsofmeasure.org"
            }
          }
        ],
        "text": {
          "status": "generated",
          "div": "<div xmlns=\"http://www.w3.org/1999/xhtml\"><table class=\"hl7__eu__lab__report\"><tr><th>Test</th><th>06-Oct-2022</th><th>Reference&#xA0;Range</th><th>Unit</th></tr><tr><td>Hemoglobin [Mass/volume] in Blood</td><td>16.0</td><td>14 - 18</td><td></td><td>g/dL</td></tr></table></div>"
        },
        "status": "final",
        "subject": {
          "reference": "urn:uuid:8549f10d-98ab-45ba-a810-6a631eb5d8ec",
          "display": "Hynek Kubíčková"
        },
        "effectiveDateTime": "2022-10-06T12:02:45Z",
        "specimen": {
          "reference": "urn:uuid:b8fe2272-59f9-4d36-8d68-63e8ad790779"
        }
      }
    },
    {
      "fullUrl": "urn:uuid:f6c937e3-b9be-4eee-8ee7-d73f593ecb3f",
      "resource": {
        "resourceType": "Observation",
        "id": "f6c937e3-b9be-4eee-8ee7-d73f593ecb3f",
        "meta": {
          "profile": [
            "http://hl7.eu/fhir/laboratory/StructureDefinition/Observation-resultslab-eu-lab"
          ]
        },
        "performer": [
          {
            "display": "The Central European Lab"
          }
        ],
        "category": [
          {
            "coding": [
              {
                "system": "http://terminology.hl7.org/CodeSystem/observation-category",
                "code": "laboratory"
              }
            ]
          }
        ],
        "code": {
          "coding": [
            {
              "code": "4544-3",
              "system": "http://loinc.org",
              "display": "Hematocrit [Volume Fraction] of Blood by Automated count"
            }
          ],
          "text": "Hematocrit [Volume Fraction] of Blood by Automated count"
        },
        "valueQuantity": {
          "system": "http://unitsofmeasure.org",
          "value": 48.7,
          "unit": "%",
          "code": "%"
        },
        "referenceRange": [
          {
            "low": {
              "value": 38,
              "code": "%",
              "system": "http://unitsofmeasure.org"
            }
          },
          {
            "high": {
              "value": 52,
              "code": "%",
              "system": "http://unitsofmeasure.org"
            }
          }
        ],
        "text": {
          "status": "generated",
          "div": "<div xmlns=\"http://www.w3.org/1999/xhtml\"><table class=\"hl7__eu__lab__report\"><tr><th>Test</th><th>06-Oct-2022</th><th>Reference&#xA0;Range</th><th>Unit</th></tr><tr><td>Hematocrit [Volume Fraction] of Blood by Automated count</td><td>48.7</td><td>38 - 52</td><td></td><td>%</td></tr></table></div>"
        },
        "status": "final",
        "subject": {
          "reference": "urn:uuid:8549f10d-98ab-45ba-a810-6a631eb5d8ec",
          "display": "Hynek Kubíčková"
        },
        "effectiveDateTime": "2022-10-06T12:02:45Z",
        "specimen": {
          "reference": "urn:uuid:b8fe2272-59f9-4d36-8d68-63e8ad790779"
        }
      }
    },
    {
      "fullUrl": "urn:uuid:e5022567-cdc3-4ffd-b650-d5eaa3ca7105",
      "resource": {
        "resourceType": "Observation",
        "id": "e5022567-cdc3-4ffd-b650-d5eaa3ca7105",
        "meta": {
          "profile": [
            "http://hl7.eu/fhir/laboratory/StructureDefinition/Observation-resultslab-eu-lab"
          ]
        },
        "performer": [
          {
            "display": "The Central European Lab"
          }
        ],
        "category": [
          {
            "coding": [
              {
                "system": "http://terminology.hl7.org/CodeSystem/observation-category",
                "code": "laboratory"
              }
            ]
          }
        ],
        "code": {
          "coding": [
            {
              "code": "787-2",
              "system": "http://loinc.org",
              "display": "MCV [Entitic volume] by Automated count"
            }
          ],
          "text": "MCV [Entitic volume] by Automated count"
        },
        "valueQuantity": {
          "system": "http://unitsofmeasure.org",
          "value": 86.5,
          "unit": "fL",
          "code": "fL"
        },
        "referenceRange": [
          {
            "low": {
              "value": 80,
              "code": "fL",
              "system": "http://unitsofmeasure.org"
            }
          },
          {
            "high": {
              "value": 98,
              "code": "fL",
              "system": "http://unitsofmeasure.org"
            }
          }
        ],
        "text": {
          "status": "generated",
          "div": "<div xmlns=\"http://www.w3.org/1999/xhtml\"><table class=\"hl7__eu__lab__report\"><tr><th>Test</th><th>06-Oct-2022</th><th>Reference&#xA0;Range</th><th>Unit</th></tr><tr><td>MCV [Entitic volume] by Automated count</td><td>86.5</td><td>80 - 98</td><td></td><td>fL</td></tr></table></div>"
        },
        "status": "final",
        "subject": {
          "reference": "urn:uuid:8549f10d-98ab-45ba-a810-6a631eb5d8ec",
          "display": "Hynek Kubíčková"
        },
        "effectiveDateTime": "2022-10-06T12:02:45Z",
        "specimen": {
          "reference": "urn:uuid:b8fe2272-59f9-4d36-8d68-63e8ad790779"
        }
      }
    },
    {
      "fullUrl": "urn:uuid:537a334f-96ea-4b22-979e-3c910dbbdba3",
      "resource": {
        "resourceType": "Observation",
        "id": "537a334f-96ea-4b22-979e-3c910dbbdba3",
        "meta": {
          "profile": [
            "http://hl7.eu/fhir/laboratory/StructureDefinition/Observation-resultslab-eu-lab"
          ]
        },
        "performer": [
          {
            "display": "The Central European Lab"
          }
        ],
        "category": [
          {
            "coding": [
              {
                "system": "http://terminology.hl7.org/CodeSystem/observation-category",
                "code": "laboratory"
              }
            ]
          }
        ],
        "code": {
          "coding": [
            {
              "code": "785-6",
              "system": "http://loinc.org",
              "display": "MCH [Entitic mass] by Automated count"
            }
          ],
          "text": "MCH [Entitic mass] by Automated count"
        },
        "valueQuantity": {
          "system": "http://unitsofmeasure.org",
          "value": 29.8,
          "unit": "pg",
          "code": "pg"
        },
        "referenceRange": [
          {
            "low": {
              "value": 27,
              "code": "pg",
              "system": "http://unitsofmeasure.org"
            }
          },
          {
            "high": {
              "value": 33,
              "code": "pg",
              "system": "http://unitsofmeasure.org"
            }
          }
        ],
        "text": {
          "status": "generated",
          "div": "<div xmlns=\"http://www.w3.org/1999/xhtml\"><table class=\"hl7__eu__lab__report\"><tr><th>Test</th><th>06-Oct-2022</th><th>Reference&#xA0;Range</th><th>Unit</th></tr><tr><td>MCH [Entitic mass] by Automated count</td><td>29.8</td><td>27 - 33</td><td></td><td>pg</td></tr></table></div>"
        },
        "status": "final",
        "subject": {
          "reference": "urn:uuid:8549f10d-98ab-45ba-a810-6a631eb5d8ec",
          "display": "Hynek Kubíčková"
        },
        "effectiveDateTime": "2022-10-06T12:02:45Z",
        "specimen": {
          "reference": "urn:uuid:b8fe2272-59f9-4d36-8d68-63e8ad790779"
        }
      }
    },
    {
      "fullUrl": "urn:uuid:4ac2124a-c34e-409f-a588-efbf7bce2ad9",
      "resource": {
        "resourceType": "Observation",
        "id": "4ac2124a-c34e-409f-a588-efbf7bce2ad9",
        "meta": {
          "profile": [
            "http://hl7.eu/fhir/laboratory/StructureDefinition/Observation-resultslab-eu-lab"
          ]
        },
        "performer": [
          {
            "display": "The Central European Lab"
          }
        ],
        "category": [
          {
            "coding": [
              {
                "system": "http://terminology.hl7.org/CodeSystem/observation-category",
                "code": "laboratory"
              }
            ]
          }
        ],
        "code": {
          "coding": [
            {
              "code": "786-4",
              "system": "http://loinc.org",
              "display": "MCHC [Mass/volume] by Automated count"
            }
          ],
          "text": "MCHC [Mass/volume] by Automated count"
        },
        "valueQuantity": {
          "system": "http://unitsofmeasure.org",
          "value": 33.8,
          "unit": "g/dL",
          "code": "g/dL"
        },
        "referenceRange": [
          {
            "low": {
              "value": 32,
              "code": "g/dL",
              "system": "http://unitsofmeasure.org"
            }
          },
          {
            "high": {
              "value": 36,
              "code": "g/dL",
              "system": "http://unitsofmeasure.org"
            }
          }
        ],
        "text": {
          "status": "generated",
          "div": "<div xmlns=\"http://www.w3.org/1999/xhtml\"><table class=\"hl7__eu__lab__report\"><tr><th>Test</th><th>06-Oct-2022</th><th>Reference&#xA0;Range</th><th>Unit</th></tr><tr><td>MCHC [Mass/volume] by Automated count</td><td>33.8</td><td>32 - 36</td><td></td><td>g/dL</td></tr></table></div>"
        },
        "status": "final",
        "subject": {
          "reference": "urn:uuid:8549f10d-98ab-45ba-a810-6a631eb5d8ec",
          "display": "Hynek Kubíčková"
        },
        "effectiveDateTime": "2022-10-06T12:02:45Z",
        "specimen": {
          "reference": "urn:uuid:b8fe2272-59f9-4d36-8d68-63e8ad790779"
        }
      }
    },
    {
      "fullUrl": "urn:uuid:6ed37bef-d6a0-4c23-976e-a5a108a1a4bf",
      "resource": {
        "resourceType": "Observation",
        "id": "6ed37bef-d6a0-4c23-976e-a5a108a1a4bf",
        "meta": {
          "profile": [
            "http://hl7.eu/fhir/laboratory/StructureDefinition/Observation-resultslab-eu-lab"
          ]
        },
        "performer": [
          {
            "display": "The Central European Lab"
          }
        ],
        "category": [
          {
            "coding": [
              {
                "system": "http://terminology.hl7.org/CodeSystem/observation-category",
                "code": "laboratory"
              }
            ]
          }
        ],
        "code": {
          "coding": [
            {
              "code": "21000-5",
              "system": "http://loinc.org",
              "display": "Erythrocyte distribution width [Entitic volume] by Automated count"
            }
          ],
          "text": "Erythrocyte distribution width [Entitic volume] by Automated count"
        },
        "valueQuantity": {
          "system": "http://unitsofmeasure.org",
          "value": 45.7,
          "unit": "fL",
          "code": "fL"
        },
        "referenceRange": [
          {
            "low": {
              "value": 36,
              "code": "fL",
              "system": "http://unitsofmeasure.org"
            }
          },
          {
            "high": {
              "value": 55,
              "code": "fL",
              "system": "http://unitsofmeasure.org"
            }
          }
        ],
        "text": {
          "status": "generated",
          "div": "<div xmlns=\"http://www.w3.org/1999/xhtml\"><table class=\"hl7__eu__lab__report\"><tr><th>Test</th><th>06-Oct-2022</th><th>Reference&#xA0;Range</th><th>Unit</th></tr><tr><td>Erythrocyte distribution width [Entitic volume] by Automated count</td><td>45.7</td><td>36 - 55</td><td></td><td>fL</td></tr></table></div>"
        },
        "status": "final",
        "subject": {
          "reference": "urn:uuid:8549f10d-98ab-45ba-a810-6a631eb5d8ec",
          "display": "Hynek Kubíčková"
        },
        "effectiveDateTime": "2022-10-06T12:02:45Z",
        "specimen": {
          "reference": "urn:uuid:b8fe2272-59f9-4d36-8d68-63e8ad790779"
        }
      }
    },
    {
      "fullUrl": "urn:uuid:3c7d372f-4708-4551-801d-8ead1592ecf6",
      "resource": {
        "resourceType": "Observation",
        "id": "3c7d372f-4708-4551-801d-8ead1592ecf6",
        "meta": {
          "profile": [
            "http://hl7.eu/fhir/laboratory/StructureDefinition/Observation-resultslab-eu-lab"
          ]
        },
        "performer": [
          {
            "display": "The Central European Lab"
          }
        ],
        "category": [
          {
            "coding": [
              {
                "system": "http://terminology.hl7.org/CodeSystem/observation-category",
                "code": "laboratory"
              }
            ]
          }
        ],
        "code": {
          "coding": [
            {
              "code": "777-3",
              "system": "http://loinc.org",
              "display": "Platelets [#/volume] in Blood by Automated count"
            }
          ],
          "text": "Platelets [#/volume] in Blood by Automated count"
        },
        "valueQuantity": {
          "system": "http://unitsofmeasure.org",
          "value": 251.7,
          "unit": "10*3/uL",
          "code": "10*3/uL"
        },
        "referenceRange": [
          {
            "low": {
              "value": 150,
              "code": "10*3/uL",
              "system": "http://unitsofmeasure.org"
            }
          },
          {
            "high": {
              "value": 350,
              "code": "10*3/uL",
              "system": "http://unitsofmeasure.org"
            }
          }
        ],
        "text": {
          "status": "generated",
          "div": "<div xmlns=\"http://www.w3.org/1999/xhtml\"><table class=\"hl7__eu__lab__report\"><tr><th>Test</th><th>06-Oct-2022</th><th>Reference&#xA0;Range</th><th>Unit</th></tr><tr><td>Platelets [#/volume] in Blood by Automated count</td><td>251.7</td><td>150 - 350</td><td></td><td>10*3/uL</td></tr></table></div>"
        },
        "status": "final",
        "subject": {
          "reference": "urn:uuid:8549f10d-98ab-45ba-a810-6a631eb5d8ec",
          "display": "Hynek Kubíčková"
        },
        "effectiveDateTime": "2022-10-06T12:02:45Z",
        "specimen": {
          "reference": "urn:uuid:b8fe2272-59f9-4d36-8d68-63e8ad790779"
        }
      }
    },
    {
      "fullUrl": "urn:uuid:715e5cf9-d54e-46aa-9625-2c34f969d12c",
      "resource": {
        "resourceType": "Observation",
        "id": "715e5cf9-d54e-46aa-9625-2c34f969d12c",
        "meta": {
          "profile": [
            "http://hl7.eu/fhir/laboratory/StructureDefinition/Observation-resultslab-eu-lab"
          ]
        },
        "performer": [
          {
            "display": "The Central European Lab"
          }
        ],
        "category": [
          {
            "coding": [
              {
                "system": "http://terminology.hl7.org/CodeSystem/observation-category",
                "code": "laboratory"
              }
            ]
          }
        ],
        "code": {
          "coding": [
            {
              "code": "32207-3",
              "system": "http://loinc.org",
              "display": "Platelet distribution width [Entitic volume] in Blood by Automated count"
            }
          ],
          "text": "Platelet distribution width [Entitic volume] in Blood by Automated count"
        },
        "valueQuantity": {
          "system": "http://unitsofmeasure.org",
          "value": 377.3,
          "unit": "fL",
          "code": "fL"
        },
        "referenceRange": [
          {
            "low": {
              "value": 150,
              "code": "fL",
              "system": "http://unitsofmeasure.org"
            }
          },
          {
            "high": {
              "value": 450,
              "code": "fL",
              "system": "http://unitsofmeasure.org"
            }
          }
        ],
        "text": {
          "status": "generated",
          "div": "<div xmlns=\"http://www.w3.org/1999/xhtml\"><table class=\"hl7__eu__lab__report\"><tr><th>Test</th><th>06-Oct-2022</th><th>Reference&#xA0;Range</th><th>Unit</th></tr><tr><td>Platelet distribution width [Entitic volume] in Blood by Automated count</td><td>377.3</td><td>150 - 450</td><td></td><td>fL</td></tr></table></div>"
        },
        "status": "final",
        "subject": {
          "reference": "urn:uuid:8549f10d-98ab-45ba-a810-6a631eb5d8ec",
          "display": "Hynek Kubíčková"
        },
        "effectiveDateTime": "2022-10-06T12:02:45Z",
        "specimen": {
          "reference": "urn:uuid:b8fe2272-59f9-4d36-8d68-63e8ad790779"
        }
      }
    },
    {
      "fullUrl": "urn:uuid:cd6b35b9-b43a-4667-bf05-becce8485f13",
      "resource": {
        "resourceType": "Observation",
        "id": "cd6b35b9-b43a-4667-bf05-becce8485f13",
        "meta": {
          "profile": [
            "http://hl7.eu/fhir/laboratory/StructureDefinition/Observation-resultslab-eu-lab"
          ]
        },
        "performer": [
          {
            "display": "The Central European Lab"
          }
        ],
        "category": [
          {
            "coding": [
              {
                "system": "http://terminology.hl7.org/CodeSystem/observation-category",
                "code": "laboratory"
              }
            ]
          }
        ],
        "code": {
          "coding": [
            {
              "code": "32623-1",
              "system": "http://loinc.org",
              "display": "Platelet mean volume [Entitic volume] in Blood by Automated count"
            }
          ],
          "text": "Platelet mean volume [Entitic volume] in Blood by Automated count"
        },
        "valueQuantity": {
          "system": "http://unitsofmeasure.org",
          "value": 11.8,
          "unit": "fL",
          "code": "fL"
        },
        "referenceRange": [
          {
            "low": {
              "value": 9.8,
              "code": "fL",
              "system": "http://unitsofmeasure.org"
            }
          },
          {
            "high": {
              "value": 13.8,
              "code": "fL",
              "system": "http://unitsofmeasure.org"
            }
          }
        ],
        "text": {
          "status": "generated",
          "div": "<div xmlns=\"http://www.w3.org/1999/xhtml\"><table class=\"hl7__eu__lab__report\"><tr><th>Test</th><th>06-Oct-2022</th><th>Reference&#xA0;Range</th><th>Unit</th></tr><tr><td>Platelet mean volume [Entitic volume] in Blood by Automated count</td><td>11.8</td><td>9.8 - 13.8</td><td></td><td>fL</td></tr></table></div>"
        },
        "status": "final",
        "subject": {
          "reference": "urn:uuid:8549f10d-98ab-45ba-a810-6a631eb5d8ec",
          "display": "Hynek Kubíčková"
        },
        "effectiveDateTime": "2022-10-06T12:02:45Z",
        "specimen": {
          "reference": "urn:uuid:b8fe2272-59f9-4d36-8d68-63e8ad790779"
        }
      }
    },
    {
      "fullUrl": "urn:uuid:932cb8fb-ed35-4243-8fbe-13fe589db54f",
      "resource": {
        "resourceType": "Device",
        "id": "932cb8fb-ed35-4243-8fbe-13fe589db54f",
        "deviceName": [
          {
            "name": "SYNDERAI Synthetic Generator",
            "type": "manufacturer-name"
          }
        ],
        "version": [
          {
            "value": "5.0"
          }
        ],
        "text": {
          "status": "generated",
          "div": "<div xmlns=\"http://www.w3.org/1999/xhtml\">SYNDERAI Synthetic Generator v5.0</div>"
        },
        "status": "active\"",
        "distinctIdentifier": "synderai-generator-50",
        "manufacturer": "SYNDERAI Project"
      }
    },
    {
      "fullUrl": "urn:uuid:62f88d80-f431-4917-8c6d-175ddd576639",
      "resource": {
        "resourceType": "Provenance",
        "id": "62f88d80-f431-4917-8c6d-175ddd576639",
        "target": [
          {
            "reference": "Patient/8549f10d-98ab-45ba-a810-6a631eb5d8ec"
          },
          {
            "reference": "Bundle/0c9ccf6e-1efe-4201-b965-006e2a7f683b"
          },
          {
            "reference": "Composition/937909c1-3605-40b8-a72f-558d6b961929"
          },
          {
            "reference": "PractitionerRole/fd952907-7f9c-484e-91a5-2954d852113f"
          },
          {
            "reference": "Practitioner/51836f49-7a75-4cb7-8a75-2472b5d83271"
          },
          {
            "reference": "PractitionerRole/12f620d9-4687-4a51-bbb1-0b284b6cc689"
          },
          {
            "reference": "Organization/024b5dad-66f6-49ce-b6ae-04f8b23cc5d6"
          }
        ],
        "activity": {
          "text": "Synthetic Example Data Generation"
        },
        "policy": [
          "https://synderai.net/synderai-synthetic-data-policy"
        ],
        "agent": [
          {
            "type": {
              "text": "author"
            },
            "who": {
              "reference": "Device/932cb8fb-ed35-4243-8fbe-13fe589db54f"
            }
          }
        ],
        "reason": [
          {
            "text": "Interoperability Testing and Training (non-clinical use)"
          }
        ],
        "text": {
          "status": "generated",
          "div": "<div xmlns=\"http://www.w3.org/1999/xhtml\">Provenance for SYNDERAI Synthetic Example Data Resource</div>"
        },
        "recorded": "2022-10-06T14:02:45Z"
      }
    },
    {
      "fullUrl": "urn:uuid:fd952907-7f9c-484e-91a5-2954d852113f",
      "resource": {
        "resourceType": "PractitionerRole",
        "id": "fd952907-7f9c-484e-91a5-2954d852113f",
        "meta": {
          "profile": [
            "http://hl7.eu/fhir/base/StructureDefinition/practitionerRole-eu"
          ]
        },
        "text": {
          "status": "generated",
          "div": "<div xmlns=\"http://www.w3.org/1999/xhtml\">Laboratory Role Id: fd952907-7f9c-484e-91a5-2954d852113f</div>"
        },
        "practitioner": {
          "reference": "urn:uuid:51836f49-7a75-4cb7-8a75-2472b5d83271"
        }
      }
    },
    {
      "fullUrl": "urn:uuid:51836f49-7a75-4cb7-8a75-2472b5d83271",
      "resource": {
        "resourceType": "Practitioner",
        "id": "51836f49-7a75-4cb7-8a75-2472b5d83271",
        "meta": {
          "profile": [
            "http://hl7.eu/fhir/base/StructureDefinition/practitioner-eu"
          ]
        },
        "identifier": [
          {
            "assigner": {
              "display": "HL7 Europe"
            },
            "system": "urn:oid:2.16.840.1.113883.2.51.999",
            "value": "53311691-8a5e-4c08-8c7b-b7dcfcb3c813"
          }
        ],
        "name": [
          {
            "prefix": [
              "dr"
            ],
            "given": [
              "Ex"
            ],
            "family": "Ample"
          }
        ],
        "address": [
          {
            "line": [
              "Laboratoire Central Européenne",
              "Boulevard du Jardin Botanique 32"
            ],
            "postalCode": "1000",
            "city": "Brussels",
            "country": "Belgium"
          }
        ],
        "text": {
          "status": "generated",
          "div": "<div xmlns=\"http://www.w3.org/1999/xhtml\">Laboratory: Laboratoire Central Européenne, 1000 Brussels, Belgium</div>"
        }
      }
    }
  ],
  "type": "document",
  "timestamp": "2022-10-06T14:02:45Z"
}
