{
  "resourceType": "Bundle",
  "id": "31fe3c9c-458b-4f64-8d0b-8d8b42c12bb1",
  "meta": {
    "profile": [
      "http://hl7.eu/fhir/laboratory/StructureDefinition/Bundle-eu-lab"
    ]
  },
  "identifier": {
    "assigner": {
      "display": "HL7 Europe"
    },
    "system": "urn:oid:2.16.840.1.113883.2.51.999",
    "value": "fbc919fc-de6a-4fe0-9db7-1a35c2bf38aa"
  },
  "entry": [
    {
      "fullUrl": "urn:uuid:c8ce1a25-e35d-4849-a351-b1d170808721",
      "resource": {
        "resourceType": "Composition",
        "id": "c8ce1a25-e35d-4849-a351-b1d170808721",
        "meta": {
          "profile": [
            "http://hl7.eu/fhir/laboratory/StructureDefinition/Composition-eu-lab"
          ]
        },
        "identifier": {
          "assigner": {
            "display": "HL7 Europe"
          },
          "system": "urn:oid:2.16.840.1.113883.2.51.999",
          "value": "2f169286-c4b0-4d54-9174-7bf00a3af192"
        },
        "author": [
          {
            "reference": "urn:uuid:efbbfcbe-1a7d-482a-91c9-105534b760cf"
          }
        ],
        "category": [
          {
            "coding": [
              {
                "code": "26436-6",
                "system": "http://loinc.org",
                "display": "Laboratory studies (set)"
              }
            ]
          }
        ],
        "type": {
          "coding": [
            {
              "code": "11502-2",
              "system": "http://loinc.org",
              "display": "Laboratory report"
            }
          ],
          "text": "Laboratory Report"
        },
        "section": [
          {
            "code": {
              "coding": [
                {
                  "code": "26436-6",
                  "system": "http://loinc.org",
                  "display": "Laboratory studies (set)"
                }
              ],
              "text": "Laboratory studies"
            },
            "section": [
              {
                "code": {
                  "coding": [
                    {
                      "code": "$18719-5",
                      "system": "http://loinc.org",
                      "display": "Chemistry studies (set)"
                    }
                  ],
                  "text": "Chemistry"
                },
                "entry": [
                  {
                    "reference": "urn:uuid:8e0a3954-4d7c-4aaf-b31e-6d1485c06378"
                  },
                  {
                    "reference": "urn:uuid:29204326-5bad-4d98-a3fc-2332bbb214af"
                  },
                  {
                    "reference": "urn:uuid:3a9dd0cb-1832-42b6-9b50-5853a4beb8e4"
                  },
                  {
                    "reference": "urn:uuid:be11430d-f838-4849-bd99-dfab5fe28b96"
                  },
                  {
                    "reference": "urn:uuid:56c5899c-6e35-44f7-91cb-9b6592dc1d7f"
                  },
                  {
                    "reference": "urn:uuid:459f0ec5-3982-4799-90e1-df3f594b58cd"
                  },
                  {
                    "reference": "urn:uuid:0bbf0fd9-81de-4131-aa63-6468bac885b1"
                  },
                  {
                    "reference": "urn:uuid:bbdaa3d5-673e-4f2e-9526-d3832fe07c67"
                  },
                  {
                    "reference": "urn:uuid:3d783329-c93b-45f7-88a0-b574a3bcd3a6"
                  },
                  {
                    "reference": "urn:uuid:422bdcad-3087-426b-914d-f8fb9a573cd0"
                  },
                  {
                    "reference": "urn:uuid:772ecf27-baa2-421f-b61c-63b2c89b7743"
                  },
                  {
                    "reference": "urn:uuid:7e269f47-9d7f-4fa2-a611-4acd79fa0b41"
                  },
                  {
                    "reference": "urn:uuid:a1fbd6a4-535b-4c91-a197-1c1558fea530"
                  },
                  {
                    "reference": "urn:uuid:b4e3777b-70b9-4441-b1dc-98ffc6b41e4b"
                  },
                  {
                    "reference": "urn:uuid:3b5eead2-4015-4cfb-9f92-8868578d803e"
                  },
                  {
                    "reference": "urn:uuid:f7502f32-9684-4ec8-bf6d-ebb80fd2bcd0"
                  },
                  {
                    "reference": "urn:uuid:cf991611-95cb-4cc4-bb9f-aa3830c90a25"
                  },
                  {
                    "reference": "urn:uuid:466aca9c-116a-496b-bfbb-7e6bb808ae3c"
                  }
                ],
                "text": {
                  "status": "generated",
                  "div": "<div xmlns=\"http://www.w3.org/1999/xhtml\"><h3>Chemistry</h3><table class=\"hl7__eu__lab__report\"><thead><tr><th>Test</th><th>24-OCT-2024</th><th>Reference&#xA0;Range</th><th>Unit</th></tr></thead><tbody><tr><td>Glucose [Mass/volume] in Serum or Plasma</td><td><strong>68.9 L</strong></td><td>70 - 139</td><td>mg/dL</td></tr><tr><td>Urea nitrogen [Mass/volume] in Serum or Plasma</td><td>10.9</td><td>7 - 20</td><td>mg/dL</td></tr><tr><td>Creatinine [Mass/volume] in Serum or Plasma</td><td><strong>1.9 H</strong></td><td>0.6 - 1.1</td><td>mg/dL</td></tr><tr><td>Calcium [Mass/volume] in Serum or Plasma</td><td>9.0</td><td>8.5 - 10.4</td><td>mg/dL</td></tr><tr><td>Sodium [Moles/volume] in Serum or Plasma</td><td>141.4</td><td>135 - 145</td><td>mmol/L</td></tr><tr><td>Potassium [Moles/volume] in Serum or Plasma</td><td>5.1</td><td>3.5 - 5.1</td><td>mmol/L</td></tr><tr><td>Chloride [Moles/volume] in Serum or Plasma</td><td>103.4</td><td>98 - 110</td><td>mmol/L</td></tr><tr><td>Carbon dioxide, total [Moles/volume] in Serum or Plasma</td><td><strong>21.5 L</strong></td><td>22 - 32</td><td>mmol/L</td></tr><tr><td>Ketones [Presence] in Urine by Test strip</td><td>Urine ketone test = +</td><td></td><td></td></tr><tr><td>Hemoglobin A1c/Hemoglobin.total in Blood</td><td><strong>3.2 L</strong></td><td>4 - 6</td><td>%</td></tr><tr><td>Glucose [Mass/volume] in Blood</td><td><strong>68.9 L</strong></td><td>70 - 100</td><td>mg/dL</td></tr><tr><td>Urea nitrogen [Mass/volume] in Blood</td><td>10.9</td><td>7 - 20</td><td>mg/dL</td></tr><tr><td>Creatinine [Mass/volume] in Blood</td><td><strong>1.9 H</strong></td><td>0.6 - 1.3</td><td>mg/dL</td></tr><tr><td>Calcium [Mass/volume] in Blood</td><td>9.0</td><td>8.6 - 10.4</td><td>mg/dL</td></tr><tr><td>Sodium [Moles/volume] in Blood</td><td>141.4</td><td>135 - 145</td><td>mmol/L</td></tr><tr><td>Potassium [Moles/volume] in Blood</td><td>5.1</td><td>3.5 - 5.1</td><td>mmol/L</td></tr><tr><td>Chloride [Moles/volume] in Blood</td><td>103.4</td><td>98 - 110</td><td>mmol/L</td></tr><tr><td>Carbon dioxide, total [Moles/volume] in Blood</td><td><strong>21.5 L</strong></td><td>22 - 29</td><td>mmol/L</td></tr></tbody></table></div>"
                },
                "title": "Chemistry"
              },
              {
                "code": {
                  "coding": [
                    {
                      "code": "$18729-4",
                      "system": "http://loinc.org",
                      "display": "Urinalysis studies (set)"
                    }
                  ],
                  "text": "Urinalysis"
                },
                "entry": [
                  {
                    "reference": "urn:uuid:b627528a-42fa-4ff6-8afa-adde27bd025d"
                  },
                  {
                    "reference": "urn:uuid:5078997c-7c06-42a6-8a54-4f4d1e48af4d"
                  },
                  {
                    "reference": "urn:uuid:4c2c06c7-808b-4ddf-8459-73694c047192"
                  },
                  {
                    "reference": "urn:uuid:bef92a97-7ae6-4907-b1b8-a6edfe4268b7"
                  },
                  {
                    "reference": "urn:uuid:63274b70-c86f-4292-9587-1e9e0dacf945"
                  },
                  {
                    "reference": "urn:uuid:1da5177e-e724-410a-9963-4a0109232968"
                  },
                  {
                    "reference": "urn:uuid:6f647e8f-a231-4888-9bea-a0705e39036a"
                  },
                  {
                    "reference": "urn:uuid:509cc813-b641-4301-ade0-d9cc93c40fe8"
                  },
                  {
                    "reference": "urn:uuid:07883e1a-9e3e-429b-a601-90c538be0fde"
                  },
                  {
                    "reference": "urn:uuid:14e2519b-32f6-4811-9613-dbc24412ea3a"
                  },
                  {
                    "reference": "urn:uuid:6c562fd2-d04d-40ca-8e2e-1fa7e805ef07"
                  },
                  {
                    "reference": "urn:uuid:61113e53-e0ff-4507-bc33-9f52dd683901"
                  }
                ],
                "text": {
                  "status": "generated",
                  "div": "<div xmlns=\"http://www.w3.org/1999/xhtml\"><h3>Urinalysis</h3><table class=\"hl7__eu__lab__report\"><thead><tr><th>Test</th><th>24-OCT-2024</th><th>Reference&#xA0;Range</th><th>Unit</th></tr></thead><tbody><tr><td>Glucose [Mass/volume] in Urine by Test strip</td><td><strong>1.7 H</strong></td><td>0 - 0</td><td>mg/dL</td></tr><tr><td>Glucose [Presence] in Urine by Test strip</td><td>++</td><td></td><td></td></tr><tr><td>Bilirubin.total [Mass/volume] in Urine by Test strip</td><td>0.9</td><td>0 - 1.6</td><td>mg/dL</td></tr><tr><td>Bilirubin.total [Presence] in Urine by Test strip</td><td>Finding of bilirubin in urine</td><td></td><td></td></tr><tr><td>Ketones [Mass/volume] in Urine by Test strip</td><td><strong>7.4 H</strong></td><td>0 - 0.5</td><td>mg/dL</td></tr><tr><td>Specific gravity of Urine by Test strip</td><td><strong>1.0 L</strong></td><td>1.005 - 1.03</td><td>{nominal}</td></tr><tr><td>pH of Urine by Test strip</td><td>5.8</td><td>4.5 - 7.5</td><td>pH</td></tr><tr><td>Protein [Mass/volume] in Urine by Test strip</td><td><strong>259.1 H</strong></td><td>0 - 15</td><td>mg/dL</td></tr><tr><td>Protein [Presence] in Urine by Test strip</td><td>Urine protein test = ++</td><td></td><td></td></tr><tr><td>Nitrite [Presence] in Urine by Test strip</td><td>Urine nitrite negative</td><td></td><td></td></tr><tr><td>Hemoglobin [Presence] in Urine by Test strip</td><td>Urine blood test = negative</td><td></td><td></td></tr><tr><td>Leukocyte esterase [Presence] in Urine by Test strip</td><td>Urine leukocyte test negative</td><td></td><td></td></tr></tbody></table></div>"
                },
                "title": "Urinalysis"
              },
              {
                "code": {
                  "coding": [
                    {
                      "code": "$LP7846-1",
                      "system": "http://loinc.org",
                      "display": "Specimen information"
                    }
                  ],
                  "text": "Specimen information"
                },
                "entry": [
                  {
                    "reference": "urn:uuid:05f75ca7-c10f-4dac-8fed-033820e9b4f0"
                  },
                  {
                    "reference": "urn:uuid:b06ee5f6-b15d-468f-9482-91c3f21efecc"
                  },
                  {
                    "reference": "urn:uuid:9b28e02c-7128-4061-aa41-aa8dd99e3c5b"
                  },
                  {
                    "reference": "urn:uuid:a1313ff4-dd05-4750-ae8b-03c94591e660"
                  }
                ],
                "text": {
                  "status": "generated",
                  "div": "<div xmlns=\"http://www.w3.org/1999/xhtml\"><h3>Specimen information</h3><table class=\"hl7__eu__lab__report\"><thead><tr><th>Test</th><th>24-OCT-2024</th><th>Specimen</th><th></th></tr></thead><tbody><tr><td>Appearance of Urine</td><td>Cloudy urine</td><td>Urine</td><td></td></tr><tr><td>Odor of Urine</td><td>Urine smell ammoniacal</td><td>Urine</td><td></td></tr><tr><td>Clarity of Urine</td><td>Translucent</td><td>Urine</td><td></td></tr><tr><td>Color of Urine</td><td>Brown color</td><td>Urine</td><td></td></tr></tbody></table></div>"
                },
                "title": "Specimen information"
              }
            ],
            "title": "Laboratory Report"
          },
          {
            "text": {
              "status": "generated",
              "div": "<div xmlns=\"http://www.w3.org/1999/xhtml\"><h3>Annotation</h3><table class=\"hl7__eu__lab__report\"><tr><th>Conclusion and Recommendations based on this report and previous findings known to us</th></tr><tr><td>The patient shows evidence of renal dysfunction (elevated creatinine, significant proteinuria), hypoglycemia (low blood glucose and HbA1c), metabolic acidosis (low CO₂), and abnormal urinalysis (glucosuria, ketonuria, proteinuria, low specific gravity, brown cloudy urine). These findings suggest possible acute or chronic kidney disease with glycosuria and ketonuria not explained by hyperglycemia, warranting urgent clinical evaluation for underlying metabolic, renal, or systemic disorders.</td></tr></table></div>"
            },
            "code": {
              "coding": [
                {
                  "system": "http://loinc.org",
                  "code": "48767-8",
                  "display": "Annotation comment"
                }
              ]
            },
            "title": "Annotation comment"
          }
        ],
        "status": "final",
        "subject": {
          "reference": "urn:uuid:dd4e6cbd-946c-4209-ba21-06272ca236fe",
          "display": "Molly Jenkins"
        },
        "date": "2024-10-24T16:42:11Z",
        "title": "Laboratory Report",
        "confidentiality": "N"
      }
    },
    {
      "fullUrl": "urn:uuid:183b4207-9a79-451b-952d-d508a2c29189",
      "resource": {
        "resourceType": "DiagnosticReport",
        "id": "183b4207-9a79-451b-952d-d508a2c29189",
        "meta": {
          "profile": [
            "http://hl7.eu/fhir/laboratory/StructureDefinition/DiagnosticReport-eu-lab"
          ]
        },
        "identifier": [
          {
            "assigner": {
              "display": "HL7 Europe"
            },
            "system": "urn:oid:2.16.840.1.113883.2.51.999",
            "value": "fe319f56-fc24-405a-a7f6-26cd619adcd2"
          }
        ],
        "extension": [
          {
            "url": "http://hl7.org/fhir/5.0/StructureDefinition/extension-DiagnosticReport.composition",
            "valueReference": {
              "reference": "urn:uuid:2f169286-c4b0-4d54-9174-7bf00a3af192"
            }
          }
        ],
        "category": [
          {
            "coding": [
              {
                "code": "26436-6",
                "system": "http://loinc.org",
                "display": "Laboratory studies (set)"
              }
            ]
          }
        ],
        "specimen": [
          {
            "reference": "urn:uuid:0229c2a1-9a1e-4b4e-8b32-8e2f50d53a2d"
          },
          {
            "reference": "urn:uuid:2ea2eaa7-21cc-4073-ad27-85c6e00618ae"
          },
          {
            "reference": "urn:uuid:82d24025-9168-4065-a5ea-ef86093a232d"
          }
        ],
        "result": [
          {
            "reference": "urn:uuid:8e0a3954-4d7c-4aaf-b31e-6d1485c06378"
          },
          {
            "reference": "urn:uuid:29204326-5bad-4d98-a3fc-2332bbb214af"
          },
          {
            "reference": "urn:uuid:3a9dd0cb-1832-42b6-9b50-5853a4beb8e4"
          },
          {
            "reference": "urn:uuid:be11430d-f838-4849-bd99-dfab5fe28b96"
          },
          {
            "reference": "urn:uuid:56c5899c-6e35-44f7-91cb-9b6592dc1d7f"
          },
          {
            "reference": "urn:uuid:459f0ec5-3982-4799-90e1-df3f594b58cd"
          },
          {
            "reference": "urn:uuid:0bbf0fd9-81de-4131-aa63-6468bac885b1"
          },
          {
            "reference": "urn:uuid:bbdaa3d5-673e-4f2e-9526-d3832fe07c67"
          },
          {
            "reference": "urn:uuid:05f75ca7-c10f-4dac-8fed-033820e9b4f0"
          },
          {
            "reference": "urn:uuid:b06ee5f6-b15d-468f-9482-91c3f21efecc"
          },
          {
            "reference": "urn:uuid:9b28e02c-7128-4061-aa41-aa8dd99e3c5b"
          },
          {
            "reference": "urn:uuid:a1313ff4-dd05-4750-ae8b-03c94591e660"
          },
          {
            "reference": "urn:uuid:b627528a-42fa-4ff6-8afa-adde27bd025d"
          },
          {
            "reference": "urn:uuid:5078997c-7c06-42a6-8a54-4f4d1e48af4d"
          },
          {
            "reference": "urn:uuid:4c2c06c7-808b-4ddf-8459-73694c047192"
          },
          {
            "reference": "urn:uuid:bef92a97-7ae6-4907-b1b8-a6edfe4268b7"
          },
          {
            "reference": "urn:uuid:63274b70-c86f-4292-9587-1e9e0dacf945"
          },
          {
            "reference": "urn:uuid:3d783329-c93b-45f7-88a0-b574a3bcd3a6"
          },
          {
            "reference": "urn:uuid:1da5177e-e724-410a-9963-4a0109232968"
          },
          {
            "reference": "urn:uuid:6f647e8f-a231-4888-9bea-a0705e39036a"
          },
          {
            "reference": "urn:uuid:509cc813-b641-4301-ade0-d9cc93c40fe8"
          },
          {
            "reference": "urn:uuid:07883e1a-9e3e-429b-a601-90c538be0fde"
          },
          {
            "reference": "urn:uuid:14e2519b-32f6-4811-9613-dbc24412ea3a"
          },
          {
            "reference": "urn:uuid:6c562fd2-d04d-40ca-8e2e-1fa7e805ef07"
          },
          {
            "reference": "urn:uuid:61113e53-e0ff-4507-bc33-9f52dd683901"
          },
          {
            "reference": "urn:uuid:422bdcad-3087-426b-914d-f8fb9a573cd0"
          },
          {
            "reference": "urn:uuid:772ecf27-baa2-421f-b61c-63b2c89b7743"
          },
          {
            "reference": "urn:uuid:7e269f47-9d7f-4fa2-a611-4acd79fa0b41"
          },
          {
            "reference": "urn:uuid:a1fbd6a4-535b-4c91-a197-1c1558fea530"
          },
          {
            "reference": "urn:uuid:b4e3777b-70b9-4441-b1dc-98ffc6b41e4b"
          },
          {
            "reference": "urn:uuid:3b5eead2-4015-4cfb-9f92-8868578d803e"
          },
          {
            "reference": "urn:uuid:f7502f32-9684-4ec8-bf6d-ebb80fd2bcd0"
          },
          {
            "reference": "urn:uuid:cf991611-95cb-4cc4-bb9f-aa3830c90a25"
          },
          {
            "reference": "urn:uuid:466aca9c-116a-496b-bfbb-7e6bb808ae3c"
          }
        ],
        "status": "registered",
        "code": {
          "coding": [
            {
              "code": "11502-2",
              "system": "http://loinc.org",
              "display": "Laboratory report"
            }
          ]
        },
        "subject": {
          "reference": "urn:uuid:dd4e6cbd-946c-4209-ba21-06272ca236fe",
          "display": "Molly Jenkins"
        }
      }
    },
    {
      "fullUrl": "urn:uuid:dd4e6cbd-946c-4209-ba21-06272ca236fe",
      "resource": {
        "resourceType": "Patient",
        "id": "dd4e6cbd-946c-4209-ba21-06272ca236fe",
        "meta": {
          "security": [
            {
              "system": "http://terminology.hl7.org/CodeSystem/v3-ActReason",
              "code": "HTEST"
            },
            {
              "system": "http://terminology.hl7.org/CodeSystem/v3-ActReason",
              "code": "TRAIN"
            }
          ],
          "tag": [
            {
              "system": "https://synderai.net/fhir/CodeSystem/tags",
              "code": "synthetic",
              "display": "SYNDERAI Synthetic data"
            }
          ],
          "profile": [
            "http://hl7.eu/fhir/base/StructureDefinition/patient-eu-core"
          ]
        },
        "identifier": [
          {
            "type": {
              "coding": [
                {
                  "code": "PT",
                  "system": "http://terminology.hl7.org/CodeSystem/v2-0203"
                }
              ]
            },
            "system": "http://ec.europa.eu/identifier/eci",
            "value": "7634-012682-0"
          },
          {
            "type": {
              "coding": [
                {
                  "code": "MR",
                  "system": "http://terminology.hl7.org/CodeSystem/v2-0203"
                }
              ]
            },
            "system": "http://local.setting.eu/identifier",
            "value": "9934a8eb-b6e1-34e1-edf5-57a0262d1bea"
          }
        ],
        "name": [
          {
            "family": "Jenkins"
          },
          {
            "given": [
              "Molly"
            ]
          },
          {
            "text": "Molly Jenkins"
          }
        ],
        "address": [
          {
            "line": [
              "98 Ali field"
            ],
            "use": "home",
            "type": "physical",
            "postalCode": "AB42",
            "city": "Port Jennamouth",
            "country": "United Kingdom"
          }
        ],
        "telecom": [
          {
            "system": "phone",
            "value": "(0118) 496 0334"
          }
        ],
        "extension": [
          {
            "url": "http://hl7.org/fhir/StructureDefinition/patient-nationality",
            "valueCodeableConcept": {
              "coding": [
                {
                  "code": "GB",
                  "system": "http://hl7.org/fhir/ValueSet/country"
                }
              ]
            }
          }
        ],
        "text": {
          "status": "generated",
          "div": "<div xmlns=\"http://www.w3.org/1999/xhtml\"><table class=\"hl7__ips\"><tr><td>Molly Jenkins</td><td>female</td><td>14-Aug-1967</td></tr></table></div>"
        },
        "gender": "female",
        "birthDate": "1967-08-14"
      }
    },
    {
      "fullUrl": "urn:uuid:c67cfae2-7089-45d4-9105-bd09a4df8afd",
      "resource": {
        "resourceType": "ServiceRequest",
        "id": "c67cfae2-7089-45d4-9105-bd09a4df8afd",
        "meta": {
          "profile": [
            "http://hl7.eu/fhir/laboratory/StructureDefinition/ServiceRequest-eu-lab"
          ]
        },
        "identifier": [
          {
            "system": "http://example.org",
            "value": "d94188a7-be76-45d8-b7f2-eeb59173fda7"
          }
        ],
        "specimen": [
          {
            "reference": "urn:uuid:0229c2a1-9a1e-4b4e-8b32-8e2f50d53a2d"
          },
          {
            "reference": "urn:uuid:2ea2eaa7-21cc-4073-ad27-85c6e00618ae"
          },
          {
            "reference": "urn:uuid:82d24025-9168-4065-a5ea-ef86093a232d"
          }
        ],
        "reasonCode": [
          {
            "coding": [
              {
                "code": "431856006",
                "system": "http://snomed.info/sct",
                "display": "Chronic kidney disease stage 2"
              }
            ]
          },
          {
            "coding": [
              {
                "code": "90781000119102",
                "system": "http://snomed.info/sct",
                "display": "Microalbuminuria due to type 2 diabetes mellitus"
              }
            ]
          },
          {
            "coding": [
              {
                "code": "127013003",
                "system": "http://snomed.info/sct",
                "display": "Disorder of kidney due to diabetes mellitus"
              }
            ]
          },
          {
            "coding": [
              {
                "code": "431855005",
                "system": "http://snomed.info/sct",
                "display": "Chronic kidney disease stage 1"
              }
            ]
          },
          {
            "coding": [
              {
                "code": "15777000",
                "system": "http://snomed.info/sct",
                "display": "Prediabetes"
              }
            ]
          },
          {
            "coding": [
              {
                "code": "59621000",
                "system": "http://snomed.info/sct",
                "display": "Essential hypertension"
              }
            ]
          },
          {
            "coding": [
              {
                "code": "53827007",
                "system": "http://snomed.info/sct",
                "display": "Excessive salivation"
              }
            ]
          },
          {
            "coding": [
              {
                "code": "64859006",
                "system": "http://snomed.info/sct",
                "display": "Osteoporosis"
              }
            ]
          },
          {
            "coding": [
              {
                "code": "128188000",
                "system": "http://snomed.info/sct",
                "display": "Cerebral palsy"
              }
            ]
          },
          {
            "coding": [
              {
                "code": "235595009",
                "system": "http://snomed.info/sct",
                "display": "Gastroesophageal reflux disease"
              }
            ]
          }
        ],
        "status": "active",
        "intent": "order",
        "code": {
          "coding": [
            {
              "code": "108252007",
              "system": "http://snomed.info/sct",
              "display": "Laboratory procedure"
            }
          ]
        },
        "subject": {
          "reference": "urn:uuid:dd4e6cbd-946c-4209-ba21-06272ca236fe",
          "display": "Molly Jenkins"
        },
        "requester": {
          "reference": "urn:uuid:407620f6-d0ba-4ef6-a95f-c42c723af308"
        }
      }
    },
    {
      "fullUrl": "urn:uuid:407620f6-d0ba-4ef6-a95f-c42c723af308",
      "resource": {
        "resourceType": "PractitionerRole",
        "id": "407620f6-d0ba-4ef6-a95f-c42c723af308",
        "meta": {
          "profile": [
            "http://hl7.eu/fhir/base/StructureDefinition/practitionerRole-eu"
          ]
        },
        "text": {
          "status": "generated",
          "div": "<div xmlns=\"http://www.w3.org/1999/xhtml\">Provider Role Id: 407620f6-d0ba-4ef6-a95f-c42c723af308</div>"
        },
        "organization": {
          "reference": "urn:uuid:72ff06a9-2154-4e37-8b0b-0ca9a2bd53e2"
        }
      }
    },
    {
      "fullUrl": "urn:uuid:72ff06a9-2154-4e37-8b0b-0ca9a2bd53e2",
      "resource": {
        "resourceType": "Organization",
        "id": "72ff06a9-2154-4e37-8b0b-0ca9a2bd53e2",
        "meta": {
          "profile": [
            "http://hl7.eu/fhir/base/StructureDefinition/organization-eu"
          ]
        },
        "identifier": [
          {
            "assigner": {
              "display": "HL7 Europe"
            },
            "system": "urn:oid:2.16.840.1.113883.2.51.999",
            "value": "9340671e-222e-4ced-a603-0101eae53243"
          }
        ],
        "address": [
          {
            "city": "Aberdeen",
            "postalCode": "AB11 6",
            "country": "United Kingdom"
          }
        ],
        "text": {
          "status": "generated",
          "div": "<div xmlns=\"http://www.w3.org/1999/xhtml\">Provider Organization: Aberdeen Community Health and Care Village</div>"
        },
        "name": "Aberdeen Community Health and Care Village"
      }
    },
    {
      "fullUrl": "urn:uuid:0229c2a1-9a1e-4b4e-8b32-8e2f50d53a2d",
      "resource": {
        "resourceType": "Specimen",
        "id": "0229c2a1-9a1e-4b4e-8b32-8e2f50d53a2d",
        "meta": {
          "profile": [
            "http://hl7.eu/fhir/laboratory/StructureDefinition/Specimen-eu-lab"
          ]
        },
        "collection": {
          "collectedDateTime": "2024-10-24"
        },
        "text": {
          "status": "generated",
          "div": "<div xmlns=\"http://www.w3.org/1999/xhtml\"><table class=\"hl7__eu__lab__report\"><tr><th>Specimen</th><th>Collection Date</th></tr><tr><td>Acellular blood (serum or plasma) specimen</td><td><span class=\"nb\">24-Oct-2024</span></td></tr></table></div>"
        },
        "type": {
          "coding": [
            {
              "code": "122592007",
              "system": "http://snomed.info/sct",
              "display": "Acellular blood (serum or plasma) specimen"
            }
          ]
        }
      }
    },
    {
      "fullUrl": "urn:uuid:2ea2eaa7-21cc-4073-ad27-85c6e00618ae",
      "resource": {
        "resourceType": "Specimen",
        "id": "2ea2eaa7-21cc-4073-ad27-85c6e00618ae",
        "meta": {
          "profile": [
            "http://hl7.eu/fhir/laboratory/StructureDefinition/Specimen-eu-lab"
          ]
        },
        "collection": {
          "collectedDateTime": "2024-10-24"
        },
        "text": {
          "status": "generated",
          "div": "<div xmlns=\"http://www.w3.org/1999/xhtml\"><table class=\"hl7__eu__lab__report\"><tr><th>Specimen</th><th>Collection Date</th></tr><tr><td>Urine specimen</td><td><span class=\"nb\">24-Oct-2024</span></td></tr></table></div>"
        },
        "type": {
          "coding": [
            {
              "code": "122575003",
              "system": "http://snomed.info/sct",
              "display": "Urine specimen"
            }
          ]
        }
      }
    },
    {
      "fullUrl": "urn:uuid:82d24025-9168-4065-a5ea-ef86093a232d",
      "resource": {
        "resourceType": "Specimen",
        "id": "82d24025-9168-4065-a5ea-ef86093a232d",
        "meta": {
          "profile": [
            "http://hl7.eu/fhir/laboratory/StructureDefinition/Specimen-eu-lab"
          ]
        },
        "collection": {
          "collectedDateTime": "2024-10-24"
        },
        "text": {
          "status": "generated",
          "div": "<div xmlns=\"http://www.w3.org/1999/xhtml\"><table class=\"hl7__eu__lab__report\"><tr><th>Specimen</th><th>Collection Date</th></tr><tr><td>Whole blood specimen (specimen)</td><td><span class=\"nb\">24-Oct-2024</span></td></tr></table></div>"
        },
        "type": {
          "coding": [
            {
              "code": "258580003",
              "system": "http://snomed.info/sct",
              "display": "Whole blood specimen (specimen)"
            }
          ]
        }
      }
    },
    {
      "fullUrl": "urn:uuid:8e0a3954-4d7c-4aaf-b31e-6d1485c06378",
      "resource": {
        "resourceType": "Observation",
        "id": "8e0a3954-4d7c-4aaf-b31e-6d1485c06378",
        "meta": {
          "profile": [
            "http://hl7.eu/fhir/laboratory/StructureDefinition/Observation-resultslab-eu-lab"
          ]
        },
        "performer": [
          {
            "display": "The Central European Lab"
          }
        ],
        "category": [
          {
            "coding": [
              {
                "system": "http://terminology.hl7.org/CodeSystem/observation-category",
                "code": "laboratory"
              }
            ]
          }
        ],
        "code": {
          "coding": [
            {
              "code": "2345-7",
              "system": "http://loinc.org",
              "display": "Glucose [Mass/volume] in Serum or Plasma"
            }
          ],
          "text": "Glucose [Mass/volume] in Serum or Plasma"
        },
        "valueQuantity": {
          "system": "http://unitsofmeasure.org",
          "value": 68.9,
          "unit": "mg/dL",
          "code": "mg/dL"
        },
        "referenceRange": [
          {
            "low": {
              "value": 70,
              "code": "mg/dL",
              "system": "http://unitsofmeasure.org"
            }
          },
          {
            "high": {
              "value": 139,
              "code": "mg/dL",
              "system": "http://unitsofmeasure.org"
            }
          }
        ],
        "interpretation": [
          {
            "coding": [
              {
                "code": "L",
                "system": "http://terminology.hl7.org/CodeSystem/v3-ObservationInterpretation",
                "display": "Low"
              }
            ]
          }
        ],
        "text": {
          "status": "generated",
          "div": "<div xmlns=\"http://www.w3.org/1999/xhtml\"><table class=\"hl7__eu__lab__report\"><tr><th>Test</th><th>24-Oct-2024</th><th>Reference&#xA0;Range</th><th>Unit</th></tr><tr><td>Glucose [Mass/volume] in Serum or Plasma</td><td>68.9</td><td>70 - 139</td><td>L</td><td>mg/dL</td></tr></table></div>"
        },
        "status": "final",
        "subject": {
          "reference": "urn:uuid:dd4e6cbd-946c-4209-ba21-06272ca236fe",
          "display": "Molly Jenkins"
        },
        "effectiveDateTime": "2024-10-24T14:42:11Z",
        "specimen": {
          "reference": "urn:uuid:0229c2a1-9a1e-4b4e-8b32-8e2f50d53a2d"
        }
      }
    },
    {
      "fullUrl": "urn:uuid:29204326-5bad-4d98-a3fc-2332bbb214af",
      "resource": {
        "resourceType": "Observation",
        "id": "29204326-5bad-4d98-a3fc-2332bbb214af",
        "meta": {
          "profile": [
            "http://hl7.eu/fhir/laboratory/StructureDefinition/Observation-resultslab-eu-lab"
          ]
        },
        "performer": [
          {
            "display": "The Central European Lab"
          }
        ],
        "category": [
          {
            "coding": [
              {
                "system": "http://terminology.hl7.org/CodeSystem/observation-category",
                "code": "laboratory"
              }
            ]
          }
        ],
        "code": {
          "coding": [
            {
              "code": "3094-0",
              "system": "http://loinc.org",
              "display": "Urea nitrogen [Mass/volume] in Serum or Plasma"
            }
          ],
          "text": "Urea nitrogen [Mass/volume] in Serum or Plasma"
        },
        "valueQuantity": {
          "system": "http://unitsofmeasure.org",
          "value": 10.9,
          "unit": "mg/dL",
          "code": "mg/dL"
        },
        "referenceRange": [
          {
            "low": {
              "value": 7,
              "code": "mg/dL",
              "system": "http://unitsofmeasure.org"
            }
          },
          {
            "high": {
              "value": 20,
              "code": "mg/dL",
              "system": "http://unitsofmeasure.org"
            }
          }
        ],
        "text": {
          "status": "generated",
          "div": "<div xmlns=\"http://www.w3.org/1999/xhtml\"><table class=\"hl7__eu__lab__report\"><tr><th>Test</th><th>24-Oct-2024</th><th>Reference&#xA0;Range</th><th>Unit</th></tr><tr><td>Urea nitrogen [Mass/volume] in Serum or Plasma</td><td>10.9</td><td>7 - 20</td><td></td><td>mg/dL</td></tr></table></div>"
        },
        "status": "final",
        "subject": {
          "reference": "urn:uuid:dd4e6cbd-946c-4209-ba21-06272ca236fe",
          "display": "Molly Jenkins"
        },
        "effectiveDateTime": "2024-10-24T14:42:11Z",
        "specimen": {
          "reference": "urn:uuid:0229c2a1-9a1e-4b4e-8b32-8e2f50d53a2d"
        }
      }
    },
    {
      "fullUrl": "urn:uuid:3a9dd0cb-1832-42b6-9b50-5853a4beb8e4",
      "resource": {
        "resourceType": "Observation",
        "id": "3a9dd0cb-1832-42b6-9b50-5853a4beb8e4",
        "meta": {
          "profile": [
            "http://hl7.eu/fhir/laboratory/StructureDefinition/Observation-resultslab-eu-lab"
          ]
        },
        "performer": [
          {
            "display": "The Central European Lab"
          }
        ],
        "category": [
          {
            "coding": [
              {
                "system": "http://terminology.hl7.org/CodeSystem/observation-category",
                "code": "laboratory"
              }
            ]
          }
        ],
        "code": {
          "coding": [
            {
              "code": "2160-0",
              "system": "http://loinc.org",
              "display": "Creatinine [Mass/volume] in Serum or Plasma"
            }
          ],
          "text": "Creatinine [Mass/volume] in Serum or Plasma"
        },
        "valueQuantity": {
          "system": "http://unitsofmeasure.org",
          "value": 1.9,
          "unit": "mg/dL",
          "code": "mg/dL"
        },
        "referenceRange": [
          {
            "low": {
              "value": 0.6,
              "code": "mg/dL",
              "system": "http://unitsofmeasure.org"
            }
          },
          {
            "high": {
              "value": 1.1,
              "code": "mg/dL",
              "system": "http://unitsofmeasure.org"
            }
          }
        ],
        "interpretation": [
          {
            "coding": [
              {
                "code": "H",
                "system": "http://terminology.hl7.org/CodeSystem/v3-ObservationInterpretation",
                "display": "High"
              }
            ]
          }
        ],
        "text": {
          "status": "generated",
          "div": "<div xmlns=\"http://www.w3.org/1999/xhtml\"><table class=\"hl7__eu__lab__report\"><tr><th>Test</th><th>24-Oct-2024</th><th>Reference&#xA0;Range</th><th>Unit</th></tr><tr><td>Creatinine [Mass/volume] in Serum or Plasma</td><td>1.9</td><td>0.6 - 1.1</td><td>H</td><td>mg/dL</td></tr></table></div>"
        },
        "status": "final",
        "subject": {
          "reference": "urn:uuid:dd4e6cbd-946c-4209-ba21-06272ca236fe",
          "display": "Molly Jenkins"
        },
        "effectiveDateTime": "2024-10-24T14:42:11Z",
        "specimen": {
          "reference": "urn:uuid:0229c2a1-9a1e-4b4e-8b32-8e2f50d53a2d"
        }
      }
    },
    {
      "fullUrl": "urn:uuid:be11430d-f838-4849-bd99-dfab5fe28b96",
      "resource": {
        "resourceType": "Observation",
        "id": "be11430d-f838-4849-bd99-dfab5fe28b96",
        "meta": {
          "profile": [
            "http://hl7.eu/fhir/laboratory/StructureDefinition/Observation-resultslab-eu-lab"
          ]
        },
        "performer": [
          {
            "display": "The Central European Lab"
          }
        ],
        "category": [
          {
            "coding": [
              {
                "system": "http://terminology.hl7.org/CodeSystem/observation-category",
                "code": "laboratory"
              }
            ]
          }
        ],
        "code": {
          "coding": [
            {
              "code": "17861-6",
              "system": "http://loinc.org",
              "display": "Calcium [Mass/volume] in Serum or Plasma"
            }
          ],
          "text": "Calcium [Mass/volume] in Serum or Plasma"
        },
        "valueQuantity": {
          "system": "http://unitsofmeasure.org",
          "value": 9,
          "unit": "mg/dL",
          "code": "mg/dL"
        },
        "referenceRange": [
          {
            "low": {
              "value": 8.5,
              "code": "mg/dL",
              "system": "http://unitsofmeasure.org"
            }
          },
          {
            "high": {
              "value": 10.4,
              "code": "mg/dL",
              "system": "http://unitsofmeasure.org"
            }
          }
        ],
        "text": {
          "status": "generated",
          "div": "<div xmlns=\"http://www.w3.org/1999/xhtml\"><table class=\"hl7__eu__lab__report\"><tr><th>Test</th><th>24-Oct-2024</th><th>Reference&#xA0;Range</th><th>Unit</th></tr><tr><td>Calcium [Mass/volume] in Serum or Plasma</td><td>9.0</td><td>8.5 - 10.4</td><td></td><td>mg/dL</td></tr></table></div>"
        },
        "status": "final",
        "subject": {
          "reference": "urn:uuid:dd4e6cbd-946c-4209-ba21-06272ca236fe",
          "display": "Molly Jenkins"
        },
        "effectiveDateTime": "2024-10-24T14:42:11Z",
        "specimen": {
          "reference": "urn:uuid:0229c2a1-9a1e-4b4e-8b32-8e2f50d53a2d"
        }
      }
    },
    {
      "fullUrl": "urn:uuid:56c5899c-6e35-44f7-91cb-9b6592dc1d7f",
      "resource": {
        "resourceType": "Observation",
        "id": "56c5899c-6e35-44f7-91cb-9b6592dc1d7f",
        "meta": {
          "profile": [
            "http://hl7.eu/fhir/laboratory/StructureDefinition/Observation-resultslab-eu-lab"
          ]
        },
        "performer": [
          {
            "display": "The Central European Lab"
          }
        ],
        "category": [
          {
            "coding": [
              {
                "system": "http://terminology.hl7.org/CodeSystem/observation-category",
                "code": "laboratory"
              }
            ]
          }
        ],
        "code": {
          "coding": [
            {
              "code": "2951-2",
              "system": "http://loinc.org",
              "display": "Sodium [Moles/volume] in Serum or Plasma"
            }
          ],
          "text": "Sodium [Moles/volume] in Serum or Plasma"
        },
        "valueQuantity": {
          "system": "http://unitsofmeasure.org",
          "value": 141.4,
          "unit": "mmol/L",
          "code": "mmol/L"
        },
        "referenceRange": [
          {
            "low": {
              "value": 135,
              "code": "mmol/L",
              "system": "http://unitsofmeasure.org"
            }
          },
          {
            "high": {
              "value": 145,
              "code": "mmol/L",
              "system": "http://unitsofmeasure.org"
            }
          }
        ],
        "text": {
          "status": "generated",
          "div": "<div xmlns=\"http://www.w3.org/1999/xhtml\"><table class=\"hl7__eu__lab__report\"><tr><th>Test</th><th>24-Oct-2024</th><th>Reference&#xA0;Range</th><th>Unit</th></tr><tr><td>Sodium [Moles/volume] in Serum or Plasma</td><td>141.4</td><td>135 - 145</td><td></td><td>mmol/L</td></tr></table></div>"
        },
        "status": "final",
        "subject": {
          "reference": "urn:uuid:dd4e6cbd-946c-4209-ba21-06272ca236fe",
          "display": "Molly Jenkins"
        },
        "effectiveDateTime": "2024-10-24T14:42:11Z",
        "specimen": {
          "reference": "urn:uuid:0229c2a1-9a1e-4b4e-8b32-8e2f50d53a2d"
        }
      }
    },
    {
      "fullUrl": "urn:uuid:459f0ec5-3982-4799-90e1-df3f594b58cd",
      "resource": {
        "resourceType": "Observation",
        "id": "459f0ec5-3982-4799-90e1-df3f594b58cd",
        "meta": {
          "profile": [
            "http://hl7.eu/fhir/laboratory/StructureDefinition/Observation-resultslab-eu-lab"
          ]
        },
        "performer": [
          {
            "display": "The Central European Lab"
          }
        ],
        "category": [
          {
            "coding": [
              {
                "system": "http://terminology.hl7.org/CodeSystem/observation-category",
                "code": "laboratory"
              }
            ]
          }
        ],
        "code": {
          "coding": [
            {
              "code": "2823-3",
              "system": "http://loinc.org",
              "display": "Potassium [Moles/volume] in Serum or Plasma"
            }
          ],
          "text": "Potassium [Moles/volume] in Serum or Plasma"
        },
        "valueQuantity": {
          "system": "http://unitsofmeasure.org",
          "value": 5.1,
          "unit": "mmol/L",
          "code": "mmol/L"
        },
        "referenceRange": [
          {
            "low": {
              "value": 3.5,
              "code": "mmol/L",
              "system": "http://unitsofmeasure.org"
            }
          },
          {
            "high": {
              "value": 5.1,
              "code": "mmol/L",
              "system": "http://unitsofmeasure.org"
            }
          }
        ],
        "text": {
          "status": "generated",
          "div": "<div xmlns=\"http://www.w3.org/1999/xhtml\"><table class=\"hl7__eu__lab__report\"><tr><th>Test</th><th>24-Oct-2024</th><th>Reference&#xA0;Range</th><th>Unit</th></tr><tr><td>Potassium [Moles/volume] in Serum or Plasma</td><td>5.1</td><td>3.5 - 5.1</td><td></td><td>mmol/L</td></tr></table></div>"
        },
        "status": "final",
        "subject": {
          "reference": "urn:uuid:dd4e6cbd-946c-4209-ba21-06272ca236fe",
          "display": "Molly Jenkins"
        },
        "effectiveDateTime": "2024-10-24T14:42:11Z",
        "specimen": {
          "reference": "urn:uuid:0229c2a1-9a1e-4b4e-8b32-8e2f50d53a2d"
        }
      }
    },
    {
      "fullUrl": "urn:uuid:0bbf0fd9-81de-4131-aa63-6468bac885b1",
      "resource": {
        "resourceType": "Observation",
        "id": "0bbf0fd9-81de-4131-aa63-6468bac885b1",
        "meta": {
          "profile": [
            "http://hl7.eu/fhir/laboratory/StructureDefinition/Observation-resultslab-eu-lab"
          ]
        },
        "performer": [
          {
            "display": "The Central European Lab"
          }
        ],
        "category": [
          {
            "coding": [
              {
                "system": "http://terminology.hl7.org/CodeSystem/observation-category",
                "code": "laboratory"
              }
            ]
          }
        ],
        "code": {
          "coding": [
            {
              "code": "2075-0",
              "system": "http://loinc.org",
              "display": "Chloride [Moles/volume] in Serum or Plasma"
            }
          ],
          "text": "Chloride [Moles/volume] in Serum or Plasma"
        },
        "valueQuantity": {
          "system": "http://unitsofmeasure.org",
          "value": 103.4,
          "unit": "mmol/L",
          "code": "mmol/L"
        },
        "referenceRange": [
          {
            "low": {
              "value": 98,
              "code": "mmol/L",
              "system": "http://unitsofmeasure.org"
            }
          },
          {
            "high": {
              "value": 110,
              "code": "mmol/L",
              "system": "http://unitsofmeasure.org"
            }
          }
        ],
        "text": {
          "status": "generated",
          "div": "<div xmlns=\"http://www.w3.org/1999/xhtml\"><table class=\"hl7__eu__lab__report\"><tr><th>Test</th><th>24-Oct-2024</th><th>Reference&#xA0;Range</th><th>Unit</th></tr><tr><td>Chloride [Moles/volume] in Serum or Plasma</td><td>103.4</td><td>98 - 110</td><td></td><td>mmol/L</td></tr></table></div>"
        },
        "status": "final",
        "subject": {
          "reference": "urn:uuid:dd4e6cbd-946c-4209-ba21-06272ca236fe",
          "display": "Molly Jenkins"
        },
        "effectiveDateTime": "2024-10-24T14:42:11Z",
        "specimen": {
          "reference": "urn:uuid:0229c2a1-9a1e-4b4e-8b32-8e2f50d53a2d"
        }
      }
    },
    {
      "fullUrl": "urn:uuid:bbdaa3d5-673e-4f2e-9526-d3832fe07c67",
      "resource": {
        "resourceType": "Observation",
        "id": "bbdaa3d5-673e-4f2e-9526-d3832fe07c67",
        "meta": {
          "profile": [
            "http://hl7.eu/fhir/laboratory/StructureDefinition/Observation-resultslab-eu-lab"
          ]
        },
        "performer": [
          {
            "display": "The Central European Lab"
          }
        ],
        "category": [
          {
            "coding": [
              {
                "system": "http://terminology.hl7.org/CodeSystem/observation-category",
                "code": "laboratory"
              }
            ]
          }
        ],
        "code": {
          "coding": [
            {
              "code": "2028-9",
              "system": "http://loinc.org",
              "display": "Carbon dioxide, total [Moles/volume] in Serum or Plasma"
            }
          ],
          "text": "Carbon dioxide, total [Moles/volume] in Serum or Plasma"
        },
        "valueQuantity": {
          "system": "http://unitsofmeasure.org",
          "value": 21.5,
          "unit": "mmol/L",
          "code": "mmol/L"
        },
        "referenceRange": [
          {
            "low": {
              "value": 22,
              "code": "mmol/L",
              "system": "http://unitsofmeasure.org"
            }
          },
          {
            "high": {
              "value": 32,
              "code": "mmol/L",
              "system": "http://unitsofmeasure.org"
            }
          }
        ],
        "interpretation": [
          {
            "coding": [
              {
                "code": "L",
                "system": "http://terminology.hl7.org/CodeSystem/v3-ObservationInterpretation",
                "display": "Low"
              }
            ]
          }
        ],
        "text": {
          "status": "generated",
          "div": "<div xmlns=\"http://www.w3.org/1999/xhtml\"><table class=\"hl7__eu__lab__report\"><tr><th>Test</th><th>24-Oct-2024</th><th>Reference&#xA0;Range</th><th>Unit</th></tr><tr><td>Carbon dioxide, total [Moles/volume] in Serum or Plasma</td><td>21.5</td><td>22 - 32</td><td>L</td><td>mmol/L</td></tr></table></div>"
        },
        "status": "final",
        "subject": {
          "reference": "urn:uuid:dd4e6cbd-946c-4209-ba21-06272ca236fe",
          "display": "Molly Jenkins"
        },
        "effectiveDateTime": "2024-10-24T14:42:11Z",
        "specimen": {
          "reference": "urn:uuid:0229c2a1-9a1e-4b4e-8b32-8e2f50d53a2d"
        }
      }
    },
    {
      "fullUrl": "urn:uuid:05f75ca7-c10f-4dac-8fed-033820e9b4f0",
      "resource": {
        "resourceType": "Observation",
        "id": "05f75ca7-c10f-4dac-8fed-033820e9b4f0",
        "meta": {
          "profile": [
            "http://hl7.eu/fhir/laboratory/StructureDefinition/Observation-resultslab-eu-lab"
          ]
        },
        "performer": [
          {
            "display": "The Central European Lab"
          }
        ],
        "category": [
          {
            "coding": [
              {
                "system": "http://terminology.hl7.org/CodeSystem/observation-category",
                "code": "laboratory"
              }
            ]
          }
        ],
        "code": {
          "coding": [
            {
              "code": "5767-9",
              "system": "http://loinc.org",
              "display": "Appearance of Urine"
            }
          ],
          "text": "Appearance of Urine"
        },
        "text": {
          "status": "generated",
          "div": "<div xmlns=\"http://www.w3.org/1999/xhtml\"><table class=\"hl7__eu__lab__report\"><tr><th>Test</th><th>24-Oct-2024</th><th>Reference&#xA0;Range</th><th>Unit</th></tr><tr><td>Appearance of Urine</td></tr></table></div>"
        },
        "status": "final",
        "subject": {
          "reference": "urn:uuid:dd4e6cbd-946c-4209-ba21-06272ca236fe",
          "display": "Molly Jenkins"
        },
        "effectiveDateTime": "2024-10-24T14:42:11Z",
        "specimen": {
          "reference": "urn:uuid:2ea2eaa7-21cc-4073-ad27-85c6e00618ae"
        }
      }
    },
    {
      "fullUrl": "urn:uuid:b06ee5f6-b15d-468f-9482-91c3f21efecc",
      "resource": {
        "resourceType": "Observation",
        "id": "b06ee5f6-b15d-468f-9482-91c3f21efecc",
        "meta": {
          "profile": [
            "http://hl7.eu/fhir/laboratory/StructureDefinition/Observation-resultslab-eu-lab"
          ]
        },
        "performer": [
          {
            "display": "The Central European Lab"
          }
        ],
        "category": [
          {
            "coding": [
              {
                "system": "http://terminology.hl7.org/CodeSystem/observation-category",
                "code": "laboratory"
              }
            ]
          }
        ],
        "code": {
          "coding": [
            {
              "code": "34533-0",
              "system": "http://loinc.org",
              "display": "Odor of Urine"
            }
          ],
          "text": "Odor of Urine"
        },
        "text": {
          "status": "generated",
          "div": "<div xmlns=\"http://www.w3.org/1999/xhtml\"><table class=\"hl7__eu__lab__report\"><tr><th>Test</th><th>24-Oct-2024</th><th>Reference&#xA0;Range</th><th>Unit</th></tr><tr><td>Odor of Urine</td></tr></table></div>"
        },
        "status": "final",
        "subject": {
          "reference": "urn:uuid:dd4e6cbd-946c-4209-ba21-06272ca236fe",
          "display": "Molly Jenkins"
        },
        "effectiveDateTime": "2024-10-24T14:42:11Z",
        "specimen": {
          "reference": "urn:uuid:2ea2eaa7-21cc-4073-ad27-85c6e00618ae"
        }
      }
    },
    {
      "fullUrl": "urn:uuid:9b28e02c-7128-4061-aa41-aa8dd99e3c5b",
      "resource": {
        "resourceType": "Observation",
        "id": "9b28e02c-7128-4061-aa41-aa8dd99e3c5b",
        "meta": {
          "profile": [
            "http://hl7.eu/fhir/laboratory/StructureDefinition/Observation-resultslab-eu-lab"
          ]
        },
        "performer": [
          {
            "display": "The Central European Lab"
          }
        ],
        "category": [
          {
            "coding": [
              {
                "system": "http://terminology.hl7.org/CodeSystem/observation-category",
                "code": "laboratory"
              }
            ]
          }
        ],
        "code": {
          "coding": [
            {
              "code": "32167-9",
              "system": "http://loinc.org",
              "display": "Clarity of Urine"
            }
          ],
          "text": "Clarity of Urine"
        },
        "text": {
          "status": "generated",
          "div": "<div xmlns=\"http://www.w3.org/1999/xhtml\"><table class=\"hl7__eu__lab__report\"><tr><th>Test</th><th>24-Oct-2024</th><th>Reference&#xA0;Range</th><th>Unit</th></tr><tr><td>Clarity of Urine</td></tr></table></div>"
        },
        "status": "final",
        "subject": {
          "reference": "urn:uuid:dd4e6cbd-946c-4209-ba21-06272ca236fe",
          "display": "Molly Jenkins"
        },
        "effectiveDateTime": "2024-10-24T14:42:11Z",
        "specimen": {
          "reference": "urn:uuid:2ea2eaa7-21cc-4073-ad27-85c6e00618ae"
        }
      }
    },
    {
      "fullUrl": "urn:uuid:a1313ff4-dd05-4750-ae8b-03c94591e660",
      "resource": {
        "resourceType": "Observation",
        "id": "a1313ff4-dd05-4750-ae8b-03c94591e660",
        "meta": {
          "profile": [
            "http://hl7.eu/fhir/laboratory/StructureDefinition/Observation-resultslab-eu-lab"
          ]
        },
        "performer": [
          {
            "display": "The Central European Lab"
          }
        ],
        "category": [
          {
            "coding": [
              {
                "system": "http://terminology.hl7.org/CodeSystem/observation-category",
                "code": "laboratory"
              }
            ]
          }
        ],
        "code": {
          "coding": [
            {
              "code": "5778-6",
              "system": "http://loinc.org",
              "display": "Color of Urine"
            }
          ],
          "text": "Color of Urine"
        },
        "text": {
          "status": "generated",
          "div": "<div xmlns=\"http://www.w3.org/1999/xhtml\"><table class=\"hl7__eu__lab__report\"><tr><th>Test</th><th>24-Oct-2024</th><th>Reference&#xA0;Range</th><th>Unit</th></tr><tr><td>Color of Urine</td></tr></table></div>"
        },
        "status": "final",
        "subject": {
          "reference": "urn:uuid:dd4e6cbd-946c-4209-ba21-06272ca236fe",
          "display": "Molly Jenkins"
        },
        "effectiveDateTime": "2024-10-24T14:42:11Z",
        "specimen": {
          "reference": "urn:uuid:2ea2eaa7-21cc-4073-ad27-85c6e00618ae"
        }
      }
    },
    {
      "fullUrl": "urn:uuid:b627528a-42fa-4ff6-8afa-adde27bd025d",
      "resource": {
        "resourceType": "Observation",
        "id": "b627528a-42fa-4ff6-8afa-adde27bd025d",
        "meta": {
          "profile": [
            "http://hl7.eu/fhir/laboratory/StructureDefinition/Observation-resultslab-eu-lab"
          ]
        },
        "performer": [
          {
            "display": "The Central European Lab"
          }
        ],
        "category": [
          {
            "coding": [
              {
                "system": "http://terminology.hl7.org/CodeSystem/observation-category",
                "code": "laboratory"
              }
            ]
          }
        ],
        "code": {
          "coding": [
            {
              "code": "5792-7",
              "system": "http://loinc.org",
              "display": "Glucose [Mass/volume] in Urine by Test strip"
            }
          ],
          "text": "Glucose [Mass/volume] in Urine by Test strip"
        },
        "valueQuantity": {
          "system": "http://unitsofmeasure.org",
          "value": 1.7,
          "unit": "mg/dL",
          "code": "mg/dL"
        },
        "referenceRange": [
          {
            "low": {
              "value": 0,
              "code": "mg/dL",
              "system": "http://unitsofmeasure.org"
            }
          },
          {
            "high": {
              "value": 0,
              "code": "mg/dL",
              "system": "http://unitsofmeasure.org"
            }
          }
        ],
        "interpretation": [
          {
            "coding": [
              {
                "code": "H",
                "system": "http://terminology.hl7.org/CodeSystem/v3-ObservationInterpretation",
                "display": "High"
              }
            ]
          }
        ],
        "text": {
          "status": "generated",
          "div": "<div xmlns=\"http://www.w3.org/1999/xhtml\"><table class=\"hl7__eu__lab__report\"><tr><th>Test</th><th>24-Oct-2024</th><th>Reference&#xA0;Range</th><th>Unit</th></tr><tr><td>Glucose [Mass/volume] in Urine by Test strip</td><td>1.7</td><td>0 - 0</td><td>H</td><td>mg/dL</td></tr></table></div>"
        },
        "status": "final",
        "subject": {
          "reference": "urn:uuid:dd4e6cbd-946c-4209-ba21-06272ca236fe",
          "display": "Molly Jenkins"
        },
        "effectiveDateTime": "2024-10-24T14:42:11Z",
        "specimen": {
          "reference": "urn:uuid:2ea2eaa7-21cc-4073-ad27-85c6e00618ae"
        }
      }
    },
    {
      "fullUrl": "urn:uuid:5078997c-7c06-42a6-8a54-4f4d1e48af4d",
      "resource": {
        "resourceType": "Observation",
        "id": "5078997c-7c06-42a6-8a54-4f4d1e48af4d",
        "meta": {
          "profile": [
            "http://hl7.eu/fhir/laboratory/StructureDefinition/Observation-resultslab-eu-lab"
          ]
        },
        "performer": [
          {
            "display": "The Central European Lab"
          }
        ],
        "category": [
          {
            "coding": [
              {
                "system": "http://terminology.hl7.org/CodeSystem/observation-category",
                "code": "laboratory"
              }
            ]
          }
        ],
        "code": {
          "coding": [
            {
              "code": "25428-4",
              "system": "http://loinc.org",
              "display": "Glucose [Presence] in Urine by Test strip"
            }
          ],
          "text": "Glucose [Presence] in Urine by Test strip"
        },
        "text": {
          "status": "generated",
          "div": "<div xmlns=\"http://www.w3.org/1999/xhtml\"><table class=\"hl7__eu__lab__report\"><tr><th>Test</th><th>24-Oct-2024</th><th>Reference&#xA0;Range</th><th>Unit</th></tr><tr><td>Glucose [Presence] in Urine by Test strip</td></tr></table></div>"
        },
        "status": "final",
        "subject": {
          "reference": "urn:uuid:dd4e6cbd-946c-4209-ba21-06272ca236fe",
          "display": "Molly Jenkins"
        },
        "effectiveDateTime": "2024-10-24T14:42:11Z",
        "specimen": {
          "reference": "urn:uuid:2ea2eaa7-21cc-4073-ad27-85c6e00618ae"
        }
      }
    },
    {
      "fullUrl": "urn:uuid:4c2c06c7-808b-4ddf-8459-73694c047192",
      "resource": {
        "resourceType": "Observation",
        "id": "4c2c06c7-808b-4ddf-8459-73694c047192",
        "meta": {
          "profile": [
            "http://hl7.eu/fhir/laboratory/StructureDefinition/Observation-resultslab-eu-lab"
          ]
        },
        "performer": [
          {
            "display": "The Central European Lab"
          }
        ],
        "category": [
          {
            "coding": [
              {
                "system": "http://terminology.hl7.org/CodeSystem/observation-category",
                "code": "laboratory"
              }
            ]
          }
        ],
        "code": {
          "coding": [
            {
              "code": "20505-4",
              "system": "http://loinc.org",
              "display": "Bilirubin.total [Mass/volume] in Urine by Test strip"
            }
          ],
          "text": "Bilirubin.total [Mass/volume] in Urine by Test strip"
        },
        "valueQuantity": {
          "system": "http://unitsofmeasure.org",
          "value": 0.9,
          "unit": "mg/dL",
          "code": "mg/dL"
        },
        "referenceRange": [
          {
            "low": {
              "value": 0,
              "code": "mg/dL",
              "system": "http://unitsofmeasure.org"
            }
          },
          {
            "high": {
              "value": 1.6,
              "code": "mg/dL",
              "system": "http://unitsofmeasure.org"
            }
          }
        ],
        "text": {
          "status": "generated",
          "div": "<div xmlns=\"http://www.w3.org/1999/xhtml\"><table class=\"hl7__eu__lab__report\"><tr><th>Test</th><th>24-Oct-2024</th><th>Reference&#xA0;Range</th><th>Unit</th></tr><tr><td>Bilirubin.total [Mass/volume] in Urine by Test strip</td><td>0.9</td><td>0 - 1.6</td><td></td><td>mg/dL</td></tr></table></div>"
        },
        "status": "final",
        "subject": {
          "reference": "urn:uuid:dd4e6cbd-946c-4209-ba21-06272ca236fe",
          "display": "Molly Jenkins"
        },
        "effectiveDateTime": "2024-10-24T14:42:11Z",
        "specimen": {
          "reference": "urn:uuid:2ea2eaa7-21cc-4073-ad27-85c6e00618ae"
        }
      }
    },
    {
      "fullUrl": "urn:uuid:bef92a97-7ae6-4907-b1b8-a6edfe4268b7",
      "resource": {
        "resourceType": "Observation",
        "id": "bef92a97-7ae6-4907-b1b8-a6edfe4268b7",
        "meta": {
          "profile": [
            "http://hl7.eu/fhir/laboratory/StructureDefinition/Observation-resultslab-eu-lab"
          ]
        },
        "performer": [
          {
            "display": "The Central European Lab"
          }
        ],
        "category": [
          {
            "coding": [
              {
                "system": "http://terminology.hl7.org/CodeSystem/observation-category",
                "code": "laboratory"
              }
            ]
          }
        ],
        "code": {
          "coding": [
            {
              "code": "5770-3",
              "system": "http://loinc.org",
              "display": "Bilirubin.total [Presence] in Urine by Test strip"
            }
          ],
          "text": "Bilirubin.total [Presence] in Urine by Test strip"
        },
        "text": {
          "status": "generated",
          "div": "<div xmlns=\"http://www.w3.org/1999/xhtml\"><table class=\"hl7__eu__lab__report\"><tr><th>Test</th><th>24-Oct-2024</th><th>Reference&#xA0;Range</th><th>Unit</th></tr><tr><td>Bilirubin.total [Presence] in Urine by Test strip</td></tr></table></div>"
        },
        "status": "final",
        "subject": {
          "reference": "urn:uuid:dd4e6cbd-946c-4209-ba21-06272ca236fe",
          "display": "Molly Jenkins"
        },
        "effectiveDateTime": "2024-10-24T14:42:11Z",
        "specimen": {
          "reference": "urn:uuid:2ea2eaa7-21cc-4073-ad27-85c6e00618ae"
        }
      }
    },
    {
      "fullUrl": "urn:uuid:63274b70-c86f-4292-9587-1e9e0dacf945",
      "resource": {
        "resourceType": "Observation",
        "id": "63274b70-c86f-4292-9587-1e9e0dacf945",
        "meta": {
          "profile": [
            "http://hl7.eu/fhir/laboratory/StructureDefinition/Observation-resultslab-eu-lab"
          ]
        },
        "performer": [
          {
            "display": "The Central European Lab"
          }
        ],
        "category": [
          {
            "coding": [
              {
                "system": "http://terminology.hl7.org/CodeSystem/observation-category",
                "code": "laboratory"
              }
            ]
          }
        ],
        "code": {
          "coding": [
            {
              "code": "5797-6",
              "system": "http://loinc.org",
              "display": "Ketones [Mass/volume] in Urine by Test strip"
            }
          ],
          "text": "Ketones [Mass/volume] in Urine by Test strip"
        },
        "valueQuantity": {
          "system": "http://unitsofmeasure.org",
          "value": 7.4,
          "unit": "mg/dL",
          "code": "mg/dL"
        },
        "referenceRange": [
          {
            "low": {
              "value": 0,
              "code": "mg/dL",
              "system": "http://unitsofmeasure.org"
            }
          },
          {
            "high": {
              "value": 0.5,
              "code": "mg/dL",
              "system": "http://unitsofmeasure.org"
            }
          }
        ],
        "interpretation": [
          {
            "coding": [
              {
                "code": "H",
                "system": "http://terminology.hl7.org/CodeSystem/v3-ObservationInterpretation",
                "display": "High"
              }
            ]
          }
        ],
        "text": {
          "status": "generated",
          "div": "<div xmlns=\"http://www.w3.org/1999/xhtml\"><table class=\"hl7__eu__lab__report\"><tr><th>Test</th><th>24-Oct-2024</th><th>Reference&#xA0;Range</th><th>Unit</th></tr><tr><td>Ketones [Mass/volume] in Urine by Test strip</td><td>7.4</td><td>0 - 0.5</td><td>H</td><td>mg/dL</td></tr></table></div>"
        },
        "status": "final",
        "subject": {
          "reference": "urn:uuid:dd4e6cbd-946c-4209-ba21-06272ca236fe",
          "display": "Molly Jenkins"
        },
        "effectiveDateTime": "2024-10-24T14:42:11Z",
        "specimen": {
          "reference": "urn:uuid:2ea2eaa7-21cc-4073-ad27-85c6e00618ae"
        }
      }
    },
    {
      "fullUrl": "urn:uuid:3d783329-c93b-45f7-88a0-b574a3bcd3a6",
      "resource": {
        "resourceType": "Observation",
        "id": "3d783329-c93b-45f7-88a0-b574a3bcd3a6",
        "meta": {
          "profile": [
            "http://hl7.eu/fhir/laboratory/StructureDefinition/Observation-resultslab-eu-lab"
          ]
        },
        "performer": [
          {
            "display": "The Central European Lab"
          }
        ],
        "category": [
          {
            "coding": [
              {
                "system": "http://terminology.hl7.org/CodeSystem/observation-category",
                "code": "laboratory"
              }
            ]
          }
        ],
        "code": {
          "coding": [
            {
              "code": "2514-8",
              "system": "http://loinc.org",
              "display": "Ketones [Presence] in Urine by Test strip"
            }
          ],
          "text": "Ketones [Presence] in Urine by Test strip"
        },
        "text": {
          "status": "generated",
          "div": "<div xmlns=\"http://www.w3.org/1999/xhtml\"><table class=\"hl7__eu__lab__report\"><tr><th>Test</th><th>24-Oct-2024</th><th>Reference&#xA0;Range</th><th>Unit</th></tr><tr><td>Ketones [Presence] in Urine by Test strip</td></tr></table></div>"
        },
        "status": "final",
        "subject": {
          "reference": "urn:uuid:dd4e6cbd-946c-4209-ba21-06272ca236fe",
          "display": "Molly Jenkins"
        },
        "effectiveDateTime": "2024-10-24T14:42:11Z",
        "specimen": {
          "reference": "urn:uuid:2ea2eaa7-21cc-4073-ad27-85c6e00618ae"
        }
      }
    },
    {
      "fullUrl": "urn:uuid:1da5177e-e724-410a-9963-4a0109232968",
      "resource": {
        "resourceType": "Observation",
        "id": "1da5177e-e724-410a-9963-4a0109232968",
        "meta": {
          "profile": [
            "http://hl7.eu/fhir/laboratory/StructureDefinition/Observation-resultslab-eu-lab"
          ]
        },
        "performer": [
          {
            "display": "The Central European Lab"
          }
        ],
        "category": [
          {
            "coding": [
              {
                "system": "http://terminology.hl7.org/CodeSystem/observation-category",
                "code": "laboratory"
              }
            ]
          }
        ],
        "code": {
          "coding": [
            {
              "code": "5811-5",
              "system": "http://loinc.org",
              "display": "Specific gravity of Urine by Test strip"
            }
          ],
          "text": "Specific gravity of Urine by Test strip"
        },
        "valueQuantity": {
          "system": "http://unitsofmeasure.org",
          "value": 1,
          "unit": "{nominal}",
          "code": "{nominal}"
        },
        "referenceRange": [
          {
            "low": {
              "value": 1.005,
              "code": "g/mL",
              "system": "http://unitsofmeasure.org"
            }
          },
          {
            "high": {
              "value": 1.03,
              "code": "g/mL",
              "system": "http://unitsofmeasure.org"
            }
          }
        ],
        "interpretation": [
          {
            "coding": [
              {
                "code": "L",
                "system": "http://terminology.hl7.org/CodeSystem/v3-ObservationInterpretation",
                "display": "Low"
              }
            ]
          }
        ],
        "text": {
          "status": "generated",
          "div": "<div xmlns=\"http://www.w3.org/1999/xhtml\"><table class=\"hl7__eu__lab__report\"><tr><th>Test</th><th>24-Oct-2024</th><th>Reference&#xA0;Range</th><th>Unit</th></tr><tr><td>Specific gravity of Urine by Test strip</td><td>1.0</td><td>1.005 - 1.03</td><td>L</td><td>{nominal}</td></tr></table></div>"
        },
        "status": "final",
        "subject": {
          "reference": "urn:uuid:dd4e6cbd-946c-4209-ba21-06272ca236fe",
          "display": "Molly Jenkins"
        },
        "effectiveDateTime": "2024-10-24T14:42:11Z",
        "specimen": {
          "reference": "urn:uuid:2ea2eaa7-21cc-4073-ad27-85c6e00618ae"
        }
      }
    },
    {
      "fullUrl": "urn:uuid:6f647e8f-a231-4888-9bea-a0705e39036a",
      "resource": {
        "resourceType": "Observation",
        "id": "6f647e8f-a231-4888-9bea-a0705e39036a",
        "meta": {
          "profile": [
            "http://hl7.eu/fhir/laboratory/StructureDefinition/Observation-resultslab-eu-lab"
          ]
        },
        "performer": [
          {
            "display": "The Central European Lab"
          }
        ],
        "category": [
          {
            "coding": [
              {
                "system": "http://terminology.hl7.org/CodeSystem/observation-category",
                "code": "laboratory"
              }
            ]
          }
        ],
        "code": {
          "coding": [
            {
              "code": "5803-2",
              "system": "http://loinc.org",
              "display": "pH of Urine by Test strip"
            }
          ],
          "text": "pH of Urine by Test strip"
        },
        "valueQuantity": {
          "system": "http://unitsofmeasure.org",
          "value": 5.8,
          "unit": "pH",
          "code": "pH"
        },
        "referenceRange": [
          {
            "low": {
              "value": 4.5,
              "code": "pH",
              "system": "http://unitsofmeasure.org"
            }
          },
          {
            "high": {
              "value": 7.5,
              "code": "pH",
              "system": "http://unitsofmeasure.org"
            }
          }
        ],
        "text": {
          "status": "generated",
          "div": "<div xmlns=\"http://www.w3.org/1999/xhtml\"><table class=\"hl7__eu__lab__report\"><tr><th>Test</th><th>24-Oct-2024</th><th>Reference&#xA0;Range</th><th>Unit</th></tr><tr><td>pH of Urine by Test strip</td><td>5.8</td><td>4.5 - 7.5</td><td></td><td>pH</td></tr></table></div>"
        },
        "status": "final",
        "subject": {
          "reference": "urn:uuid:dd4e6cbd-946c-4209-ba21-06272ca236fe",
          "display": "Molly Jenkins"
        },
        "effectiveDateTime": "2024-10-24T14:42:11Z",
        "specimen": {
          "reference": "urn:uuid:2ea2eaa7-21cc-4073-ad27-85c6e00618ae"
        }
      }
    },
    {
      "fullUrl": "urn:uuid:509cc813-b641-4301-ade0-d9cc93c40fe8",
      "resource": {
        "resourceType": "Observation",
        "id": "509cc813-b641-4301-ade0-d9cc93c40fe8",
        "meta": {
          "profile": [
            "http://hl7.eu/fhir/laboratory/StructureDefinition/Observation-resultslab-eu-lab"
          ]
        },
        "performer": [
          {
            "display": "The Central European Lab"
          }
        ],
        "category": [
          {
            "coding": [
              {
                "system": "http://terminology.hl7.org/CodeSystem/observation-category",
                "code": "laboratory"
              }
            ]
          }
        ],
        "code": {
          "coding": [
            {
              "code": "5804-0",
              "system": "http://loinc.org",
              "display": "Protein [Mass/volume] in Urine by Test strip"
            }
          ],
          "text": "Protein [Mass/volume] in Urine by Test strip"
        },
        "valueQuantity": {
          "system": "http://unitsofmeasure.org",
          "value": 259.1,
          "unit": "mg/dL",
          "code": "mg/dL"
        },
        "referenceRange": [
          {
            "low": {
              "value": 0,
              "code": "mg/dL",
              "system": "http://unitsofmeasure.org"
            }
          },
          {
            "high": {
              "value": 15,
              "code": "mg/dL",
              "system": "http://unitsofmeasure.org"
            }
          }
        ],
        "interpretation": [
          {
            "coding": [
              {
                "code": "H",
                "system": "http://terminology.hl7.org/CodeSystem/v3-ObservationInterpretation",
                "display": "High"
              }
            ]
          }
        ],
        "text": {
          "status": "generated",
          "div": "<div xmlns=\"http://www.w3.org/1999/xhtml\"><table class=\"hl7__eu__lab__report\"><tr><th>Test</th><th>24-Oct-2024</th><th>Reference&#xA0;Range</th><th>Unit</th></tr><tr><td>Protein [Mass/volume] in Urine by Test strip</td><td>259.1</td><td>0 - 15</td><td>H</td><td>mg/dL</td></tr></table></div>"
        },
        "status": "final",
        "subject": {
          "reference": "urn:uuid:dd4e6cbd-946c-4209-ba21-06272ca236fe",
          "display": "Molly Jenkins"
        },
        "effectiveDateTime": "2024-10-24T14:42:11Z",
        "specimen": {
          "reference": "urn:uuid:2ea2eaa7-21cc-4073-ad27-85c6e00618ae"
        }
      }
    },
    {
      "fullUrl": "urn:uuid:07883e1a-9e3e-429b-a601-90c538be0fde",
      "resource": {
        "resourceType": "Observation",
        "id": "07883e1a-9e3e-429b-a601-90c538be0fde",
        "meta": {
          "profile": [
            "http://hl7.eu/fhir/laboratory/StructureDefinition/Observation-resultslab-eu-lab"
          ]
        },
        "performer": [
          {
            "display": "The Central European Lab"
          }
        ],
        "category": [
          {
            "coding": [
              {
                "system": "http://terminology.hl7.org/CodeSystem/observation-category",
                "code": "laboratory"
              }
            ]
          }
        ],
        "code": {
          "coding": [
            {
              "code": "20454-5",
              "system": "http://loinc.org",
              "display": "Protein [Presence] in Urine by Test strip"
            }
          ],
          "text": "Protein [Presence] in Urine by Test strip"
        },
        "text": {
          "status": "generated",
          "div": "<div xmlns=\"http://www.w3.org/1999/xhtml\"><table class=\"hl7__eu__lab__report\"><tr><th>Test</th><th>24-Oct-2024</th><th>Reference&#xA0;Range</th><th>Unit</th></tr><tr><td>Protein [Presence] in Urine by Test strip</td></tr></table></div>"
        },
        "status": "final",
        "subject": {
          "reference": "urn:uuid:dd4e6cbd-946c-4209-ba21-06272ca236fe",
          "display": "Molly Jenkins"
        },
        "effectiveDateTime": "2024-10-24T14:42:11Z",
        "specimen": {
          "reference": "urn:uuid:2ea2eaa7-21cc-4073-ad27-85c6e00618ae"
        }
      }
    },
    {
      "fullUrl": "urn:uuid:14e2519b-32f6-4811-9613-dbc24412ea3a",
      "resource": {
        "resourceType": "Observation",
        "id": "14e2519b-32f6-4811-9613-dbc24412ea3a",
        "meta": {
          "profile": [
            "http://hl7.eu/fhir/laboratory/StructureDefinition/Observation-resultslab-eu-lab"
          ]
        },
        "performer": [
          {
            "display": "The Central European Lab"
          }
        ],
        "category": [
          {
            "coding": [
              {
                "system": "http://terminology.hl7.org/CodeSystem/observation-category",
                "code": "laboratory"
              }
            ]
          }
        ],
        "code": {
          "coding": [
            {
              "code": "5802-4",
              "system": "http://loinc.org",
              "display": "Nitrite [Presence] in Urine by Test strip"
            }
          ],
          "text": "Nitrite [Presence] in Urine by Test strip"
        },
        "text": {
          "status": "generated",
          "div": "<div xmlns=\"http://www.w3.org/1999/xhtml\"><table class=\"hl7__eu__lab__report\"><tr><th>Test</th><th>24-Oct-2024</th><th>Reference&#xA0;Range</th><th>Unit</th></tr><tr><td>Nitrite [Presence] in Urine by Test strip</td></tr></table></div>"
        },
        "status": "final",
        "subject": {
          "reference": "urn:uuid:dd4e6cbd-946c-4209-ba21-06272ca236fe",
          "display": "Molly Jenkins"
        },
        "effectiveDateTime": "2024-10-24T14:42:11Z",
        "specimen": {
          "reference": "urn:uuid:2ea2eaa7-21cc-4073-ad27-85c6e00618ae"
        }
      }
    },
    {
      "fullUrl": "urn:uuid:6c562fd2-d04d-40ca-8e2e-1fa7e805ef07",
      "resource": {
        "resourceType": "Observation",
        "id": "6c562fd2-d04d-40ca-8e2e-1fa7e805ef07",
        "meta": {
          "profile": [
            "http://hl7.eu/fhir/laboratory/StructureDefinition/Observation-resultslab-eu-lab"
          ]
        },
        "performer": [
          {
            "display": "The Central European Lab"
          }
        ],
        "category": [
          {
            "coding": [
              {
                "system": "http://terminology.hl7.org/CodeSystem/observation-category",
                "code": "laboratory"
              }
            ]
          }
        ],
        "code": {
          "coding": [
            {
              "code": "5794-3",
              "system": "http://loinc.org",
              "display": "Hemoglobin [Presence] in Urine by Test strip"
            }
          ],
          "text": "Hemoglobin [Presence] in Urine by Test strip"
        },
        "text": {
          "status": "generated",
          "div": "<div xmlns=\"http://www.w3.org/1999/xhtml\"><table class=\"hl7__eu__lab__report\"><tr><th>Test</th><th>24-Oct-2024</th><th>Reference&#xA0;Range</th><th>Unit</th></tr><tr><td>Hemoglobin [Presence] in Urine by Test strip</td></tr></table></div>"
        },
        "status": "final",
        "subject": {
          "reference": "urn:uuid:dd4e6cbd-946c-4209-ba21-06272ca236fe",
          "display": "Molly Jenkins"
        },
        "effectiveDateTime": "2024-10-24T14:42:11Z",
        "specimen": {
          "reference": "urn:uuid:2ea2eaa7-21cc-4073-ad27-85c6e00618ae"
        }
      }
    },
    {
      "fullUrl": "urn:uuid:61113e53-e0ff-4507-bc33-9f52dd683901",
      "resource": {
        "resourceType": "Observation",
        "id": "61113e53-e0ff-4507-bc33-9f52dd683901",
        "meta": {
          "profile": [
            "http://hl7.eu/fhir/laboratory/StructureDefinition/Observation-resultslab-eu-lab"
          ]
        },
        "performer": [
          {
            "display": "The Central European Lab"
          }
        ],
        "category": [
          {
            "coding": [
              {
                "system": "http://terminology.hl7.org/CodeSystem/observation-category",
                "code": "laboratory"
              }
            ]
          }
        ],
        "code": {
          "coding": [
            {
              "code": "5799-2",
              "system": "http://loinc.org",
              "display": "Leukocyte esterase [Presence] in Urine by Test strip"
            }
          ],
          "text": "Leukocyte esterase [Presence] in Urine by Test strip"
        },
        "text": {
          "status": "generated",
          "div": "<div xmlns=\"http://www.w3.org/1999/xhtml\"><table class=\"hl7__eu__lab__report\"><tr><th>Test</th><th>24-Oct-2024</th><th>Reference&#xA0;Range</th><th>Unit</th></tr><tr><td>Leukocyte esterase [Presence] in Urine by Test strip</td></tr></table></div>"
        },
        "status": "final",
        "subject": {
          "reference": "urn:uuid:dd4e6cbd-946c-4209-ba21-06272ca236fe",
          "display": "Molly Jenkins"
        },
        "effectiveDateTime": "2024-10-24T14:42:11Z",
        "specimen": {
          "reference": "urn:uuid:2ea2eaa7-21cc-4073-ad27-85c6e00618ae"
        }
      }
    },
    {
      "fullUrl": "urn:uuid:422bdcad-3087-426b-914d-f8fb9a573cd0",
      "resource": {
        "resourceType": "Observation",
        "id": "422bdcad-3087-426b-914d-f8fb9a573cd0",
        "meta": {
          "profile": [
            "http://hl7.eu/fhir/laboratory/StructureDefinition/Observation-resultslab-eu-lab"
          ]
        },
        "performer": [
          {
            "display": "The Central European Lab"
          }
        ],
        "category": [
          {
            "coding": [
              {
                "system": "http://terminology.hl7.org/CodeSystem/observation-category",
                "code": "laboratory"
              }
            ]
          }
        ],
        "code": {
          "coding": [
            {
              "code": "4548-4",
              "system": "http://loinc.org",
              "display": "Hemoglobin A1c/Hemoglobin.total in Blood"
            }
          ],
          "text": "Hemoglobin A1c/Hemoglobin.total in Blood"
        },
        "valueQuantity": {
          "system": "http://unitsofmeasure.org",
          "value": 3.2,
          "unit": "%",
          "code": "%"
        },
        "referenceRange": [
          {
            "low": {
              "value": 4,
              "code": "%",
              "system": "http://unitsofmeasure.org"
            }
          },
          {
            "high": {
              "value": 6,
              "code": "%",
              "system": "http://unitsofmeasure.org"
            }
          }
        ],
        "interpretation": [
          {
            "coding": [
              {
                "code": "L",
                "system": "http://terminology.hl7.org/CodeSystem/v3-ObservationInterpretation",
                "display": "Low"
              }
            ]
          }
        ],
        "text": {
          "status": "generated",
          "div": "<div xmlns=\"http://www.w3.org/1999/xhtml\"><table class=\"hl7__eu__lab__report\"><tr><th>Test</th><th>24-Oct-2024</th><th>Reference&#xA0;Range</th><th>Unit</th></tr><tr><td>Hemoglobin A1c/Hemoglobin.total in Blood</td><td>3.2</td><td>4 - 6</td><td>L</td><td>%</td></tr></table></div>"
        },
        "status": "final",
        "subject": {
          "reference": "urn:uuid:dd4e6cbd-946c-4209-ba21-06272ca236fe",
          "display": "Molly Jenkins"
        },
        "effectiveDateTime": "2024-10-24T14:42:11Z",
        "specimen": {
          "reference": "urn:uuid:82d24025-9168-4065-a5ea-ef86093a232d"
        }
      }
    },
    {
      "fullUrl": "urn:uuid:772ecf27-baa2-421f-b61c-63b2c89b7743",
      "resource": {
        "resourceType": "Observation",
        "id": "772ecf27-baa2-421f-b61c-63b2c89b7743",
        "meta": {
          "profile": [
            "http://hl7.eu/fhir/laboratory/StructureDefinition/Observation-resultslab-eu-lab"
          ]
        },
        "performer": [
          {
            "display": "The Central European Lab"
          }
        ],
        "category": [
          {
            "coding": [
              {
                "system": "http://terminology.hl7.org/CodeSystem/observation-category",
                "code": "laboratory"
              }
            ]
          }
        ],
        "code": {
          "coding": [
            {
              "code": "2339-0",
              "system": "http://loinc.org",
              "display": "Glucose [Mass/volume] in Blood"
            }
          ],
          "text": "Glucose [Mass/volume] in Blood"
        },
        "valueQuantity": {
          "system": "http://unitsofmeasure.org",
          "value": 68.9,
          "unit": "mg/dL",
          "code": "mg/dL"
        },
        "referenceRange": [
          {
            "low": {
              "value": 70,
              "code": "mg/dL",
              "system": "http://unitsofmeasure.org"
            }
          },
          {
            "high": {
              "value": 100,
              "code": "mg/dL",
              "system": "http://unitsofmeasure.org"
            }
          }
        ],
        "interpretation": [
          {
            "coding": [
              {
                "code": "L",
                "system": "http://terminology.hl7.org/CodeSystem/v3-ObservationInterpretation",
                "display": "Low"
              }
            ]
          }
        ],
        "text": {
          "status": "generated",
          "div": "<div xmlns=\"http://www.w3.org/1999/xhtml\"><table class=\"hl7__eu__lab__report\"><tr><th>Test</th><th>24-Oct-2024</th><th>Reference&#xA0;Range</th><th>Unit</th></tr><tr><td>Glucose [Mass/volume] in Blood</td><td>68.9</td><td>70 - 100</td><td>L</td><td>mg/dL</td></tr></table></div>"
        },
        "status": "final",
        "subject": {
          "reference": "urn:uuid:dd4e6cbd-946c-4209-ba21-06272ca236fe",
          "display": "Molly Jenkins"
        },
        "effectiveDateTime": "2024-10-24T14:42:11Z",
        "specimen": {
          "reference": "urn:uuid:82d24025-9168-4065-a5ea-ef86093a232d"
        }
      }
    },
    {
      "fullUrl": "urn:uuid:7e269f47-9d7f-4fa2-a611-4acd79fa0b41",
      "resource": {
        "resourceType": "Observation",
        "id": "7e269f47-9d7f-4fa2-a611-4acd79fa0b41",
        "meta": {
          "profile": [
            "http://hl7.eu/fhir/laboratory/StructureDefinition/Observation-resultslab-eu-lab"
          ]
        },
        "performer": [
          {
            "display": "The Central European Lab"
          }
        ],
        "category": [
          {
            "coding": [
              {
                "system": "http://terminology.hl7.org/CodeSystem/observation-category",
                "code": "laboratory"
              }
            ]
          }
        ],
        "code": {
          "coding": [
            {
              "code": "6299-2",
              "system": "http://loinc.org",
              "display": "Urea nitrogen [Mass/volume] in Blood"
            }
          ],
          "text": "Urea nitrogen [Mass/volume] in Blood"
        },
        "valueQuantity": {
          "system": "http://unitsofmeasure.org",
          "value": 10.9,
          "unit": "mg/dL",
          "code": "mg/dL"
        },
        "referenceRange": [
          {
            "low": {
              "value": 7,
              "code": "mg/dL",
              "system": "http://unitsofmeasure.org"
            }
          },
          {
            "high": {
              "value": 20,
              "code": "mg/dL",
              "system": "http://unitsofmeasure.org"
            }
          }
        ],
        "text": {
          "status": "generated",
          "div": "<div xmlns=\"http://www.w3.org/1999/xhtml\"><table class=\"hl7__eu__lab__report\"><tr><th>Test</th><th>24-Oct-2024</th><th>Reference&#xA0;Range</th><th>Unit</th></tr><tr><td>Urea nitrogen [Mass/volume] in Blood</td><td>10.9</td><td>7 - 20</td><td></td><td>mg/dL</td></tr></table></div>"
        },
        "status": "final",
        "subject": {
          "reference": "urn:uuid:dd4e6cbd-946c-4209-ba21-06272ca236fe",
          "display": "Molly Jenkins"
        },
        "effectiveDateTime": "2024-10-24T14:42:11Z",
        "specimen": {
          "reference": "urn:uuid:82d24025-9168-4065-a5ea-ef86093a232d"
        }
      }
    },
    {
      "fullUrl": "urn:uuid:a1fbd6a4-535b-4c91-a197-1c1558fea530",
      "resource": {
        "resourceType": "Observation",
        "id": "a1fbd6a4-535b-4c91-a197-1c1558fea530",
        "meta": {
          "profile": [
            "http://hl7.eu/fhir/laboratory/StructureDefinition/Observation-resultslab-eu-lab"
          ]
        },
        "performer": [
          {
            "display": "The Central European Lab"
          }
        ],
        "category": [
          {
            "coding": [
              {
                "system": "http://terminology.hl7.org/CodeSystem/observation-category",
                "code": "laboratory"
              }
            ]
          }
        ],
        "code": {
          "coding": [
            {
              "code": "38483-4",
              "system": "http://loinc.org",
              "display": "Creatinine [Mass/volume] in Blood"
            }
          ],
          "text": "Creatinine [Mass/volume] in Blood"
        },
        "valueQuantity": {
          "system": "http://unitsofmeasure.org",
          "value": 1.9,
          "unit": "mg/dL",
          "code": "mg/dL"
        },
        "referenceRange": [
          {
            "low": {
              "value": 0.6,
              "code": "mg/dL",
              "system": "http://unitsofmeasure.org"
            }
          },
          {
            "high": {
              "value": 1.3,
              "code": "mg/dL",
              "system": "http://unitsofmeasure.org"
            }
          }
        ],
        "interpretation": [
          {
            "coding": [
              {
                "code": "H",
                "system": "http://terminology.hl7.org/CodeSystem/v3-ObservationInterpretation",
                "display": "High"
              }
            ]
          }
        ],
        "text": {
          "status": "generated",
          "div": "<div xmlns=\"http://www.w3.org/1999/xhtml\"><table class=\"hl7__eu__lab__report\"><tr><th>Test</th><th>24-Oct-2024</th><th>Reference&#xA0;Range</th><th>Unit</th></tr><tr><td>Creatinine [Mass/volume] in Blood</td><td>1.9</td><td>0.6 - 1.3</td><td>H</td><td>mg/dL</td></tr></table></div>"
        },
        "status": "final",
        "subject": {
          "reference": "urn:uuid:dd4e6cbd-946c-4209-ba21-06272ca236fe",
          "display": "Molly Jenkins"
        },
        "effectiveDateTime": "2024-10-24T14:42:11Z",
        "specimen": {
          "reference": "urn:uuid:82d24025-9168-4065-a5ea-ef86093a232d"
        }
      }
    },
    {
      "fullUrl": "urn:uuid:b4e3777b-70b9-4441-b1dc-98ffc6b41e4b",
      "resource": {
        "resourceType": "Observation",
        "id": "b4e3777b-70b9-4441-b1dc-98ffc6b41e4b",
        "meta": {
          "profile": [
            "http://hl7.eu/fhir/laboratory/StructureDefinition/Observation-resultslab-eu-lab"
          ]
        },
        "performer": [
          {
            "display": "The Central European Lab"
          }
        ],
        "category": [
          {
            "coding": [
              {
                "system": "http://terminology.hl7.org/CodeSystem/observation-category",
                "code": "laboratory"
              }
            ]
          }
        ],
        "code": {
          "coding": [
            {
              "code": "49765-1",
              "system": "http://loinc.org",
              "display": "Calcium [Mass/volume] in Blood"
            }
          ],
          "text": "Calcium [Mass/volume] in Blood"
        },
        "valueQuantity": {
          "system": "http://unitsofmeasure.org",
          "value": 9,
          "unit": "mg/dL",
          "code": "mg/dL"
        },
        "referenceRange": [
          {
            "low": {
              "value": 8.6,
              "code": "mg/dL",
              "system": "http://unitsofmeasure.org"
            }
          },
          {
            "high": {
              "value": 10.4,
              "code": "mg/dL",
              "system": "http://unitsofmeasure.org"
            }
          }
        ],
        "text": {
          "status": "generated",
          "div": "<div xmlns=\"http://www.w3.org/1999/xhtml\"><table class=\"hl7__eu__lab__report\"><tr><th>Test</th><th>24-Oct-2024</th><th>Reference&#xA0;Range</th><th>Unit</th></tr><tr><td>Calcium [Mass/volume] in Blood</td><td>9.0</td><td>8.6 - 10.4</td><td></td><td>mg/dL</td></tr></table></div>"
        },
        "status": "final",
        "subject": {
          "reference": "urn:uuid:dd4e6cbd-946c-4209-ba21-06272ca236fe",
          "display": "Molly Jenkins"
        },
        "effectiveDateTime": "2024-10-24T14:42:11Z",
        "specimen": {
          "reference": "urn:uuid:82d24025-9168-4065-a5ea-ef86093a232d"
        }
      }
    },
    {
      "fullUrl": "urn:uuid:3b5eead2-4015-4cfb-9f92-8868578d803e",
      "resource": {
        "resourceType": "Observation",
        "id": "3b5eead2-4015-4cfb-9f92-8868578d803e",
        "meta": {
          "profile": [
            "http://hl7.eu/fhir/laboratory/StructureDefinition/Observation-resultslab-eu-lab"
          ]
        },
        "performer": [
          {
            "display": "The Central European Lab"
          }
        ],
        "category": [
          {
            "coding": [
              {
                "system": "http://terminology.hl7.org/CodeSystem/observation-category",
                "code": "laboratory"
              }
            ]
          }
        ],
        "code": {
          "coding": [
            {
              "code": "2947-0",
              "system": "http://loinc.org",
              "display": "Sodium [Moles/volume] in Blood"
            }
          ],
          "text": "Sodium [Moles/volume] in Blood"
        },
        "valueQuantity": {
          "system": "http://unitsofmeasure.org",
          "value": 141.4,
          "unit": "mmol/L",
          "code": "mmol/L"
        },
        "referenceRange": [
          {
            "low": {
              "value": 135,
              "code": "mmol/L",
              "system": "http://unitsofmeasure.org"
            }
          },
          {
            "high": {
              "value": 145,
              "code": "mmol/L",
              "system": "http://unitsofmeasure.org"
            }
          }
        ],
        "text": {
          "status": "generated",
          "div": "<div xmlns=\"http://www.w3.org/1999/xhtml\"><table class=\"hl7__eu__lab__report\"><tr><th>Test</th><th>24-Oct-2024</th><th>Reference&#xA0;Range</th><th>Unit</th></tr><tr><td>Sodium [Moles/volume] in Blood</td><td>141.4</td><td>135 - 145</td><td></td><td>mmol/L</td></tr></table></div>"
        },
        "status": "final",
        "subject": {
          "reference": "urn:uuid:dd4e6cbd-946c-4209-ba21-06272ca236fe",
          "display": "Molly Jenkins"
        },
        "effectiveDateTime": "2024-10-24T14:42:11Z",
        "specimen": {
          "reference": "urn:uuid:82d24025-9168-4065-a5ea-ef86093a232d"
        }
      }
    },
    {
      "fullUrl": "urn:uuid:f7502f32-9684-4ec8-bf6d-ebb80fd2bcd0",
      "resource": {
        "resourceType": "Observation",
        "id": "f7502f32-9684-4ec8-bf6d-ebb80fd2bcd0",
        "meta": {
          "profile": [
            "http://hl7.eu/fhir/laboratory/StructureDefinition/Observation-resultslab-eu-lab"
          ]
        },
        "performer": [
          {
            "display": "The Central European Lab"
          }
        ],
        "category": [
          {
            "coding": [
              {
                "system": "http://terminology.hl7.org/CodeSystem/observation-category",
                "code": "laboratory"
              }
            ]
          }
        ],
        "code": {
          "coding": [
            {
              "code": "6298-4",
              "system": "http://loinc.org",
              "display": "Potassium [Moles/volume] in Blood"
            }
          ],
          "text": "Potassium [Moles/volume] in Blood"
        },
        "valueQuantity": {
          "system": "http://unitsofmeasure.org",
          "value": 5.1,
          "unit": "mmol/L",
          "code": "mmol/L"
        },
        "referenceRange": [
          {
            "low": {
              "value": 3.5,
              "code": "mmol/L",
              "system": "http://unitsofmeasure.org"
            }
          },
          {
            "high": {
              "value": 5.1,
              "code": "mmol/L",
              "system": "http://unitsofmeasure.org"
            }
          }
        ],
        "text": {
          "status": "generated",
          "div": "<div xmlns=\"http://www.w3.org/1999/xhtml\"><table class=\"hl7__eu__lab__report\"><tr><th>Test</th><th>24-Oct-2024</th><th>Reference&#xA0;Range</th><th>Unit</th></tr><tr><td>Potassium [Moles/volume] in Blood</td><td>5.1</td><td>3.5 - 5.1</td><td></td><td>mmol/L</td></tr></table></div>"
        },
        "status": "final",
        "subject": {
          "reference": "urn:uuid:dd4e6cbd-946c-4209-ba21-06272ca236fe",
          "display": "Molly Jenkins"
        },
        "effectiveDateTime": "2024-10-24T14:42:11Z",
        "specimen": {
          "reference": "urn:uuid:82d24025-9168-4065-a5ea-ef86093a232d"
        }
      }
    },
    {
      "fullUrl": "urn:uuid:cf991611-95cb-4cc4-bb9f-aa3830c90a25",
      "resource": {
        "resourceType": "Observation",
        "id": "cf991611-95cb-4cc4-bb9f-aa3830c90a25",
        "meta": {
          "profile": [
            "http://hl7.eu/fhir/laboratory/StructureDefinition/Observation-resultslab-eu-lab"
          ]
        },
        "performer": [
          {
            "display": "The Central European Lab"
          }
        ],
        "category": [
          {
            "coding": [
              {
                "system": "http://terminology.hl7.org/CodeSystem/observation-category",
                "code": "laboratory"
              }
            ]
          }
        ],
        "code": {
          "coding": [
            {
              "code": "2069-3",
              "system": "http://loinc.org",
              "display": "Chloride [Moles/volume] in Blood"
            }
          ],
          "text": "Chloride [Moles/volume] in Blood"
        },
        "valueQuantity": {
          "system": "http://unitsofmeasure.org",
          "value": 103.4,
          "unit": "mmol/L",
          "code": "mmol/L"
        },
        "referenceRange": [
          {
            "low": {
              "value": 98,
              "code": "mmol/L",
              "system": "http://unitsofmeasure.org"
            }
          },
          {
            "high": {
              "value": 110,
              "code": "mmol/L",
              "system": "http://unitsofmeasure.org"
            }
          }
        ],
        "text": {
          "status": "generated",
          "div": "<div xmlns=\"http://www.w3.org/1999/xhtml\"><table class=\"hl7__eu__lab__report\"><tr><th>Test</th><th>24-Oct-2024</th><th>Reference&#xA0;Range</th><th>Unit</th></tr><tr><td>Chloride [Moles/volume] in Blood</td><td>103.4</td><td>98 - 110</td><td></td><td>mmol/L</td></tr></table></div>"
        },
        "status": "final",
        "subject": {
          "reference": "urn:uuid:dd4e6cbd-946c-4209-ba21-06272ca236fe",
          "display": "Molly Jenkins"
        },
        "effectiveDateTime": "2024-10-24T14:42:11Z",
        "specimen": {
          "reference": "urn:uuid:82d24025-9168-4065-a5ea-ef86093a232d"
        }
      }
    },
    {
      "fullUrl": "urn:uuid:466aca9c-116a-496b-bfbb-7e6bb808ae3c",
      "resource": {
        "resourceType": "Observation",
        "id": "466aca9c-116a-496b-bfbb-7e6bb808ae3c",
        "meta": {
          "profile": [
            "http://hl7.eu/fhir/laboratory/StructureDefinition/Observation-resultslab-eu-lab"
          ]
        },
        "performer": [
          {
            "display": "The Central European Lab"
          }
        ],
        "category": [
          {
            "coding": [
              {
                "system": "http://terminology.hl7.org/CodeSystem/observation-category",
                "code": "laboratory"
              }
            ]
          }
        ],
        "code": {
          "coding": [
            {
              "code": "20565-8",
              "system": "http://loinc.org",
              "display": "Carbon dioxide, total [Moles/volume] in Blood"
            }
          ],
          "text": "Carbon dioxide, total [Moles/volume] in Blood"
        },
        "valueQuantity": {
          "system": "http://unitsofmeasure.org",
          "value": 21.5,
          "unit": "mmol/L",
          "code": "mmol/L"
        },
        "referenceRange": [
          {
            "low": {
              "value": 22,
              "code": "mmol/L",
              "system": "http://unitsofmeasure.org"
            }
          },
          {
            "high": {
              "value": 29,
              "code": "mmol/L",
              "system": "http://unitsofmeasure.org"
            }
          }
        ],
        "interpretation": [
          {
            "coding": [
              {
                "code": "L",
                "system": "http://terminology.hl7.org/CodeSystem/v3-ObservationInterpretation",
                "display": "Low"
              }
            ]
          }
        ],
        "text": {
          "status": "generated",
          "div": "<div xmlns=\"http://www.w3.org/1999/xhtml\"><table class=\"hl7__eu__lab__report\"><tr><th>Test</th><th>24-Oct-2024</th><th>Reference&#xA0;Range</th><th>Unit</th></tr><tr><td>Carbon dioxide, total [Moles/volume] in Blood</td><td>21.5</td><td>22 - 29</td><td>L</td><td>mmol/L</td></tr></table></div>"
        },
        "status": "final",
        "subject": {
          "reference": "urn:uuid:dd4e6cbd-946c-4209-ba21-06272ca236fe",
          "display": "Molly Jenkins"
        },
        "effectiveDateTime": "2024-10-24T14:42:11Z",
        "specimen": {
          "reference": "urn:uuid:82d24025-9168-4065-a5ea-ef86093a232d"
        }
      }
    },
    {
      "fullUrl": "urn:uuid:915de5e8-2898-48ab-99c2-424c520f8e64",
      "resource": {
        "resourceType": "Device",
        "id": "915de5e8-2898-48ab-99c2-424c520f8e64",
        "deviceName": [
          {
            "name": "SYNDERAI Synthetic Generator",
            "type": "manufacturer-name"
          }
        ],
        "version": [
          {
            "value": "5.0"
          }
        ],
        "text": {
          "status": "generated",
          "div": "<div xmlns=\"http://www.w3.org/1999/xhtml\">SYNDERAI Synthetic Generator v5.0</div>"
        },
        "status": "active\"",
        "distinctIdentifier": "synderai-generator-50",
        "manufacturer": "SYNDERAI Project"
      }
    },
    {
      "fullUrl": "urn:uuid:a021580f-240f-4d55-807d-1eaee96249e1",
      "resource": {
        "resourceType": "Provenance",
        "id": "a021580f-240f-4d55-807d-1eaee96249e1",
        "target": [
          {
            "reference": "Patient/dd4e6cbd-946c-4209-ba21-06272ca236fe"
          },
          {
            "reference": "Bundle/31fe3c9c-458b-4f64-8d0b-8d8b42c12bb1"
          },
          {
            "reference": "Composition/c8ce1a25-e35d-4849-a351-b1d170808721"
          },
          {
            "reference": "PractitionerRole/efbbfcbe-1a7d-482a-91c9-105534b760cf"
          },
          {
            "reference": "Practitioner/81411596-b293-4dd8-aba6-643743e7a51a"
          },
          {
            "reference": "PractitionerRole/407620f6-d0ba-4ef6-a95f-c42c723af308"
          },
          {
            "reference": "Organization/72ff06a9-2154-4e37-8b0b-0ca9a2bd53e2"
          }
        ],
        "activity": {
          "text": "Synthetic Example Data Generation"
        },
        "policy": [
          "https://synderai.net/synderai-synthetic-data-policy"
        ],
        "agent": [
          {
            "type": {
              "text": "author"
            },
            "who": {
              "reference": "Device/915de5e8-2898-48ab-99c2-424c520f8e64"
            }
          }
        ],
        "reason": [
          {
            "text": "Interoperability Testing and Training (non-clinical use)"
          }
        ],
        "text": {
          "status": "generated",
          "div": "<div xmlns=\"http://www.w3.org/1999/xhtml\">Provenance for SYNDERAI Synthetic Example Data Resource</div>"
        },
        "recorded": "2024-10-24T16:42:11Z"
      }
    },
    {
      "fullUrl": "urn:uuid:efbbfcbe-1a7d-482a-91c9-105534b760cf",
      "resource": {
        "resourceType": "PractitionerRole",
        "id": "efbbfcbe-1a7d-482a-91c9-105534b760cf",
        "meta": {
          "profile": [
            "http://hl7.eu/fhir/base/StructureDefinition/practitionerRole-eu"
          ]
        },
        "text": {
          "status": "generated",
          "div": "<div xmlns=\"http://www.w3.org/1999/xhtml\">Laboratory Role Id: efbbfcbe-1a7d-482a-91c9-105534b760cf</div>"
        },
        "practitioner": {
          "reference": "urn:uuid:81411596-b293-4dd8-aba6-643743e7a51a"
        }
      }
    },
    {
      "fullUrl": "urn:uuid:81411596-b293-4dd8-aba6-643743e7a51a",
      "resource": {
        "resourceType": "Practitioner",
        "id": "81411596-b293-4dd8-aba6-643743e7a51a",
        "meta": {
          "profile": [
            "http://hl7.eu/fhir/base/StructureDefinition/practitioner-eu"
          ]
        },
        "identifier": [
          {
            "assigner": {
              "display": "HL7 Europe"
            },
            "system": "urn:oid:2.16.840.1.113883.2.51.999",
            "value": "ffbacb3a-c9fc-40d9-955f-b5bee6f64347"
          }
        ],
        "name": [
          {
            "prefix": [
              "dr"
            ],
            "given": [
              "Ex"
            ],
            "family": "Ample"
          }
        ],
        "address": [
          {
            "line": [
              "Laboratoire Central Européenne",
              "Boulevard du Jardin Botanique 32"
            ],
            "postalCode": "1000",
            "city": "Brussels",
            "country": "Belgium"
          }
        ],
        "text": {
          "status": "generated",
          "div": "<div xmlns=\"http://www.w3.org/1999/xhtml\">Laboratory: Laboratoire Central Européenne, 1000 Brussels, Belgium</div>"
        }
      }
    }
  ],
  "type": "document",
  "timestamp": "2024-10-24T16:42:11Z"
}
