{
  "resourceType": "Bundle",
  "id": "c76cb22c-713b-477d-8aa5-397e6df2cbb8",
  "meta": {
    "profile": [
      "http://hl7.eu/fhir/laboratory/StructureDefinition/Bundle-eu-lab"
    ]
  },
  "identifier": {
    "assigner": {
      "display": "HL7 Europe"
    },
    "system": "urn:oid:2.16.840.1.113883.2.51.999",
    "value": "944e7fdc-9b33-486e-a546-4ab7705a2cd7"
  },
  "entry": [
    {
      "fullUrl": "urn:uuid:69ffaf11-fbbc-41db-8acb-e1437dd100c0",
      "resource": {
        "resourceType": "Composition",
        "id": "69ffaf11-fbbc-41db-8acb-e1437dd100c0",
        "meta": {
          "profile": [
            "http://hl7.eu/fhir/laboratory/StructureDefinition/Composition-eu-lab"
          ]
        },
        "identifier": {
          "assigner": {
            "display": "HL7 Europe"
          },
          "system": "urn:oid:2.16.840.1.113883.2.51.999",
          "value": "3910901a-82c2-4772-9740-652895511ce2"
        },
        "author": [
          {
            "reference": "urn:uuid:e7b69a87-ee05-4485-8c9c-e200a4784452"
          }
        ],
        "category": [
          {
            "coding": [
              {
                "code": "26436-6",
                "system": "http://loinc.org",
                "display": "Laboratory studies (set)"
              }
            ]
          }
        ],
        "type": {
          "coding": [
            {
              "code": "11502-2",
              "system": "http://loinc.org",
              "display": "Laboratory report"
            }
          ],
          "text": "Laboratory Report"
        },
        "section": [
          {
            "code": {
              "coding": [
                {
                  "code": "26436-6",
                  "system": "http://loinc.org",
                  "display": "Laboratory studies (set)"
                }
              ],
              "text": "Laboratory studies"
            },
            "section": [
              {
                "code": {
                  "coding": [
                    {
                      "code": "$18719-5",
                      "system": "http://loinc.org",
                      "display": "Chemistry studies (set)"
                    }
                  ],
                  "text": "Chemistry"
                },
                "entry": [
                  {
                    "reference": "urn:uuid:f567bce7-3a4c-44f1-924d-7376eaefce0b"
                  },
                  {
                    "reference": "urn:uuid:e989f472-9cd3-4ac6-8aaf-8bf9a43b254f"
                  },
                  {
                    "reference": "urn:uuid:f501a8bd-c919-46f2-aad2-fb1c4f44d485"
                  },
                  {
                    "reference": "urn:uuid:cb44d38e-26e4-4a4c-8bce-a7d5b25670ba"
                  },
                  {
                    "reference": "urn:uuid:330beddc-e2c0-4c1b-b453-f79a6207f18b"
                  },
                  {
                    "reference": "urn:uuid:afe7f334-f074-424c-a5c7-7dc443a3282d"
                  },
                  {
                    "reference": "urn:uuid:13c8da88-bc38-4b2f-8c16-c4f3e160e982"
                  },
                  {
                    "reference": "urn:uuid:7b11841e-007e-481b-869c-19e6a48b39ee"
                  },
                  {
                    "reference": "urn:uuid:421f51e3-2324-4b49-96a8-266e59eb61f1"
                  },
                  {
                    "reference": "urn:uuid:9639f352-0604-486a-8b09-2b8bebe9994d"
                  },
                  {
                    "reference": "urn:uuid:11410f62-b946-4840-92d9-bbc048598515"
                  },
                  {
                    "reference": "urn:uuid:5dccd5a6-cf4e-474e-bb23-40f3438a2787"
                  },
                  {
                    "reference": "urn:uuid:dec648d2-3581-47e2-9aad-968074824357"
                  },
                  {
                    "reference": "urn:uuid:cc0d8a3b-ab5d-4f0a-b8a7-1837c130db8f"
                  },
                  {
                    "reference": "urn:uuid:08ee3123-6caf-4935-b3d9-50140081935b"
                  },
                  {
                    "reference": "urn:uuid:0ba0e9ca-a30c-4081-801c-be5d38ebc395"
                  },
                  {
                    "reference": "urn:uuid:cad46d12-590a-4098-99ba-a62fddf19735"
                  },
                  {
                    "reference": "urn:uuid:9b635f6c-55ca-42af-a606-397858d3316f"
                  },
                  {
                    "reference": "urn:uuid:550e7331-fbee-4f8f-bad8-f00b191f5671"
                  }
                ],
                "text": {
                  "status": "generated",
                  "div": "<div xmlns=\"http://www.w3.org/1999/xhtml\"><h3>Chemistry</h3><table class=\"hl7__eu__lab__report\"><thead><tr><th>Test</th><th>12-APR-2022</th><th>Reference&#xA0;Range</th><th>Unit</th></tr></thead><tbody><tr><td>Glucose [Mass/volume] in Blood</td><td>98.3</td><td>70 - 140</td><td>mg/dL</td></tr><tr><td>Urea nitrogen [Mass/volume] in Blood</td><td>10.3</td><td>7 - 20</td><td>mg/dL</td></tr><tr><td>Creatinine [Mass/volume] in Blood</td><td><strong>3.2 H</strong></td><td>0.6 - 1.1</td><td>mg/dL</td></tr><tr><td>Calcium [Mass/volume] in Blood</td><td>8.7</td><td>8.5 - 10.4</td><td>mg/dL</td></tr><tr><td>Sodium [Moles/volume] in Blood</td><td>139.2</td><td>135 - 145</td><td>mmol/L</td></tr><tr><td>Potassium [Moles/volume] in Blood</td><td>4.7</td><td>3.5 - 5.1</td><td>mmol/L</td></tr><tr><td>Chloride [Moles/volume] in Blood</td><td>101.9</td><td>98 - 108</td><td>mmol/L</td></tr><tr><td>Carbon dioxide, total [Moles/volume] in Blood</td><td><strong>20.4 L</strong></td><td>22 - 29</td><td>mmol/L</td></tr><tr><td>Protein [Mass/volume] in Serum or Plasma</td><td>7.1</td><td>6 - 8.3</td><td>g/dL</td></tr><tr><td>Albumin [Mass/volume] in Serum or Plasma</td><td><strong>5.4 H</strong></td><td>3.4 - 5</td><td>g/dL</td></tr><tr><td>Globulin [Mass/volume] in Serum by calculation</td><td>2.1</td><td>2 - 3.5</td><td>g/L</td></tr><tr><td>Bilirubin.total [Mass/volume] in Serum or Plasma</td><td>0.7</td><td>0.2 - 1.2</td><td>mg/dL</td></tr><tr><td>Alkaline phosphatase [Enzymatic activity/volume] in Serum or Plasma</td><td><strong>139.8 H</strong></td><td>44 - 104</td><td>U/L</td></tr><tr><td>Alanine aminotransferase [Enzymatic activity/volume] in Serum or Plasma</td><td><strong>56.7 H</strong></td><td>13 - 36</td><td>U/L</td></tr><tr><td>Aspartate aminotransferase [Enzymatic activity/volume] in Serum or Plasma</td><td>17.5</td><td>10 - 40</td><td>U/L</td></tr><tr><td>Cholesterol [Mass/volume] in Serum or Plasma</td><td>171.4</td><td>130 - 200</td><td>mg/dL</td></tr><tr><td>Triglyceride [Mass/volume] in Serum or Plasma</td><td>144.5</td><td>35 - 175</td><td>mg/dL</td></tr><tr><td>Cholesterol in LDL [Mass/volume] in Serum or Plasma by Direct assay</td><td>126.5</td><td>0 - 190</td><td>mg/dL</td></tr><tr><td>Cholesterol in HDL [Mass/volume] in Serum or Plasma</td><td><strong>48.7 L</strong></td><td>50 - 100</td><td>mg/dL</td></tr></tbody></table></div>"
                },
                "title": "Chemistry"
              }
            ],
            "title": "Laboratory Report"
          },
          {
            "text": {
              "status": "generated",
              "div": "<div xmlns=\"http://www.w3.org/1999/xhtml\"><h3>Annotation</h3><table class=\"hl7__eu__lab__report\"><tr><th>Conclusion and Recommendations based on this report and previous findings known to us</th></tr><tr><td>The patient shows elevated creatinine, suggesting impaired renal function, and low total CO₂, which may indicate metabolic acidosis. Liver enzymes (ALP, ALT) are elevated, pointing to possible hepatobiliary involvement. Albumin is slightly high, and HDL cholesterol is mildly low. Other parameters are within normal limits. Recommend further evaluation of renal and liver function and assessment for underlying causes.</td></tr></table></div>"
            },
            "code": {
              "coding": [
                {
                  "system": "http://loinc.org",
                  "code": "48767-8",
                  "display": "Annotation comment"
                }
              ]
            },
            "title": "Annotation comment"
          }
        ],
        "status": "final",
        "subject": {
          "reference": "urn:uuid:de757c64-7120-440e-a1cd-43b27324d3db",
          "display": "Eileen Taylor"
        },
        "date": "2022-04-12T07:47:02Z",
        "title": "Laboratory Report",
        "confidentiality": "N"
      }
    },
    {
      "fullUrl": "urn:uuid:63ca2add-791f-4a29-bf27-e3abdb579d2f",
      "resource": {
        "resourceType": "DiagnosticReport",
        "id": "63ca2add-791f-4a29-bf27-e3abdb579d2f",
        "meta": {
          "profile": [
            "http://hl7.eu/fhir/laboratory/StructureDefinition/DiagnosticReport-eu-lab"
          ]
        },
        "identifier": [
          {
            "assigner": {
              "display": "HL7 Europe"
            },
            "system": "urn:oid:2.16.840.1.113883.2.51.999",
            "value": "58adda1e-03fe-443d-a60f-341fbc371b1f"
          }
        ],
        "extension": [
          {
            "url": "http://hl7.org/fhir/5.0/StructureDefinition/extension-DiagnosticReport.composition",
            "valueReference": {
              "reference": "urn:uuid:3910901a-82c2-4772-9740-652895511ce2"
            }
          }
        ],
        "category": [
          {
            "coding": [
              {
                "code": "26436-6",
                "system": "http://loinc.org",
                "display": "Laboratory studies (set)"
              }
            ]
          }
        ],
        "specimen": [
          {
            "reference": "urn:uuid:fd64ba34-3163-449b-ba8a-d648d857802e"
          },
          {
            "reference": "urn:uuid:8b3abda8-09e1-4e01-9a19-9d3256e30902"
          },
          {
            "reference": "urn:uuid:e33e3baf-4a00-4815-8d80-006ae4b52dcb"
          }
        ],
        "result": [
          {
            "reference": "urn:uuid:f567bce7-3a4c-44f1-924d-7376eaefce0b"
          },
          {
            "reference": "urn:uuid:e989f472-9cd3-4ac6-8aaf-8bf9a43b254f"
          },
          {
            "reference": "urn:uuid:f501a8bd-c919-46f2-aad2-fb1c4f44d485"
          },
          {
            "reference": "urn:uuid:cb44d38e-26e4-4a4c-8bce-a7d5b25670ba"
          },
          {
            "reference": "urn:uuid:330beddc-e2c0-4c1b-b453-f79a6207f18b"
          },
          {
            "reference": "urn:uuid:afe7f334-f074-424c-a5c7-7dc443a3282d"
          },
          {
            "reference": "urn:uuid:13c8da88-bc38-4b2f-8c16-c4f3e160e982"
          },
          {
            "reference": "urn:uuid:7b11841e-007e-481b-869c-19e6a48b39ee"
          },
          {
            "reference": "urn:uuid:421f51e3-2324-4b49-96a8-266e59eb61f1"
          },
          {
            "reference": "urn:uuid:9639f352-0604-486a-8b09-2b8bebe9994d"
          },
          {
            "reference": "urn:uuid:11410f62-b946-4840-92d9-bbc048598515"
          },
          {
            "reference": "urn:uuid:5dccd5a6-cf4e-474e-bb23-40f3438a2787"
          },
          {
            "reference": "urn:uuid:dec648d2-3581-47e2-9aad-968074824357"
          },
          {
            "reference": "urn:uuid:cc0d8a3b-ab5d-4f0a-b8a7-1837c130db8f"
          },
          {
            "reference": "urn:uuid:08ee3123-6caf-4935-b3d9-50140081935b"
          },
          {
            "reference": "urn:uuid:0ba0e9ca-a30c-4081-801c-be5d38ebc395"
          },
          {
            "reference": "urn:uuid:cad46d12-590a-4098-99ba-a62fddf19735"
          },
          {
            "reference": "urn:uuid:9b635f6c-55ca-42af-a606-397858d3316f"
          },
          {
            "reference": "urn:uuid:550e7331-fbee-4f8f-bad8-f00b191f5671"
          }
        ],
        "status": "registered",
        "code": {
          "coding": [
            {
              "code": "11502-2",
              "system": "http://loinc.org",
              "display": "Laboratory report"
            }
          ]
        },
        "subject": {
          "reference": "urn:uuid:de757c64-7120-440e-a1cd-43b27324d3db",
          "display": "Eileen Taylor"
        }
      }
    },
    {
      "fullUrl": "urn:uuid:de757c64-7120-440e-a1cd-43b27324d3db",
      "resource": {
        "resourceType": "Patient",
        "id": "de757c64-7120-440e-a1cd-43b27324d3db",
        "meta": {
          "security": [
            {
              "system": "http://terminology.hl7.org/CodeSystem/v3-ActReason",
              "code": "HTEST"
            },
            {
              "system": "http://terminology.hl7.org/CodeSystem/v3-ActReason",
              "code": "TRAIN"
            }
          ],
          "tag": [
            {
              "system": "https://synderai.net/fhir/CodeSystem/tags",
              "code": "synthetic",
              "display": "SYNDERAI Synthetic data"
            }
          ],
          "profile": [
            "http://hl7.eu/fhir/base/StructureDefinition/patient-eu-core"
          ]
        },
        "identifier": [
          {
            "type": {
              "coding": [
                {
                  "code": "PT",
                  "system": "http://terminology.hl7.org/CodeSystem/v2-0203"
                }
              ]
            },
            "system": "http://ec.europa.eu/identifier/eci",
            "value": "6172-576075-7"
          },
          {
            "type": {
              "coding": [
                {
                  "code": "MR",
                  "system": "http://terminology.hl7.org/CodeSystem/v2-0203"
                }
              ]
            },
            "system": "http://local.setting.eu/identifier",
            "value": "f7f175da-cf0d-5686-8800-840d9ab7b47b"
          }
        ],
        "name": [
          {
            "family": "Taylor"
          },
          {
            "given": [
              "Eileen"
            ]
          },
          {
            "text": "Eileen Taylor"
          }
        ],
        "address": [
          {
            "line": [
              "39 Slater harbors"
            ],
            "use": "home",
            "type": "physical",
            "postalCode": "LE17",
            "city": "Smithtown",
            "country": "United Kingdom"
          }
        ],
        "telecom": [
          {
            "system": "phone",
            "value": "+44(0)1614960460"
          }
        ],
        "extension": [
          {
            "url": "http://hl7.org/fhir/StructureDefinition/patient-nationality",
            "valueCodeableConcept": {
              "coding": [
                {
                  "code": "GB",
                  "system": "http://hl7.org/fhir/ValueSet/country"
                }
              ]
            }
          }
        ],
        "text": {
          "status": "generated",
          "div": "<div xmlns=\"http://www.w3.org/1999/xhtml\"><table class=\"hl7__ips\"><tr><td>Eileen Taylor</td><td>female</td><td>11-Dec-1951</td></tr></table></div>"
        },
        "gender": "female",
        "birthDate": "1951-12-11"
      }
    },
    {
      "fullUrl": "urn:uuid:a31db428-35f9-4ff4-86aa-5aa5e542cd78",
      "resource": {
        "resourceType": "ServiceRequest",
        "id": "a31db428-35f9-4ff4-86aa-5aa5e542cd78",
        "meta": {
          "profile": [
            "http://hl7.eu/fhir/laboratory/StructureDefinition/ServiceRequest-eu-lab"
          ]
        },
        "identifier": [
          {
            "system": "http://example.org",
            "value": "998b10af-bbbe-4f65-8315-a9d3e837a086"
          }
        ],
        "specimen": [
          {
            "reference": "urn:uuid:fd64ba34-3163-449b-ba8a-d648d857802e"
          },
          {
            "reference": "urn:uuid:8b3abda8-09e1-4e01-9a19-9d3256e30902"
          },
          {
            "reference": "urn:uuid:e33e3baf-4a00-4815-8d80-006ae4b52dcb"
          }
        ],
        "reasonCode": [
          {
            "coding": [
              {
                "code": "203082005",
                "system": "http://snomed.info/sct",
                "display": "Fibromyalgia"
              }
            ]
          },
          {
            "coding": [
              {
                "code": "239873007",
                "system": "http://snomed.info/sct",
                "display": "Osteoarthritis of knee"
              }
            ]
          },
          {
            "coding": [
              {
                "code": "55822004",
                "system": "http://snomed.info/sct",
                "display": "Hyperlipidemia"
              }
            ]
          },
          {
            "coding": [
              {
                "code": "254837009",
                "system": "http://snomed.info/sct",
                "display": "Malignant neoplasm of breast"
              }
            ]
          },
          {
            "coding": [
              {
                "code": "197927001",
                "system": "http://snomed.info/sct",
                "display": "Recurrent urinary tract infection"
              }
            ]
          }
        ],
        "status": "active",
        "intent": "order",
        "code": {
          "coding": [
            {
              "code": "108252007",
              "system": "http://snomed.info/sct",
              "display": "Laboratory procedure"
            }
          ]
        },
        "subject": {
          "reference": "urn:uuid:de757c64-7120-440e-a1cd-43b27324d3db",
          "display": "Eileen Taylor"
        },
        "requester": {
          "reference": "urn:uuid:e4872667-4bbb-49ea-8440-15b60e05a24e"
        }
      }
    },
    {
      "fullUrl": "urn:uuid:e4872667-4bbb-49ea-8440-15b60e05a24e",
      "resource": {
        "resourceType": "PractitionerRole",
        "id": "e4872667-4bbb-49ea-8440-15b60e05a24e",
        "meta": {
          "profile": [
            "http://hl7.eu/fhir/base/StructureDefinition/practitionerRole-eu"
          ]
        },
        "text": {
          "status": "generated",
          "div": "<div xmlns=\"http://www.w3.org/1999/xhtml\">Provider Role Id: e4872667-4bbb-49ea-8440-15b60e05a24e</div>"
        },
        "organization": {
          "reference": "urn:uuid:ba4b5419-a613-494c-872a-4bdaae6e234f"
        }
      }
    },
    {
      "fullUrl": "urn:uuid:ba4b5419-a613-494c-872a-4bdaae6e234f",
      "resource": {
        "resourceType": "Organization",
        "id": "ba4b5419-a613-494c-872a-4bdaae6e234f",
        "meta": {
          "profile": [
            "http://hl7.eu/fhir/base/StructureDefinition/organization-eu"
          ]
        },
        "identifier": [
          {
            "assigner": {
              "display": "HL7 Europe"
            },
            "system": "urn:oid:2.16.840.1.113883.2.51.999",
            "value": "08d92b92-d76b-464e-88ec-6b90193201b2"
          }
        ],
        "address": [
          {
            "city": "Leicester",
            "postalCode": "LE2 7",
            "country": "United Kingdom"
          }
        ],
        "text": {
          "status": "generated",
          "div": "<div xmlns=\"http://www.w3.org/1999/xhtml\">Provider Organization: Leicester Royal Infirmary</div>"
        },
        "name": "Leicester Royal Infirmary"
      }
    },
    {
      "fullUrl": "urn:uuid:fd64ba34-3163-449b-ba8a-d648d857802e",
      "resource": {
        "resourceType": "Specimen",
        "id": "fd64ba34-3163-449b-ba8a-d648d857802e",
        "meta": {
          "profile": [
            "http://hl7.eu/fhir/laboratory/StructureDefinition/Specimen-eu-lab"
          ]
        },
        "collection": {
          "collectedDateTime": "2022-04-12"
        },
        "text": {
          "status": "generated",
          "div": "<div xmlns=\"http://www.w3.org/1999/xhtml\"><table class=\"hl7__eu__lab__report\"><tr><th>Specimen</th><th>Collection Date</th></tr><tr><td>Whole blood specimen (specimen)</td><td><span class=\"nb\">12-Apr-2022</span></td></tr></table></div>"
        },
        "type": {
          "coding": [
            {
              "code": "258580003",
              "system": "http://snomed.info/sct",
              "display": "Whole blood specimen (specimen)"
            }
          ]
        }
      }
    },
    {
      "fullUrl": "urn:uuid:8b3abda8-09e1-4e01-9a19-9d3256e30902",
      "resource": {
        "resourceType": "Specimen",
        "id": "8b3abda8-09e1-4e01-9a19-9d3256e30902",
        "meta": {
          "profile": [
            "http://hl7.eu/fhir/laboratory/StructureDefinition/Specimen-eu-lab"
          ]
        },
        "collection": {
          "collectedDateTime": "2022-04-12"
        },
        "text": {
          "status": "generated",
          "div": "<div xmlns=\"http://www.w3.org/1999/xhtml\"><table class=\"hl7__eu__lab__report\"><tr><th>Specimen</th><th>Collection Date</th></tr><tr><td>Acellular blood (serum or plasma) specimen</td><td><span class=\"nb\">12-Apr-2022</span></td></tr></table></div>"
        },
        "type": {
          "coding": [
            {
              "code": "122592007",
              "system": "http://snomed.info/sct",
              "display": "Acellular blood (serum or plasma) specimen"
            }
          ]
        }
      }
    },
    {
      "fullUrl": "urn:uuid:e33e3baf-4a00-4815-8d80-006ae4b52dcb",
      "resource": {
        "resourceType": "Specimen",
        "id": "e33e3baf-4a00-4815-8d80-006ae4b52dcb",
        "meta": {
          "profile": [
            "http://hl7.eu/fhir/laboratory/StructureDefinition/Specimen-eu-lab"
          ]
        },
        "collection": {
          "collectedDateTime": "2022-04-12"
        },
        "text": {
          "status": "generated",
          "div": "<div xmlns=\"http://www.w3.org/1999/xhtml\"><table class=\"hl7__eu__lab__report\"><tr><th>Specimen</th><th>Collection Date</th></tr><tr><td>Serum specimen</td><td><span class=\"nb\">12-Apr-2022</span></td></tr></table></div>"
        },
        "type": {
          "coding": [
            {
              "code": "119364003",
              "system": "http://snomed.info/sct",
              "display": "Serum specimen"
            }
          ]
        }
      }
    },
    {
      "fullUrl": "urn:uuid:f567bce7-3a4c-44f1-924d-7376eaefce0b",
      "resource": {
        "resourceType": "Observation",
        "id": "f567bce7-3a4c-44f1-924d-7376eaefce0b",
        "meta": {
          "profile": [
            "http://hl7.eu/fhir/laboratory/StructureDefinition/Observation-resultslab-eu-lab"
          ]
        },
        "performer": [
          {
            "display": "The Central European Lab"
          }
        ],
        "category": [
          {
            "coding": [
              {
                "system": "http://terminology.hl7.org/CodeSystem/observation-category",
                "code": "laboratory"
              }
            ]
          }
        ],
        "code": {
          "coding": [
            {
              "code": "2339-0",
              "system": "http://loinc.org",
              "display": "Glucose [Mass/volume] in Blood"
            }
          ],
          "text": "Glucose [Mass/volume] in Blood"
        },
        "valueQuantity": {
          "system": "http://unitsofmeasure.org",
          "value": 98.3,
          "unit": "mg/dL",
          "code": "mg/dL"
        },
        "referenceRange": [
          {
            "low": {
              "value": 70,
              "code": "mg/dL",
              "system": "http://unitsofmeasure.org"
            }
          },
          {
            "high": {
              "value": 140,
              "code": "mg/dL",
              "system": "http://unitsofmeasure.org"
            }
          }
        ],
        "text": {
          "status": "generated",
          "div": "<div xmlns=\"http://www.w3.org/1999/xhtml\"><table class=\"hl7__eu__lab__report\"><tr><th>Test</th><th>12-Apr-2022</th><th>Reference&#xA0;Range</th><th>Unit</th></tr><tr><td>Glucose [Mass/volume] in Blood</td><td>98.3</td><td>70 - 140</td><td></td><td>mg/dL</td></tr></table></div>"
        },
        "status": "final",
        "subject": {
          "reference": "urn:uuid:de757c64-7120-440e-a1cd-43b27324d3db",
          "display": "Eileen Taylor"
        },
        "effectiveDateTime": "2022-04-12T05:47:02Z",
        "specimen": {
          "reference": "urn:uuid:fd64ba34-3163-449b-ba8a-d648d857802e"
        }
      }
    },
    {
      "fullUrl": "urn:uuid:e989f472-9cd3-4ac6-8aaf-8bf9a43b254f",
      "resource": {
        "resourceType": "Observation",
        "id": "e989f472-9cd3-4ac6-8aaf-8bf9a43b254f",
        "meta": {
          "profile": [
            "http://hl7.eu/fhir/laboratory/StructureDefinition/Observation-resultslab-eu-lab"
          ]
        },
        "performer": [
          {
            "display": "The Central European Lab"
          }
        ],
        "category": [
          {
            "coding": [
              {
                "system": "http://terminology.hl7.org/CodeSystem/observation-category",
                "code": "laboratory"
              }
            ]
          }
        ],
        "code": {
          "coding": [
            {
              "code": "6299-2",
              "system": "http://loinc.org",
              "display": "Urea nitrogen [Mass/volume] in Blood"
            }
          ],
          "text": "Urea nitrogen [Mass/volume] in Blood"
        },
        "valueQuantity": {
          "system": "http://unitsofmeasure.org",
          "value": 10.3,
          "unit": "mg/dL",
          "code": "mg/dL"
        },
        "referenceRange": [
          {
            "low": {
              "value": 7,
              "code": "mg/dL",
              "system": "http://unitsofmeasure.org"
            }
          },
          {
            "high": {
              "value": 20,
              "code": "mg/dL",
              "system": "http://unitsofmeasure.org"
            }
          }
        ],
        "text": {
          "status": "generated",
          "div": "<div xmlns=\"http://www.w3.org/1999/xhtml\"><table class=\"hl7__eu__lab__report\"><tr><th>Test</th><th>12-Apr-2022</th><th>Reference&#xA0;Range</th><th>Unit</th></tr><tr><td>Urea nitrogen [Mass/volume] in Blood</td><td>10.3</td><td>7 - 20</td><td></td><td>mg/dL</td></tr></table></div>"
        },
        "status": "final",
        "subject": {
          "reference": "urn:uuid:de757c64-7120-440e-a1cd-43b27324d3db",
          "display": "Eileen Taylor"
        },
        "effectiveDateTime": "2022-04-12T05:47:02Z",
        "specimen": {
          "reference": "urn:uuid:fd64ba34-3163-449b-ba8a-d648d857802e"
        }
      }
    },
    {
      "fullUrl": "urn:uuid:f501a8bd-c919-46f2-aad2-fb1c4f44d485",
      "resource": {
        "resourceType": "Observation",
        "id": "f501a8bd-c919-46f2-aad2-fb1c4f44d485",
        "meta": {
          "profile": [
            "http://hl7.eu/fhir/laboratory/StructureDefinition/Observation-resultslab-eu-lab"
          ]
        },
        "performer": [
          {
            "display": "The Central European Lab"
          }
        ],
        "category": [
          {
            "coding": [
              {
                "system": "http://terminology.hl7.org/CodeSystem/observation-category",
                "code": "laboratory"
              }
            ]
          }
        ],
        "code": {
          "coding": [
            {
              "code": "38483-4",
              "system": "http://loinc.org",
              "display": "Creatinine [Mass/volume] in Blood"
            }
          ],
          "text": "Creatinine [Mass/volume] in Blood"
        },
        "valueQuantity": {
          "system": "http://unitsofmeasure.org",
          "value": 3.2,
          "unit": "mg/dL",
          "code": "mg/dL"
        },
        "referenceRange": [
          {
            "low": {
              "value": 0.6,
              "code": "mg/dL",
              "system": "http://unitsofmeasure.org"
            }
          },
          {
            "high": {
              "value": 1.1,
              "code": "mg/dL",
              "system": "http://unitsofmeasure.org"
            }
          }
        ],
        "interpretation": [
          {
            "coding": [
              {
                "code": "H",
                "system": "http://terminology.hl7.org/CodeSystem/v3-ObservationInterpretation",
                "display": "High"
              }
            ]
          }
        ],
        "text": {
          "status": "generated",
          "div": "<div xmlns=\"http://www.w3.org/1999/xhtml\"><table class=\"hl7__eu__lab__report\"><tr><th>Test</th><th>12-Apr-2022</th><th>Reference&#xA0;Range</th><th>Unit</th></tr><tr><td>Creatinine [Mass/volume] in Blood</td><td>3.2</td><td>0.6 - 1.1</td><td>H</td><td>mg/dL</td></tr></table></div>"
        },
        "status": "final",
        "subject": {
          "reference": "urn:uuid:de757c64-7120-440e-a1cd-43b27324d3db",
          "display": "Eileen Taylor"
        },
        "effectiveDateTime": "2022-04-12T05:47:02Z",
        "specimen": {
          "reference": "urn:uuid:fd64ba34-3163-449b-ba8a-d648d857802e"
        }
      }
    },
    {
      "fullUrl": "urn:uuid:cb44d38e-26e4-4a4c-8bce-a7d5b25670ba",
      "resource": {
        "resourceType": "Observation",
        "id": "cb44d38e-26e4-4a4c-8bce-a7d5b25670ba",
        "meta": {
          "profile": [
            "http://hl7.eu/fhir/laboratory/StructureDefinition/Observation-resultslab-eu-lab"
          ]
        },
        "performer": [
          {
            "display": "The Central European Lab"
          }
        ],
        "category": [
          {
            "coding": [
              {
                "system": "http://terminology.hl7.org/CodeSystem/observation-category",
                "code": "laboratory"
              }
            ]
          }
        ],
        "code": {
          "coding": [
            {
              "code": "49765-1",
              "system": "http://loinc.org",
              "display": "Calcium [Mass/volume] in Blood"
            }
          ],
          "text": "Calcium [Mass/volume] in Blood"
        },
        "valueQuantity": {
          "system": "http://unitsofmeasure.org",
          "value": 8.7,
          "unit": "mg/dL",
          "code": "mg/dL"
        },
        "referenceRange": [
          {
            "low": {
              "value": 8.5,
              "code": "mg/dL",
              "system": "http://unitsofmeasure.org"
            }
          },
          {
            "high": {
              "value": 10.4,
              "code": "mg/dL",
              "system": "http://unitsofmeasure.org"
            }
          }
        ],
        "text": {
          "status": "generated",
          "div": "<div xmlns=\"http://www.w3.org/1999/xhtml\"><table class=\"hl7__eu__lab__report\"><tr><th>Test</th><th>12-Apr-2022</th><th>Reference&#xA0;Range</th><th>Unit</th></tr><tr><td>Calcium [Mass/volume] in Blood</td><td>8.7</td><td>8.5 - 10.4</td><td></td><td>mg/dL</td></tr></table></div>"
        },
        "status": "final",
        "subject": {
          "reference": "urn:uuid:de757c64-7120-440e-a1cd-43b27324d3db",
          "display": "Eileen Taylor"
        },
        "effectiveDateTime": "2022-04-12T05:47:02Z",
        "specimen": {
          "reference": "urn:uuid:fd64ba34-3163-449b-ba8a-d648d857802e"
        }
      }
    },
    {
      "fullUrl": "urn:uuid:330beddc-e2c0-4c1b-b453-f79a6207f18b",
      "resource": {
        "resourceType": "Observation",
        "id": "330beddc-e2c0-4c1b-b453-f79a6207f18b",
        "meta": {
          "profile": [
            "http://hl7.eu/fhir/laboratory/StructureDefinition/Observation-resultslab-eu-lab"
          ]
        },
        "performer": [
          {
            "display": "The Central European Lab"
          }
        ],
        "category": [
          {
            "coding": [
              {
                "system": "http://terminology.hl7.org/CodeSystem/observation-category",
                "code": "laboratory"
              }
            ]
          }
        ],
        "code": {
          "coding": [
            {
              "code": "2947-0",
              "system": "http://loinc.org",
              "display": "Sodium [Moles/volume] in Blood"
            }
          ],
          "text": "Sodium [Moles/volume] in Blood"
        },
        "valueQuantity": {
          "system": "http://unitsofmeasure.org",
          "value": 139.2,
          "unit": "mmol/L",
          "code": "mmol/L"
        },
        "referenceRange": [
          {
            "low": {
              "value": 135,
              "code": "mmol/L",
              "system": "http://unitsofmeasure.org"
            }
          },
          {
            "high": {
              "value": 145,
              "code": "mmol/L",
              "system": "http://unitsofmeasure.org"
            }
          }
        ],
        "text": {
          "status": "generated",
          "div": "<div xmlns=\"http://www.w3.org/1999/xhtml\"><table class=\"hl7__eu__lab__report\"><tr><th>Test</th><th>12-Apr-2022</th><th>Reference&#xA0;Range</th><th>Unit</th></tr><tr><td>Sodium [Moles/volume] in Blood</td><td>139.2</td><td>135 - 145</td><td></td><td>mmol/L</td></tr></table></div>"
        },
        "status": "final",
        "subject": {
          "reference": "urn:uuid:de757c64-7120-440e-a1cd-43b27324d3db",
          "display": "Eileen Taylor"
        },
        "effectiveDateTime": "2022-04-12T05:47:02Z",
        "specimen": {
          "reference": "urn:uuid:fd64ba34-3163-449b-ba8a-d648d857802e"
        }
      }
    },
    {
      "fullUrl": "urn:uuid:afe7f334-f074-424c-a5c7-7dc443a3282d",
      "resource": {
        "resourceType": "Observation",
        "id": "afe7f334-f074-424c-a5c7-7dc443a3282d",
        "meta": {
          "profile": [
            "http://hl7.eu/fhir/laboratory/StructureDefinition/Observation-resultslab-eu-lab"
          ]
        },
        "performer": [
          {
            "display": "The Central European Lab"
          }
        ],
        "category": [
          {
            "coding": [
              {
                "system": "http://terminology.hl7.org/CodeSystem/observation-category",
                "code": "laboratory"
              }
            ]
          }
        ],
        "code": {
          "coding": [
            {
              "code": "6298-4",
              "system": "http://loinc.org",
              "display": "Potassium [Moles/volume] in Blood"
            }
          ],
          "text": "Potassium [Moles/volume] in Blood"
        },
        "valueQuantity": {
          "system": "http://unitsofmeasure.org",
          "value": 4.7,
          "unit": "mmol/L",
          "code": "mmol/L"
        },
        "referenceRange": [
          {
            "low": {
              "value": 3.5,
              "code": "mmol/L",
              "system": "http://unitsofmeasure.org"
            }
          },
          {
            "high": {
              "value": 5.1,
              "code": "mmol/L",
              "system": "http://unitsofmeasure.org"
            }
          }
        ],
        "text": {
          "status": "generated",
          "div": "<div xmlns=\"http://www.w3.org/1999/xhtml\"><table class=\"hl7__eu__lab__report\"><tr><th>Test</th><th>12-Apr-2022</th><th>Reference&#xA0;Range</th><th>Unit</th></tr><tr><td>Potassium [Moles/volume] in Blood</td><td>4.7</td><td>3.5 - 5.1</td><td></td><td>mmol/L</td></tr></table></div>"
        },
        "status": "final",
        "subject": {
          "reference": "urn:uuid:de757c64-7120-440e-a1cd-43b27324d3db",
          "display": "Eileen Taylor"
        },
        "effectiveDateTime": "2022-04-12T05:47:02Z",
        "specimen": {
          "reference": "urn:uuid:fd64ba34-3163-449b-ba8a-d648d857802e"
        }
      }
    },
    {
      "fullUrl": "urn:uuid:13c8da88-bc38-4b2f-8c16-c4f3e160e982",
      "resource": {
        "resourceType": "Observation",
        "id": "13c8da88-bc38-4b2f-8c16-c4f3e160e982",
        "meta": {
          "profile": [
            "http://hl7.eu/fhir/laboratory/StructureDefinition/Observation-resultslab-eu-lab"
          ]
        },
        "performer": [
          {
            "display": "The Central European Lab"
          }
        ],
        "category": [
          {
            "coding": [
              {
                "system": "http://terminology.hl7.org/CodeSystem/observation-category",
                "code": "laboratory"
              }
            ]
          }
        ],
        "code": {
          "coding": [
            {
              "code": "2069-3",
              "system": "http://loinc.org",
              "display": "Chloride [Moles/volume] in Blood"
            }
          ],
          "text": "Chloride [Moles/volume] in Blood"
        },
        "valueQuantity": {
          "system": "http://unitsofmeasure.org",
          "value": 101.9,
          "unit": "mmol/L",
          "code": "mmol/L"
        },
        "referenceRange": [
          {
            "low": {
              "value": 98,
              "code": "mmol/L",
              "system": "http://unitsofmeasure.org"
            }
          },
          {
            "high": {
              "value": 108,
              "code": "mmol/L",
              "system": "http://unitsofmeasure.org"
            }
          }
        ],
        "text": {
          "status": "generated",
          "div": "<div xmlns=\"http://www.w3.org/1999/xhtml\"><table class=\"hl7__eu__lab__report\"><tr><th>Test</th><th>12-Apr-2022</th><th>Reference&#xA0;Range</th><th>Unit</th></tr><tr><td>Chloride [Moles/volume] in Blood</td><td>101.9</td><td>98 - 108</td><td></td><td>mmol/L</td></tr></table></div>"
        },
        "status": "final",
        "subject": {
          "reference": "urn:uuid:de757c64-7120-440e-a1cd-43b27324d3db",
          "display": "Eileen Taylor"
        },
        "effectiveDateTime": "2022-04-12T05:47:02Z",
        "specimen": {
          "reference": "urn:uuid:fd64ba34-3163-449b-ba8a-d648d857802e"
        }
      }
    },
    {
      "fullUrl": "urn:uuid:7b11841e-007e-481b-869c-19e6a48b39ee",
      "resource": {
        "resourceType": "Observation",
        "id": "7b11841e-007e-481b-869c-19e6a48b39ee",
        "meta": {
          "profile": [
            "http://hl7.eu/fhir/laboratory/StructureDefinition/Observation-resultslab-eu-lab"
          ]
        },
        "performer": [
          {
            "display": "The Central European Lab"
          }
        ],
        "category": [
          {
            "coding": [
              {
                "system": "http://terminology.hl7.org/CodeSystem/observation-category",
                "code": "laboratory"
              }
            ]
          }
        ],
        "code": {
          "coding": [
            {
              "code": "20565-8",
              "system": "http://loinc.org",
              "display": "Carbon dioxide, total [Moles/volume] in Blood"
            }
          ],
          "text": "Carbon dioxide, total [Moles/volume] in Blood"
        },
        "valueQuantity": {
          "system": "http://unitsofmeasure.org",
          "value": 20.4,
          "unit": "mmol/L",
          "code": "mmol/L"
        },
        "referenceRange": [
          {
            "low": {
              "value": 22,
              "code": "mmol/L",
              "system": "http://unitsofmeasure.org"
            }
          },
          {
            "high": {
              "value": 29,
              "code": "mmol/L",
              "system": "http://unitsofmeasure.org"
            }
          }
        ],
        "interpretation": [
          {
            "coding": [
              {
                "code": "L",
                "system": "http://terminology.hl7.org/CodeSystem/v3-ObservationInterpretation",
                "display": "Low"
              }
            ]
          }
        ],
        "text": {
          "status": "generated",
          "div": "<div xmlns=\"http://www.w3.org/1999/xhtml\"><table class=\"hl7__eu__lab__report\"><tr><th>Test</th><th>12-Apr-2022</th><th>Reference&#xA0;Range</th><th>Unit</th></tr><tr><td>Carbon dioxide, total [Moles/volume] in Blood</td><td>20.4</td><td>22 - 29</td><td>L</td><td>mmol/L</td></tr></table></div>"
        },
        "status": "final",
        "subject": {
          "reference": "urn:uuid:de757c64-7120-440e-a1cd-43b27324d3db",
          "display": "Eileen Taylor"
        },
        "effectiveDateTime": "2022-04-12T05:47:02Z",
        "specimen": {
          "reference": "urn:uuid:fd64ba34-3163-449b-ba8a-d648d857802e"
        }
      }
    },
    {
      "fullUrl": "urn:uuid:421f51e3-2324-4b49-96a8-266e59eb61f1",
      "resource": {
        "resourceType": "Observation",
        "id": "421f51e3-2324-4b49-96a8-266e59eb61f1",
        "meta": {
          "profile": [
            "http://hl7.eu/fhir/laboratory/StructureDefinition/Observation-resultslab-eu-lab"
          ]
        },
        "performer": [
          {
            "display": "The Central European Lab"
          }
        ],
        "category": [
          {
            "coding": [
              {
                "system": "http://terminology.hl7.org/CodeSystem/observation-category",
                "code": "laboratory"
              }
            ]
          }
        ],
        "code": {
          "coding": [
            {
              "code": "2885-2",
              "system": "http://loinc.org",
              "display": "Protein [Mass/volume] in Serum or Plasma"
            }
          ],
          "text": "Protein [Mass/volume] in Serum or Plasma"
        },
        "valueQuantity": {
          "system": "http://unitsofmeasure.org",
          "value": 7.1,
          "unit": "g/dL",
          "code": "g/dL"
        },
        "referenceRange": [
          {
            "low": {
              "value": 6,
              "code": "g/dL",
              "system": "http://unitsofmeasure.org"
            }
          },
          {
            "high": {
              "value": 8.3,
              "code": "g/dL",
              "system": "http://unitsofmeasure.org"
            }
          }
        ],
        "text": {
          "status": "generated",
          "div": "<div xmlns=\"http://www.w3.org/1999/xhtml\"><table class=\"hl7__eu__lab__report\"><tr><th>Test</th><th>12-Apr-2022</th><th>Reference&#xA0;Range</th><th>Unit</th></tr><tr><td>Protein [Mass/volume] in Serum or Plasma</td><td>7.1</td><td>6 - 8.3</td><td></td><td>g/dL</td></tr></table></div>"
        },
        "status": "final",
        "subject": {
          "reference": "urn:uuid:de757c64-7120-440e-a1cd-43b27324d3db",
          "display": "Eileen Taylor"
        },
        "effectiveDateTime": "2022-04-12T05:47:02Z",
        "specimen": {
          "reference": "urn:uuid:8b3abda8-09e1-4e01-9a19-9d3256e30902"
        }
      }
    },
    {
      "fullUrl": "urn:uuid:9639f352-0604-486a-8b09-2b8bebe9994d",
      "resource": {
        "resourceType": "Observation",
        "id": "9639f352-0604-486a-8b09-2b8bebe9994d",
        "meta": {
          "profile": [
            "http://hl7.eu/fhir/laboratory/StructureDefinition/Observation-resultslab-eu-lab"
          ]
        },
        "performer": [
          {
            "display": "The Central European Lab"
          }
        ],
        "category": [
          {
            "coding": [
              {
                "system": "http://terminology.hl7.org/CodeSystem/observation-category",
                "code": "laboratory"
              }
            ]
          }
        ],
        "code": {
          "coding": [
            {
              "code": "1751-7",
              "system": "http://loinc.org",
              "display": "Albumin [Mass/volume] in Serum or Plasma"
            }
          ],
          "text": "Albumin [Mass/volume] in Serum or Plasma"
        },
        "valueQuantity": {
          "system": "http://unitsofmeasure.org",
          "value": 5.4,
          "unit": "g/dL",
          "code": "g/dL"
        },
        "referenceRange": [
          {
            "low": {
              "value": 3.4,
              "code": "g/dL",
              "system": "http://unitsofmeasure.org"
            }
          },
          {
            "high": {
              "value": 5,
              "code": "g/dL",
              "system": "http://unitsofmeasure.org"
            }
          }
        ],
        "interpretation": [
          {
            "coding": [
              {
                "code": "H",
                "system": "http://terminology.hl7.org/CodeSystem/v3-ObservationInterpretation",
                "display": "High"
              }
            ]
          }
        ],
        "text": {
          "status": "generated",
          "div": "<div xmlns=\"http://www.w3.org/1999/xhtml\"><table class=\"hl7__eu__lab__report\"><tr><th>Test</th><th>12-Apr-2022</th><th>Reference&#xA0;Range</th><th>Unit</th></tr><tr><td>Albumin [Mass/volume] in Serum or Plasma</td><td>5.4</td><td>3.4 - 5</td><td>H</td><td>g/dL</td></tr></table></div>"
        },
        "status": "final",
        "subject": {
          "reference": "urn:uuid:de757c64-7120-440e-a1cd-43b27324d3db",
          "display": "Eileen Taylor"
        },
        "effectiveDateTime": "2022-04-12T05:47:02Z",
        "specimen": {
          "reference": "urn:uuid:8b3abda8-09e1-4e01-9a19-9d3256e30902"
        }
      }
    },
    {
      "fullUrl": "urn:uuid:11410f62-b946-4840-92d9-bbc048598515",
      "resource": {
        "resourceType": "Observation",
        "id": "11410f62-b946-4840-92d9-bbc048598515",
        "meta": {
          "profile": [
            "http://hl7.eu/fhir/laboratory/StructureDefinition/Observation-resultslab-eu-lab"
          ]
        },
        "performer": [
          {
            "display": "The Central European Lab"
          }
        ],
        "category": [
          {
            "coding": [
              {
                "system": "http://terminology.hl7.org/CodeSystem/observation-category",
                "code": "laboratory"
              }
            ]
          }
        ],
        "code": {
          "coding": [
            {
              "code": "10834-0",
              "system": "http://loinc.org",
              "display": "Globulin [Mass/volume] in Serum by calculation"
            }
          ],
          "text": "Globulin [Mass/volume] in Serum by calculation"
        },
        "valueQuantity": {
          "system": "http://unitsofmeasure.org",
          "value": 2.1,
          "unit": "g/L",
          "code": "g/L"
        },
        "referenceRange": [
          {
            "low": {
              "value": 2,
              "code": "g/L",
              "system": "http://unitsofmeasure.org"
            }
          },
          {
            "high": {
              "value": 3.5,
              "code": "g/L",
              "system": "http://unitsofmeasure.org"
            }
          }
        ],
        "text": {
          "status": "generated",
          "div": "<div xmlns=\"http://www.w3.org/1999/xhtml\"><table class=\"hl7__eu__lab__report\"><tr><th>Test</th><th>12-Apr-2022</th><th>Reference&#xA0;Range</th><th>Unit</th></tr><tr><td>Globulin [Mass/volume] in Serum by calculation</td><td>2.1</td><td>2 - 3.5</td><td></td><td>g/L</td></tr></table></div>"
        },
        "status": "final",
        "subject": {
          "reference": "urn:uuid:de757c64-7120-440e-a1cd-43b27324d3db",
          "display": "Eileen Taylor"
        },
        "effectiveDateTime": "2022-04-12T05:47:02Z",
        "specimen": {
          "reference": "urn:uuid:e33e3baf-4a00-4815-8d80-006ae4b52dcb"
        }
      }
    },
    {
      "fullUrl": "urn:uuid:5dccd5a6-cf4e-474e-bb23-40f3438a2787",
      "resource": {
        "resourceType": "Observation",
        "id": "5dccd5a6-cf4e-474e-bb23-40f3438a2787",
        "meta": {
          "profile": [
            "http://hl7.eu/fhir/laboratory/StructureDefinition/Observation-resultslab-eu-lab"
          ]
        },
        "performer": [
          {
            "display": "The Central European Lab"
          }
        ],
        "category": [
          {
            "coding": [
              {
                "system": "http://terminology.hl7.org/CodeSystem/observation-category",
                "code": "laboratory"
              }
            ]
          }
        ],
        "code": {
          "coding": [
            {
              "code": "1975-2",
              "system": "http://loinc.org",
              "display": "Bilirubin.total [Mass/volume] in Serum or Plasma"
            }
          ],
          "text": "Bilirubin.total [Mass/volume] in Serum or Plasma"
        },
        "valueQuantity": {
          "system": "http://unitsofmeasure.org",
          "value": 0.7,
          "unit": "mg/dL",
          "code": "mg/dL"
        },
        "referenceRange": [
          {
            "low": {
              "value": 0.2,
              "code": "mg/dL",
              "system": "http://unitsofmeasure.org"
            }
          },
          {
            "high": {
              "value": 1.2,
              "code": "mg/dL",
              "system": "http://unitsofmeasure.org"
            }
          }
        ],
        "text": {
          "status": "generated",
          "div": "<div xmlns=\"http://www.w3.org/1999/xhtml\"><table class=\"hl7__eu__lab__report\"><tr><th>Test</th><th>12-Apr-2022</th><th>Reference&#xA0;Range</th><th>Unit</th></tr><tr><td>Bilirubin.total [Mass/volume] in Serum or Plasma</td><td>0.7</td><td>0.2 - 1.2</td><td></td><td>mg/dL</td></tr></table></div>"
        },
        "status": "final",
        "subject": {
          "reference": "urn:uuid:de757c64-7120-440e-a1cd-43b27324d3db",
          "display": "Eileen Taylor"
        },
        "effectiveDateTime": "2022-04-12T05:47:02Z",
        "specimen": {
          "reference": "urn:uuid:8b3abda8-09e1-4e01-9a19-9d3256e30902"
        }
      }
    },
    {
      "fullUrl": "urn:uuid:dec648d2-3581-47e2-9aad-968074824357",
      "resource": {
        "resourceType": "Observation",
        "id": "dec648d2-3581-47e2-9aad-968074824357",
        "meta": {
          "profile": [
            "http://hl7.eu/fhir/laboratory/StructureDefinition/Observation-resultslab-eu-lab"
          ]
        },
        "performer": [
          {
            "display": "The Central European Lab"
          }
        ],
        "category": [
          {
            "coding": [
              {
                "system": "http://terminology.hl7.org/CodeSystem/observation-category",
                "code": "laboratory"
              }
            ]
          }
        ],
        "code": {
          "coding": [
            {
              "code": "6768-6",
              "system": "http://loinc.org",
              "display": "Alkaline phosphatase [Enzymatic activity/volume] in Serum or Plasma"
            }
          ],
          "text": "Alkaline phosphatase [Enzymatic activity/volume] in Serum or Plasma"
        },
        "valueQuantity": {
          "system": "http://unitsofmeasure.org",
          "value": 139.8,
          "unit": "U/L",
          "code": "U/L"
        },
        "referenceRange": [
          {
            "low": {
              "value": 44,
              "code": "U/L",
              "system": "http://unitsofmeasure.org"
            }
          },
          {
            "high": {
              "value": 104,
              "code": "U/L",
              "system": "http://unitsofmeasure.org"
            }
          }
        ],
        "interpretation": [
          {
            "coding": [
              {
                "code": "H",
                "system": "http://terminology.hl7.org/CodeSystem/v3-ObservationInterpretation",
                "display": "High"
              }
            ]
          }
        ],
        "text": {
          "status": "generated",
          "div": "<div xmlns=\"http://www.w3.org/1999/xhtml\"><table class=\"hl7__eu__lab__report\"><tr><th>Test</th><th>12-Apr-2022</th><th>Reference&#xA0;Range</th><th>Unit</th></tr><tr><td>Alkaline phosphatase [Enzymatic activity/volume] in Serum or Plasma</td><td>139.8</td><td>44 - 104</td><td>H</td><td>U/L</td></tr></table></div>"
        },
        "status": "final",
        "subject": {
          "reference": "urn:uuid:de757c64-7120-440e-a1cd-43b27324d3db",
          "display": "Eileen Taylor"
        },
        "effectiveDateTime": "2022-04-12T05:47:02Z",
        "specimen": {
          "reference": "urn:uuid:8b3abda8-09e1-4e01-9a19-9d3256e30902"
        }
      }
    },
    {
      "fullUrl": "urn:uuid:cc0d8a3b-ab5d-4f0a-b8a7-1837c130db8f",
      "resource": {
        "resourceType": "Observation",
        "id": "cc0d8a3b-ab5d-4f0a-b8a7-1837c130db8f",
        "meta": {
          "profile": [
            "http://hl7.eu/fhir/laboratory/StructureDefinition/Observation-resultslab-eu-lab"
          ]
        },
        "performer": [
          {
            "display": "The Central European Lab"
          }
        ],
        "category": [
          {
            "coding": [
              {
                "system": "http://terminology.hl7.org/CodeSystem/observation-category",
                "code": "laboratory"
              }
            ]
          }
        ],
        "code": {
          "coding": [
            {
              "code": "1742-6",
              "system": "http://loinc.org",
              "display": "Alanine aminotransferase [Enzymatic activity/volume] in Serum or Plasma"
            }
          ],
          "text": "Alanine aminotransferase [Enzymatic activity/volume] in Serum or Plasma"
        },
        "valueQuantity": {
          "system": "http://unitsofmeasure.org",
          "value": 56.7,
          "unit": "U/L",
          "code": "U/L"
        },
        "referenceRange": [
          {
            "low": {
              "value": 13,
              "code": "U/L",
              "system": "http://unitsofmeasure.org"
            }
          },
          {
            "high": {
              "value": 36,
              "code": "U/L",
              "system": "http://unitsofmeasure.org"
            }
          }
        ],
        "interpretation": [
          {
            "coding": [
              {
                "code": "H",
                "system": "http://terminology.hl7.org/CodeSystem/v3-ObservationInterpretation",
                "display": "High"
              }
            ]
          }
        ],
        "text": {
          "status": "generated",
          "div": "<div xmlns=\"http://www.w3.org/1999/xhtml\"><table class=\"hl7__eu__lab__report\"><tr><th>Test</th><th>12-Apr-2022</th><th>Reference&#xA0;Range</th><th>Unit</th></tr><tr><td>Alanine aminotransferase [Enzymatic activity/volume] in Serum or Plasma</td><td>56.7</td><td>13 - 36</td><td>H</td><td>U/L</td></tr></table></div>"
        },
        "status": "final",
        "subject": {
          "reference": "urn:uuid:de757c64-7120-440e-a1cd-43b27324d3db",
          "display": "Eileen Taylor"
        },
        "effectiveDateTime": "2022-04-12T05:47:02Z",
        "specimen": {
          "reference": "urn:uuid:8b3abda8-09e1-4e01-9a19-9d3256e30902"
        }
      }
    },
    {
      "fullUrl": "urn:uuid:08ee3123-6caf-4935-b3d9-50140081935b",
      "resource": {
        "resourceType": "Observation",
        "id": "08ee3123-6caf-4935-b3d9-50140081935b",
        "meta": {
          "profile": [
            "http://hl7.eu/fhir/laboratory/StructureDefinition/Observation-resultslab-eu-lab"
          ]
        },
        "performer": [
          {
            "display": "The Central European Lab"
          }
        ],
        "category": [
          {
            "coding": [
              {
                "system": "http://terminology.hl7.org/CodeSystem/observation-category",
                "code": "laboratory"
              }
            ]
          }
        ],
        "code": {
          "coding": [
            {
              "code": "1920-8",
              "system": "http://loinc.org",
              "display": "Aspartate aminotransferase [Enzymatic activity/volume] in Serum or Plasma"
            }
          ],
          "text": "Aspartate aminotransferase [Enzymatic activity/volume] in Serum or Plasma"
        },
        "valueQuantity": {
          "system": "http://unitsofmeasure.org",
          "value": 17.5,
          "unit": "U/L",
          "code": "U/L"
        },
        "referenceRange": [
          {
            "low": {
              "value": 10,
              "code": "U/L",
              "system": "http://unitsofmeasure.org"
            }
          },
          {
            "high": {
              "value": 40,
              "code": "U/L",
              "system": "http://unitsofmeasure.org"
            }
          }
        ],
        "text": {
          "status": "generated",
          "div": "<div xmlns=\"http://www.w3.org/1999/xhtml\"><table class=\"hl7__eu__lab__report\"><tr><th>Test</th><th>12-Apr-2022</th><th>Reference&#xA0;Range</th><th>Unit</th></tr><tr><td>Aspartate aminotransferase [Enzymatic activity/volume] in Serum or Plasma</td><td>17.5</td><td>10 - 40</td><td></td><td>U/L</td></tr></table></div>"
        },
        "status": "final",
        "subject": {
          "reference": "urn:uuid:de757c64-7120-440e-a1cd-43b27324d3db",
          "display": "Eileen Taylor"
        },
        "effectiveDateTime": "2022-04-12T05:47:02Z",
        "specimen": {
          "reference": "urn:uuid:8b3abda8-09e1-4e01-9a19-9d3256e30902"
        }
      }
    },
    {
      "fullUrl": "urn:uuid:0ba0e9ca-a30c-4081-801c-be5d38ebc395",
      "resource": {
        "resourceType": "Observation",
        "id": "0ba0e9ca-a30c-4081-801c-be5d38ebc395",
        "meta": {
          "profile": [
            "http://hl7.eu/fhir/laboratory/StructureDefinition/Observation-resultslab-eu-lab"
          ]
        },
        "performer": [
          {
            "display": "The Central European Lab"
          }
        ],
        "category": [
          {
            "coding": [
              {
                "system": "http://terminology.hl7.org/CodeSystem/observation-category",
                "code": "laboratory"
              }
            ]
          }
        ],
        "code": {
          "coding": [
            {
              "code": "2093-3",
              "system": "http://loinc.org",
              "display": "Cholesterol [Mass/volume] in Serum or Plasma"
            }
          ],
          "text": "Cholesterol [Mass/volume] in Serum or Plasma"
        },
        "valueQuantity": {
          "system": "http://unitsofmeasure.org",
          "value": 171.4,
          "unit": "mg/dL",
          "code": "mg/dL"
        },
        "referenceRange": [
          {
            "low": {
              "value": 130,
              "code": "mg/dL",
              "system": "http://unitsofmeasure.org"
            }
          },
          {
            "high": {
              "value": 200,
              "code": "mg/dL",
              "system": "http://unitsofmeasure.org"
            }
          }
        ],
        "text": {
          "status": "generated",
          "div": "<div xmlns=\"http://www.w3.org/1999/xhtml\"><table class=\"hl7__eu__lab__report\"><tr><th>Test</th><th>12-Apr-2022</th><th>Reference&#xA0;Range</th><th>Unit</th></tr><tr><td>Cholesterol [Mass/volume] in Serum or Plasma</td><td>171.4</td><td>130 - 200</td><td></td><td>mg/dL</td></tr></table></div>"
        },
        "status": "final",
        "subject": {
          "reference": "urn:uuid:de757c64-7120-440e-a1cd-43b27324d3db",
          "display": "Eileen Taylor"
        },
        "effectiveDateTime": "2022-04-12T05:47:02Z",
        "specimen": {
          "reference": "urn:uuid:8b3abda8-09e1-4e01-9a19-9d3256e30902"
        }
      }
    },
    {
      "fullUrl": "urn:uuid:cad46d12-590a-4098-99ba-a62fddf19735",
      "resource": {
        "resourceType": "Observation",
        "id": "cad46d12-590a-4098-99ba-a62fddf19735",
        "meta": {
          "profile": [
            "http://hl7.eu/fhir/laboratory/StructureDefinition/Observation-resultslab-eu-lab"
          ]
        },
        "performer": [
          {
            "display": "The Central European Lab"
          }
        ],
        "category": [
          {
            "coding": [
              {
                "system": "http://terminology.hl7.org/CodeSystem/observation-category",
                "code": "laboratory"
              }
            ]
          }
        ],
        "code": {
          "coding": [
            {
              "code": "2571-8",
              "system": "http://loinc.org",
              "display": "Triglyceride [Mass/volume] in Serum or Plasma"
            }
          ],
          "text": "Triglyceride [Mass/volume] in Serum or Plasma"
        },
        "valueQuantity": {
          "system": "http://unitsofmeasure.org",
          "value": 144.5,
          "unit": "mg/dL",
          "code": "mg/dL"
        },
        "referenceRange": [
          {
            "low": {
              "value": 35,
              "code": "mg/dL",
              "system": "http://unitsofmeasure.org"
            }
          },
          {
            "high": {
              "value": 175,
              "code": "mg/dL",
              "system": "http://unitsofmeasure.org"
            }
          }
        ],
        "text": {
          "status": "generated",
          "div": "<div xmlns=\"http://www.w3.org/1999/xhtml\"><table class=\"hl7__eu__lab__report\"><tr><th>Test</th><th>12-Apr-2022</th><th>Reference&#xA0;Range</th><th>Unit</th></tr><tr><td>Triglyceride [Mass/volume] in Serum or Plasma</td><td>144.5</td><td>35 - 175</td><td></td><td>mg/dL</td></tr></table></div>"
        },
        "status": "final",
        "subject": {
          "reference": "urn:uuid:de757c64-7120-440e-a1cd-43b27324d3db",
          "display": "Eileen Taylor"
        },
        "effectiveDateTime": "2022-04-12T05:47:02Z",
        "specimen": {
          "reference": "urn:uuid:8b3abda8-09e1-4e01-9a19-9d3256e30902"
        }
      }
    },
    {
      "fullUrl": "urn:uuid:9b635f6c-55ca-42af-a606-397858d3316f",
      "resource": {
        "resourceType": "Observation",
        "id": "9b635f6c-55ca-42af-a606-397858d3316f",
        "meta": {
          "profile": [
            "http://hl7.eu/fhir/laboratory/StructureDefinition/Observation-resultslab-eu-lab"
          ]
        },
        "performer": [
          {
            "display": "The Central European Lab"
          }
        ],
        "category": [
          {
            "coding": [
              {
                "system": "http://terminology.hl7.org/CodeSystem/observation-category",
                "code": "laboratory"
              }
            ]
          }
        ],
        "code": {
          "coding": [
            {
              "code": "18262-6",
              "system": "http://loinc.org",
              "display": "Cholesterol in LDL [Mass/volume] in Serum or Plasma by Direct assay"
            }
          ],
          "text": "Cholesterol in LDL [Mass/volume] in Serum or Plasma by Direct assay"
        },
        "valueQuantity": {
          "system": "http://unitsofmeasure.org",
          "value": 126.5,
          "unit": "mg/dL",
          "code": "mg/dL"
        },
        "referenceRange": [
          {
            "low": {
              "value": 0,
              "code": "mg/dL",
              "system": "http://unitsofmeasure.org"
            }
          },
          {
            "high": {
              "value": 190,
              "code": "mg/dL",
              "system": "http://unitsofmeasure.org"
            }
          }
        ],
        "text": {
          "status": "generated",
          "div": "<div xmlns=\"http://www.w3.org/1999/xhtml\"><table class=\"hl7__eu__lab__report\"><tr><th>Test</th><th>12-Apr-2022</th><th>Reference&#xA0;Range</th><th>Unit</th></tr><tr><td>Cholesterol in LDL [Mass/volume] in Serum or Plasma by Direct assay</td><td>126.5</td><td>0 - 190</td><td></td><td>mg/dL</td></tr></table></div>"
        },
        "status": "final",
        "subject": {
          "reference": "urn:uuid:de757c64-7120-440e-a1cd-43b27324d3db",
          "display": "Eileen Taylor"
        },
        "effectiveDateTime": "2022-04-12T05:47:02Z",
        "specimen": {
          "reference": "urn:uuid:8b3abda8-09e1-4e01-9a19-9d3256e30902"
        }
      }
    },
    {
      "fullUrl": "urn:uuid:550e7331-fbee-4f8f-bad8-f00b191f5671",
      "resource": {
        "resourceType": "Observation",
        "id": "550e7331-fbee-4f8f-bad8-f00b191f5671",
        "meta": {
          "profile": [
            "http://hl7.eu/fhir/laboratory/StructureDefinition/Observation-resultslab-eu-lab"
          ]
        },
        "performer": [
          {
            "display": "The Central European Lab"
          }
        ],
        "category": [
          {
            "coding": [
              {
                "system": "http://terminology.hl7.org/CodeSystem/observation-category",
                "code": "laboratory"
              }
            ]
          }
        ],
        "code": {
          "coding": [
            {
              "code": "2085-9",
              "system": "http://loinc.org",
              "display": "Cholesterol in HDL [Mass/volume] in Serum or Plasma"
            }
          ],
          "text": "Cholesterol in HDL [Mass/volume] in Serum or Plasma"
        },
        "valueQuantity": {
          "system": "http://unitsofmeasure.org",
          "value": 48.7,
          "unit": "mg/dL",
          "code": "mg/dL"
        },
        "referenceRange": [
          {
            "low": {
              "value": 50,
              "code": "mg/dL",
              "system": "http://unitsofmeasure.org"
            }
          },
          {
            "high": {
              "value": 100,
              "code": "mg/dL",
              "system": "http://unitsofmeasure.org"
            }
          }
        ],
        "interpretation": [
          {
            "coding": [
              {
                "code": "L",
                "system": "http://terminology.hl7.org/CodeSystem/v3-ObservationInterpretation",
                "display": "Low"
              }
            ]
          }
        ],
        "text": {
          "status": "generated",
          "div": "<div xmlns=\"http://www.w3.org/1999/xhtml\"><table class=\"hl7__eu__lab__report\"><tr><th>Test</th><th>12-Apr-2022</th><th>Reference&#xA0;Range</th><th>Unit</th></tr><tr><td>Cholesterol in HDL [Mass/volume] in Serum or Plasma</td><td>48.7</td><td>50 - 100</td><td>L</td><td>mg/dL</td></tr></table></div>"
        },
        "status": "final",
        "subject": {
          "reference": "urn:uuid:de757c64-7120-440e-a1cd-43b27324d3db",
          "display": "Eileen Taylor"
        },
        "effectiveDateTime": "2022-04-12T05:47:02Z",
        "specimen": {
          "reference": "urn:uuid:8b3abda8-09e1-4e01-9a19-9d3256e30902"
        }
      }
    },
    {
      "fullUrl": "urn:uuid:e4463f4d-7601-4065-8c6e-aa390c3deaee",
      "resource": {
        "resourceType": "Device",
        "id": "e4463f4d-7601-4065-8c6e-aa390c3deaee",
        "deviceName": [
          {
            "name": "SYNDERAI Synthetic Generator",
            "type": "manufacturer-name"
          }
        ],
        "version": [
          {
            "value": "5.0"
          }
        ],
        "text": {
          "status": "generated",
          "div": "<div xmlns=\"http://www.w3.org/1999/xhtml\">SYNDERAI Synthetic Generator v5.0</div>"
        },
        "status": "active\"",
        "distinctIdentifier": "synderai-generator-50",
        "manufacturer": "SYNDERAI Project"
      }
    },
    {
      "fullUrl": "urn:uuid:39fd9c5a-7721-4d31-b63d-e49a20291eed",
      "resource": {
        "resourceType": "Provenance",
        "id": "39fd9c5a-7721-4d31-b63d-e49a20291eed",
        "target": [
          {
            "reference": "Patient/de757c64-7120-440e-a1cd-43b27324d3db"
          },
          {
            "reference": "Bundle/c76cb22c-713b-477d-8aa5-397e6df2cbb8"
          },
          {
            "reference": "Composition/69ffaf11-fbbc-41db-8acb-e1437dd100c0"
          },
          {
            "reference": "PractitionerRole/e7b69a87-ee05-4485-8c9c-e200a4784452"
          },
          {
            "reference": "Practitioner/4319be62-0fe5-43e1-a16d-3730d460d9d3"
          },
          {
            "reference": "PractitionerRole/e4872667-4bbb-49ea-8440-15b60e05a24e"
          },
          {
            "reference": "Organization/ba4b5419-a613-494c-872a-4bdaae6e234f"
          }
        ],
        "activity": {
          "text": "Synthetic Example Data Generation"
        },
        "policy": [
          "https://synderai.net/synderai-synthetic-data-policy"
        ],
        "agent": [
          {
            "type": {
              "text": "author"
            },
            "who": {
              "reference": "Device/e4463f4d-7601-4065-8c6e-aa390c3deaee"
            }
          }
        ],
        "reason": [
          {
            "text": "Interoperability Testing and Training (non-clinical use)"
          }
        ],
        "text": {
          "status": "generated",
          "div": "<div xmlns=\"http://www.w3.org/1999/xhtml\">Provenance for SYNDERAI Synthetic Example Data Resource</div>"
        },
        "recorded": "2022-04-12T07:47:02Z"
      }
    },
    {
      "fullUrl": "urn:uuid:e7b69a87-ee05-4485-8c9c-e200a4784452",
      "resource": {
        "resourceType": "PractitionerRole",
        "id": "e7b69a87-ee05-4485-8c9c-e200a4784452",
        "meta": {
          "profile": [
            "http://hl7.eu/fhir/base/StructureDefinition/practitionerRole-eu"
          ]
        },
        "text": {
          "status": "generated",
          "div": "<div xmlns=\"http://www.w3.org/1999/xhtml\">Laboratory Role Id: e7b69a87-ee05-4485-8c9c-e200a4784452</div>"
        },
        "practitioner": {
          "reference": "urn:uuid:4319be62-0fe5-43e1-a16d-3730d460d9d3"
        }
      }
    },
    {
      "fullUrl": "urn:uuid:4319be62-0fe5-43e1-a16d-3730d460d9d3",
      "resource": {
        "resourceType": "Practitioner",
        "id": "4319be62-0fe5-43e1-a16d-3730d460d9d3",
        "meta": {
          "profile": [
            "http://hl7.eu/fhir/base/StructureDefinition/practitioner-eu"
          ]
        },
        "identifier": [
          {
            "assigner": {
              "display": "HL7 Europe"
            },
            "system": "urn:oid:2.16.840.1.113883.2.51.999",
            "value": "43b3c6dc-5667-4e6c-8554-c8f1a4824f71"
          }
        ],
        "name": [
          {
            "prefix": [
              "dr"
            ],
            "given": [
              "Ex"
            ],
            "family": "Ample"
          }
        ],
        "address": [
          {
            "line": [
              "Laboratoire Central Européenne",
              "Boulevard du Jardin Botanique 32"
            ],
            "postalCode": "1000",
            "city": "Brussels",
            "country": "Belgium"
          }
        ],
        "text": {
          "status": "generated",
          "div": "<div xmlns=\"http://www.w3.org/1999/xhtml\">Laboratory: Laboratoire Central Européenne, 1000 Brussels, Belgium</div>"
        }
      }
    }
  ],
  "type": "document",
  "timestamp": "2022-04-12T07:47:02Z"
}
