{
  "resourceType": "Bundle",
  "id": "1893e64e-4f0a-4a3c-b23d-e1eeba25ee54",
  "meta": {
    "profile": [
      "http://hl7.eu/fhir/laboratory/StructureDefinition/Bundle-eu-lab"
    ]
  },
  "identifier": {
    "assigner": {
      "display": "HL7 Europe"
    },
    "system": "urn:oid:2.16.840.1.113883.2.51.999",
    "value": "e88db270-7222-479a-b163-480e60b9dbd4"
  },
  "entry": [
    {
      "fullUrl": "urn:uuid:ccd96c87-5ae6-404f-926f-a9f5a2dc3b1f",
      "resource": {
        "resourceType": "Composition",
        "id": "ccd96c87-5ae6-404f-926f-a9f5a2dc3b1f",
        "meta": {
          "profile": [
            "http://hl7.eu/fhir/laboratory/StructureDefinition/Composition-eu-lab"
          ]
        },
        "identifier": {
          "assigner": {
            "display": "HL7 Europe"
          },
          "system": "urn:oid:2.16.840.1.113883.2.51.999",
          "value": "452f3f20-6167-4655-8b4b-0de7f86d41e5"
        },
        "author": [
          {
            "reference": "urn:uuid:9e0b1e4c-2abb-4bd0-b36f-67542be83fb8"
          }
        ],
        "category": [
          {
            "coding": [
              {
                "code": "26436-6",
                "system": "http://loinc.org",
                "display": "Laboratory studies (set)"
              }
            ]
          }
        ],
        "type": {
          "coding": [
            {
              "code": "11502-2",
              "system": "http://loinc.org",
              "display": "Laboratory report"
            }
          ],
          "text": "Laboratory Report"
        },
        "section": [
          {
            "code": {
              "coding": [
                {
                  "code": "26436-6",
                  "system": "http://loinc.org",
                  "display": "Laboratory studies (set)"
                }
              ],
              "text": "Laboratory studies"
            },
            "section": [
              {
                "code": {
                  "coding": [
                    {
                      "code": "$18719-5",
                      "system": "http://loinc.org",
                      "display": "Chemistry studies (set)"
                    }
                  ],
                  "text": "Chemistry"
                },
                "entry": [
                  {
                    "reference": "urn:uuid:6afe0a9a-8b39-43dd-ad9e-7225c103b544"
                  },
                  {
                    "reference": "urn:uuid:298459d1-5109-45d3-a579-0b5a0e2d1bac"
                  },
                  {
                    "reference": "urn:uuid:3a2a422d-78c2-4be5-b6c5-5b568044234c"
                  },
                  {
                    "reference": "urn:uuid:0d8d7d43-5488-48f0-a192-6ab7aa4efcdd"
                  },
                  {
                    "reference": "urn:uuid:a7c8e5d3-b8ef-4d92-8ded-d636184e28b2"
                  },
                  {
                    "reference": "urn:uuid:f85ba516-1a8a-4e59-a692-1ebc836a7684"
                  },
                  {
                    "reference": "urn:uuid:6a9be971-2bf6-4b17-b048-5ccdf183245e"
                  },
                  {
                    "reference": "urn:uuid:561429e5-2781-42ee-b47c-3b4ece19e90d"
                  },
                  {
                    "reference": "urn:uuid:727c45e9-9b18-4746-b623-f3c582e80135"
                  },
                  {
                    "reference": "urn:uuid:baef4917-5eb4-4357-b944-cf6179de73c6"
                  },
                  {
                    "reference": "urn:uuid:7bd9d26c-2a61-4bef-a3d5-58f49f944188"
                  },
                  {
                    "reference": "urn:uuid:23b39975-ff27-40e1-bb31-33d4bd9a290d"
                  },
                  {
                    "reference": "urn:uuid:33aeb4d9-501a-4106-99f0-4d910d530206"
                  },
                  {
                    "reference": "urn:uuid:dd8ca95a-9375-4278-b26b-425298e8c6db"
                  },
                  {
                    "reference": "urn:uuid:e771ab42-da49-4369-9e50-dcccad6e245e"
                  },
                  {
                    "reference": "urn:uuid:2ca02ec0-e3d8-4494-afee-bdbd7376849f"
                  },
                  {
                    "reference": "urn:uuid:5916f3b4-17d7-4634-8792-ebca375bbdd9"
                  },
                  {
                    "reference": "urn:uuid:6bb468b9-e5c9-4385-a03b-4ad3d764755b"
                  },
                  {
                    "reference": "urn:uuid:7bf7825e-65d4-4cd4-a04e-e235e00f2877"
                  }
                ],
                "text": {
                  "status": "generated",
                  "div": "<div xmlns=\"http://www.w3.org/1999/xhtml\"><h3>Chemistry</h3><table class=\"hl7__eu__lab__report\"><thead><tr><th>Test</th><th>23-SEP-2023</th><th>Reference&#xA0;Range</th><th>Unit</th></tr></thead><tbody><tr><td>Glucose [Mass/volume] in Blood</td><td>89.4</td><td>70 - 140</td><td>mg/dL</td></tr><tr><td>Urea nitrogen [Mass/volume] in Blood</td><td>18.6</td><td>7 - 20</td><td>mg/dL</td></tr><tr><td>Creatinine [Mass/volume] in Blood</td><td><strong>2.7 H</strong></td><td>0.6 - 1.3</td><td>mg/dL</td></tr><tr><td>Calcium [Mass/volume] in Blood</td><td>9.2</td><td>8.5 - 10.5</td><td>mg/dL</td></tr><tr><td>Sodium [Moles/volume] in Blood</td><td>141.8</td><td>135 - 145</td><td>mmol/L</td></tr><tr><td>Potassium [Moles/volume] in Blood</td><td>4.8</td><td>3.5 - 5.1</td><td>mmol/L</td></tr><tr><td>Chloride [Moles/volume] in Blood</td><td>103.4</td><td>98 - 108</td><td>mmol/L</td></tr><tr><td>Carbon dioxide, total [Moles/volume] in Blood</td><td>26.6</td><td>22 - 32</td><td>mmol/L</td></tr><tr><td>Protein [Mass/volume] in Serum or Plasma</td><td><strong>6.5 L</strong></td><td>6.6 - 8.3</td><td>g/dL</td></tr><tr><td>Albumin [Mass/volume] in Serum or Plasma</td><td>4.6</td><td>3.5 - 5.5</td><td>g/dL</td></tr><tr><td>Globulin [Mass/volume] in Serum by calculation</td><td>3.2</td><td>2 - 3.5</td><td>g/L</td></tr><tr><td>Bilirubin.total [Mass/volume] in Serum or Plasma</td><td>0.3</td><td>0.3 - 1.2</td><td>mg/dL</td></tr><tr><td>Alkaline phosphatase [Enzymatic activity/volume] in Serum or Plasma</td><td><strong>139.4 H</strong></td><td>53 - 130</td><td>U/L</td></tr><tr><td>Alanine aminotransferase [Enzymatic activity/volume] in Serum or Plasma</td><td>46.4</td><td>7 - 60</td><td>U/L</td></tr><tr><td>Aspartate aminotransferase [Enzymatic activity/volume] in Serum or Plasma</td><td>34.9</td><td>10 - 49</td><td>U/L</td></tr><tr><td>Cholesterol [Mass/volume] in Serum or Plasma</td><td>170.5</td><td>125 - 200</td><td>mg/dL</td></tr><tr><td>Triglyceride [Mass/volume] in Serum or Plasma</td><td>121.2</td><td>40 - 150</td><td>mg/dL</td></tr><tr><td>Cholesterol in LDL [Mass/volume] in Serum or Plasma by Direct assay</td><td>126.0</td><td>0 - 190</td><td>mg/dL</td></tr><tr><td>Cholesterol in HDL [Mass/volume] in Serum or Plasma</td><td><strong>62.4 H</strong></td><td>40 - 60</td><td>mg/dL</td></tr></tbody></table></div>"
                },
                "title": "Chemistry"
              }
            ],
            "title": "Laboratory Report"
          },
          {
            "text": {
              "status": "generated",
              "div": "<div xmlns=\"http://www.w3.org/1999/xhtml\"><h3>Annotation</h3><table class=\"hl7__eu__lab__report\"><tr><th>Conclusion and Recommendations based on this report and previous findings known to us</th></tr><tr><td>The patient shows elevated creatinine, suggesting impaired renal function, and mildly increased alkaline phosphatase and HDL cholesterol. Total protein is slightly low, but albumin and globulin are within range. Liver enzymes and other electrolytes are normal. Findings are most notable for possible chronic kidney disease; correlation with clinical context and further renal evaluation are recommended.</td></tr></table></div>"
            },
            "code": {
              "coding": [
                {
                  "system": "http://loinc.org",
                  "code": "48767-8",
                  "display": "Annotation comment"
                }
              ]
            },
            "title": "Annotation comment"
          }
        ],
        "status": "final",
        "subject": {
          "reference": "urn:uuid:4e82c11a-a989-4dc5-821c-77f678e779b8",
          "display": "Leonhard Köhler"
        },
        "date": "2023-09-23T04:48:23Z",
        "title": "Laboratory Report",
        "confidentiality": "N"
      }
    },
    {
      "fullUrl": "urn:uuid:d346bbfe-20f8-468d-a2b6-6aedb725867f",
      "resource": {
        "resourceType": "DiagnosticReport",
        "id": "d346bbfe-20f8-468d-a2b6-6aedb725867f",
        "meta": {
          "profile": [
            "http://hl7.eu/fhir/laboratory/StructureDefinition/DiagnosticReport-eu-lab"
          ]
        },
        "identifier": [
          {
            "assigner": {
              "display": "HL7 Europe"
            },
            "system": "urn:oid:2.16.840.1.113883.2.51.999",
            "value": "9988d32d-4af5-47c6-af7c-187876d6ccee"
          }
        ],
        "extension": [
          {
            "url": "http://hl7.org/fhir/5.0/StructureDefinition/extension-DiagnosticReport.composition",
            "valueReference": {
              "reference": "urn:uuid:452f3f20-6167-4655-8b4b-0de7f86d41e5"
            }
          }
        ],
        "category": [
          {
            "coding": [
              {
                "code": "26436-6",
                "system": "http://loinc.org",
                "display": "Laboratory studies (set)"
              }
            ]
          }
        ],
        "specimen": [
          {
            "reference": "urn:uuid:c42616ad-6b99-4940-b552-301fd066bc2a"
          },
          {
            "reference": "urn:uuid:c0ba2457-8054-40ab-b388-cd9ee781f1f4"
          },
          {
            "reference": "urn:uuid:f3561c50-25e2-4e95-8672-e3f1aa1005b5"
          }
        ],
        "result": [
          {
            "reference": "urn:uuid:6afe0a9a-8b39-43dd-ad9e-7225c103b544"
          },
          {
            "reference": "urn:uuid:298459d1-5109-45d3-a579-0b5a0e2d1bac"
          },
          {
            "reference": "urn:uuid:3a2a422d-78c2-4be5-b6c5-5b568044234c"
          },
          {
            "reference": "urn:uuid:0d8d7d43-5488-48f0-a192-6ab7aa4efcdd"
          },
          {
            "reference": "urn:uuid:a7c8e5d3-b8ef-4d92-8ded-d636184e28b2"
          },
          {
            "reference": "urn:uuid:f85ba516-1a8a-4e59-a692-1ebc836a7684"
          },
          {
            "reference": "urn:uuid:6a9be971-2bf6-4b17-b048-5ccdf183245e"
          },
          {
            "reference": "urn:uuid:561429e5-2781-42ee-b47c-3b4ece19e90d"
          },
          {
            "reference": "urn:uuid:727c45e9-9b18-4746-b623-f3c582e80135"
          },
          {
            "reference": "urn:uuid:baef4917-5eb4-4357-b944-cf6179de73c6"
          },
          {
            "reference": "urn:uuid:7bd9d26c-2a61-4bef-a3d5-58f49f944188"
          },
          {
            "reference": "urn:uuid:23b39975-ff27-40e1-bb31-33d4bd9a290d"
          },
          {
            "reference": "urn:uuid:33aeb4d9-501a-4106-99f0-4d910d530206"
          },
          {
            "reference": "urn:uuid:dd8ca95a-9375-4278-b26b-425298e8c6db"
          },
          {
            "reference": "urn:uuid:e771ab42-da49-4369-9e50-dcccad6e245e"
          },
          {
            "reference": "urn:uuid:2ca02ec0-e3d8-4494-afee-bdbd7376849f"
          },
          {
            "reference": "urn:uuid:5916f3b4-17d7-4634-8792-ebca375bbdd9"
          },
          {
            "reference": "urn:uuid:6bb468b9-e5c9-4385-a03b-4ad3d764755b"
          },
          {
            "reference": "urn:uuid:7bf7825e-65d4-4cd4-a04e-e235e00f2877"
          }
        ],
        "status": "registered",
        "code": {
          "coding": [
            {
              "code": "11502-2",
              "system": "http://loinc.org",
              "display": "Laboratory report"
            }
          ]
        },
        "subject": {
          "reference": "urn:uuid:4e82c11a-a989-4dc5-821c-77f678e779b8",
          "display": "Leonhard Köhler"
        }
      }
    },
    {
      "fullUrl": "urn:uuid:4e82c11a-a989-4dc5-821c-77f678e779b8",
      "resource": {
        "resourceType": "Patient",
        "id": "4e82c11a-a989-4dc5-821c-77f678e779b8",
        "meta": {
          "security": [
            {
              "system": "http://terminology.hl7.org/CodeSystem/v3-ActReason",
              "code": "HTEST"
            },
            {
              "system": "http://terminology.hl7.org/CodeSystem/v3-ActReason",
              "code": "TRAIN"
            }
          ],
          "tag": [
            {
              "system": "https://synderai.net/fhir/CodeSystem/tags",
              "code": "synthetic",
              "display": "SYNDERAI Synthetic data"
            }
          ],
          "profile": [
            "http://hl7.eu/fhir/base/StructureDefinition/patient-eu-core"
          ]
        },
        "identifier": [
          {
            "type": {
              "coding": [
                {
                  "code": "PT",
                  "system": "http://terminology.hl7.org/CodeSystem/v2-0203"
                }
              ]
            },
            "system": "http://ec.europa.eu/identifier/eci",
            "value": "5321-442678-4"
          },
          {
            "type": {
              "coding": [
                {
                  "code": "MR",
                  "system": "http://terminology.hl7.org/CodeSystem/v2-0203"
                }
              ]
            },
            "system": "http://local.setting.eu/identifier",
            "value": "ffa9f0d8-c016-d46c-e666-000f53715b47"
          }
        ],
        "name": [
          {
            "family": "Köhler"
          },
          {
            "given": [
              "Leonhard"
            ]
          },
          {
            "text": "Leonhard Köhler"
          }
        ],
        "address": [
          {
            "line": [
              "Henckweg 97/34"
            ],
            "use": "home",
            "type": "physical",
            "postalCode": "87629",
            "city": "Füssen",
            "country": "Germany"
          }
        ],
        "telecom": [
          {
            "system": "phone",
            "value": "00028839855"
          }
        ],
        "extension": [
          {
            "url": "http://hl7.org/fhir/StructureDefinition/patient-nationality",
            "valueCodeableConcept": {
              "coding": [
                {
                  "code": "DE",
                  "system": "http://hl7.org/fhir/ValueSet/country"
                }
              ]
            }
          }
        ],
        "text": {
          "status": "generated",
          "div": "<div xmlns=\"http://www.w3.org/1999/xhtml\"><table class=\"hl7__ips\"><tr><td>Leonhard Köhler</td><td>male</td><td>19-Dec-1949</td></tr></table></div>"
        },
        "gender": "male",
        "birthDate": "1949-12-19"
      }
    },
    {
      "fullUrl": "urn:uuid:c99180cc-9f8e-4bc5-81c0-48d12b7c1b64",
      "resource": {
        "resourceType": "ServiceRequest",
        "id": "c99180cc-9f8e-4bc5-81c0-48d12b7c1b64",
        "meta": {
          "profile": [
            "http://hl7.eu/fhir/laboratory/StructureDefinition/ServiceRequest-eu-lab"
          ]
        },
        "identifier": [
          {
            "system": "http://example.org",
            "value": "c27afd0e-d0f1-4002-9597-9add8530c2b3"
          }
        ],
        "specimen": [
          {
            "reference": "urn:uuid:c42616ad-6b99-4940-b552-301fd066bc2a"
          },
          {
            "reference": "urn:uuid:c0ba2457-8054-40ab-b388-cd9ee781f1f4"
          },
          {
            "reference": "urn:uuid:f3561c50-25e2-4e95-8672-e3f1aa1005b5"
          }
        ],
        "reasonCode": [
          {
            "coding": [
              {
                "code": "55822004",
                "system": "http://snomed.info/sct",
                "display": "Hyperlipidemia"
              }
            ]
          },
          {
            "coding": [
              {
                "code": "414545008",
                "system": "http://snomed.info/sct",
                "display": "Ischemic heart disease"
              }
            ]
          },
          {
            "coding": [
              {
                "code": "59621000",
                "system": "http://snomed.info/sct",
                "display": "Essential hypertension"
              }
            ]
          },
          {
            "coding": [
              {
                "code": "239873007",
                "system": "http://snomed.info/sct",
                "display": "Osteoarthritis of knee"
              }
            ]
          },
          {
            "coding": [
              {
                "code": "271737000",
                "system": "http://snomed.info/sct",
                "display": "Anemia"
              }
            ]
          },
          {
            "coding": [
              {
                "code": "15777000",
                "system": "http://snomed.info/sct",
                "display": "Prediabetes"
              }
            ]
          }
        ],
        "status": "active",
        "intent": "order",
        "code": {
          "coding": [
            {
              "code": "108252007",
              "system": "http://snomed.info/sct",
              "display": "Laboratory procedure"
            }
          ]
        },
        "subject": {
          "reference": "urn:uuid:4e82c11a-a989-4dc5-821c-77f678e779b8",
          "display": "Leonhard Köhler"
        },
        "requester": {
          "reference": "urn:uuid:6895b08f-3558-45ce-9588-01a4f1e2839b"
        }
      }
    },
    {
      "fullUrl": "urn:uuid:6895b08f-3558-45ce-9588-01a4f1e2839b",
      "resource": {
        "resourceType": "PractitionerRole",
        "id": "6895b08f-3558-45ce-9588-01a4f1e2839b",
        "meta": {
          "profile": [
            "http://hl7.eu/fhir/base/StructureDefinition/practitionerRole-eu"
          ]
        },
        "text": {
          "status": "generated",
          "div": "<div xmlns=\"http://www.w3.org/1999/xhtml\">Provider Role Id: 6895b08f-3558-45ce-9588-01a4f1e2839b</div>"
        },
        "organization": {
          "reference": "urn:uuid:aad902b8-7051-4f15-b37b-409966735f58"
        }
      }
    },
    {
      "fullUrl": "urn:uuid:aad902b8-7051-4f15-b37b-409966735f58",
      "resource": {
        "resourceType": "Organization",
        "id": "aad902b8-7051-4f15-b37b-409966735f58",
        "meta": {
          "profile": [
            "http://hl7.eu/fhir/base/StructureDefinition/organization-eu"
          ]
        },
        "identifier": [
          {
            "assigner": {
              "display": "HL7 Europe"
            },
            "system": "urn:oid:2.16.840.1.113883.2.51.999",
            "value": "179fb857-dfa5-4fe3-be05-f71d08329420"
          }
        ],
        "address": [
          {
            "line": [
              "Feistlestraße 2"
            ],
            "city": "Füssen",
            "postalCode": "87629",
            "country": "Germany"
          }
        ],
        "text": {
          "status": "generated",
          "div": "<div xmlns=\"http://www.w3.org/1999/xhtml\">Provider Organization: hier ist kein Ärztehaus</div>"
        },
        "name": "hier ist kein Ärztehaus"
      }
    },
    {
      "fullUrl": "urn:uuid:c42616ad-6b99-4940-b552-301fd066bc2a",
      "resource": {
        "resourceType": "Specimen",
        "id": "c42616ad-6b99-4940-b552-301fd066bc2a",
        "meta": {
          "profile": [
            "http://hl7.eu/fhir/laboratory/StructureDefinition/Specimen-eu-lab"
          ]
        },
        "collection": {
          "collectedDateTime": "2023-09-23"
        },
        "text": {
          "status": "generated",
          "div": "<div xmlns=\"http://www.w3.org/1999/xhtml\"><table class=\"hl7__eu__lab__report\"><tr><th>Specimen</th><th>Collection Date</th></tr><tr><td>Whole blood specimen (specimen)</td><td><span class=\"nb\">23-Sep-2023</span></td></tr></table></div>"
        },
        "type": {
          "coding": [
            {
              "code": "258580003",
              "system": "http://snomed.info/sct",
              "display": "Whole blood specimen (specimen)"
            }
          ]
        }
      }
    },
    {
      "fullUrl": "urn:uuid:c0ba2457-8054-40ab-b388-cd9ee781f1f4",
      "resource": {
        "resourceType": "Specimen",
        "id": "c0ba2457-8054-40ab-b388-cd9ee781f1f4",
        "meta": {
          "profile": [
            "http://hl7.eu/fhir/laboratory/StructureDefinition/Specimen-eu-lab"
          ]
        },
        "collection": {
          "collectedDateTime": "2023-09-23"
        },
        "text": {
          "status": "generated",
          "div": "<div xmlns=\"http://www.w3.org/1999/xhtml\"><table class=\"hl7__eu__lab__report\"><tr><th>Specimen</th><th>Collection Date</th></tr><tr><td>Acellular blood (serum or plasma) specimen</td><td><span class=\"nb\">23-Sep-2023</span></td></tr></table></div>"
        },
        "type": {
          "coding": [
            {
              "code": "122592007",
              "system": "http://snomed.info/sct",
              "display": "Acellular blood (serum or plasma) specimen"
            }
          ]
        }
      }
    },
    {
      "fullUrl": "urn:uuid:f3561c50-25e2-4e95-8672-e3f1aa1005b5",
      "resource": {
        "resourceType": "Specimen",
        "id": "f3561c50-25e2-4e95-8672-e3f1aa1005b5",
        "meta": {
          "profile": [
            "http://hl7.eu/fhir/laboratory/StructureDefinition/Specimen-eu-lab"
          ]
        },
        "collection": {
          "collectedDateTime": "2023-09-23"
        },
        "text": {
          "status": "generated",
          "div": "<div xmlns=\"http://www.w3.org/1999/xhtml\"><table class=\"hl7__eu__lab__report\"><tr><th>Specimen</th><th>Collection Date</th></tr><tr><td>Serum specimen</td><td><span class=\"nb\">23-Sep-2023</span></td></tr></table></div>"
        },
        "type": {
          "coding": [
            {
              "code": "119364003",
              "system": "http://snomed.info/sct",
              "display": "Serum specimen"
            }
          ]
        }
      }
    },
    {
      "fullUrl": "urn:uuid:6afe0a9a-8b39-43dd-ad9e-7225c103b544",
      "resource": {
        "resourceType": "Observation",
        "id": "6afe0a9a-8b39-43dd-ad9e-7225c103b544",
        "meta": {
          "profile": [
            "http://hl7.eu/fhir/laboratory/StructureDefinition/Observation-resultslab-eu-lab"
          ]
        },
        "performer": [
          {
            "display": "The Central European Lab"
          }
        ],
        "category": [
          {
            "coding": [
              {
                "system": "http://terminology.hl7.org/CodeSystem/observation-category",
                "code": "laboratory"
              }
            ]
          }
        ],
        "code": {
          "coding": [
            {
              "code": "2339-0",
              "system": "http://loinc.org",
              "display": "Glucose [Mass/volume] in Blood"
            }
          ],
          "text": "Glucose [Mass/volume] in Blood"
        },
        "valueQuantity": {
          "system": "http://unitsofmeasure.org",
          "value": 89.4,
          "unit": "mg/dL",
          "code": "mg/dL"
        },
        "referenceRange": [
          {
            "low": {
              "value": 70,
              "code": "mg/dL",
              "system": "http://unitsofmeasure.org"
            }
          },
          {
            "high": {
              "value": 140,
              "code": "mg/dL",
              "system": "http://unitsofmeasure.org"
            }
          }
        ],
        "text": {
          "status": "generated",
          "div": "<div xmlns=\"http://www.w3.org/1999/xhtml\"><table class=\"hl7__eu__lab__report\"><tr><th>Test</th><th>23-Sep-2023</th><th>Reference&#xA0;Range</th><th>Unit</th></tr><tr><td>Glucose [Mass/volume] in Blood</td><td>89.4</td><td>70 - 140</td><td></td><td>mg/dL</td></tr></table></div>"
        },
        "status": "final",
        "subject": {
          "reference": "urn:uuid:4e82c11a-a989-4dc5-821c-77f678e779b8",
          "display": "Leonhard Köhler"
        },
        "effectiveDateTime": "2023-09-23T02:48:23Z",
        "specimen": {
          "reference": "urn:uuid:c42616ad-6b99-4940-b552-301fd066bc2a"
        }
      }
    },
    {
      "fullUrl": "urn:uuid:298459d1-5109-45d3-a579-0b5a0e2d1bac",
      "resource": {
        "resourceType": "Observation",
        "id": "298459d1-5109-45d3-a579-0b5a0e2d1bac",
        "meta": {
          "profile": [
            "http://hl7.eu/fhir/laboratory/StructureDefinition/Observation-resultslab-eu-lab"
          ]
        },
        "performer": [
          {
            "display": "The Central European Lab"
          }
        ],
        "category": [
          {
            "coding": [
              {
                "system": "http://terminology.hl7.org/CodeSystem/observation-category",
                "code": "laboratory"
              }
            ]
          }
        ],
        "code": {
          "coding": [
            {
              "code": "6299-2",
              "system": "http://loinc.org",
              "display": "Urea nitrogen [Mass/volume] in Blood"
            }
          ],
          "text": "Urea nitrogen [Mass/volume] in Blood"
        },
        "valueQuantity": {
          "system": "http://unitsofmeasure.org",
          "value": 18.6,
          "unit": "mg/dL",
          "code": "mg/dL"
        },
        "referenceRange": [
          {
            "low": {
              "value": 7,
              "code": "mg/dL",
              "system": "http://unitsofmeasure.org"
            }
          },
          {
            "high": {
              "value": 20,
              "code": "mg/dL",
              "system": "http://unitsofmeasure.org"
            }
          }
        ],
        "text": {
          "status": "generated",
          "div": "<div xmlns=\"http://www.w3.org/1999/xhtml\"><table class=\"hl7__eu__lab__report\"><tr><th>Test</th><th>23-Sep-2023</th><th>Reference&#xA0;Range</th><th>Unit</th></tr><tr><td>Urea nitrogen [Mass/volume] in Blood</td><td>18.6</td><td>7 - 20</td><td></td><td>mg/dL</td></tr></table></div>"
        },
        "status": "final",
        "subject": {
          "reference": "urn:uuid:4e82c11a-a989-4dc5-821c-77f678e779b8",
          "display": "Leonhard Köhler"
        },
        "effectiveDateTime": "2023-09-23T02:48:23Z",
        "specimen": {
          "reference": "urn:uuid:c42616ad-6b99-4940-b552-301fd066bc2a"
        }
      }
    },
    {
      "fullUrl": "urn:uuid:3a2a422d-78c2-4be5-b6c5-5b568044234c",
      "resource": {
        "resourceType": "Observation",
        "id": "3a2a422d-78c2-4be5-b6c5-5b568044234c",
        "meta": {
          "profile": [
            "http://hl7.eu/fhir/laboratory/StructureDefinition/Observation-resultslab-eu-lab"
          ]
        },
        "performer": [
          {
            "display": "The Central European Lab"
          }
        ],
        "category": [
          {
            "coding": [
              {
                "system": "http://terminology.hl7.org/CodeSystem/observation-category",
                "code": "laboratory"
              }
            ]
          }
        ],
        "code": {
          "coding": [
            {
              "code": "38483-4",
              "system": "http://loinc.org",
              "display": "Creatinine [Mass/volume] in Blood"
            }
          ],
          "text": "Creatinine [Mass/volume] in Blood"
        },
        "valueQuantity": {
          "system": "http://unitsofmeasure.org",
          "value": 2.7,
          "unit": "mg/dL",
          "code": "mg/dL"
        },
        "referenceRange": [
          {
            "low": {
              "value": 0.6,
              "code": "mg/dL",
              "system": "http://unitsofmeasure.org"
            }
          },
          {
            "high": {
              "value": 1.3,
              "code": "mg/dL",
              "system": "http://unitsofmeasure.org"
            }
          }
        ],
        "interpretation": [
          {
            "coding": [
              {
                "code": "H",
                "system": "http://terminology.hl7.org/CodeSystem/v3-ObservationInterpretation",
                "display": "High"
              }
            ]
          }
        ],
        "text": {
          "status": "generated",
          "div": "<div xmlns=\"http://www.w3.org/1999/xhtml\"><table class=\"hl7__eu__lab__report\"><tr><th>Test</th><th>23-Sep-2023</th><th>Reference&#xA0;Range</th><th>Unit</th></tr><tr><td>Creatinine [Mass/volume] in Blood</td><td>2.7</td><td>0.6 - 1.3</td><td>H</td><td>mg/dL</td></tr></table></div>"
        },
        "status": "final",
        "subject": {
          "reference": "urn:uuid:4e82c11a-a989-4dc5-821c-77f678e779b8",
          "display": "Leonhard Köhler"
        },
        "effectiveDateTime": "2023-09-23T02:48:23Z",
        "specimen": {
          "reference": "urn:uuid:c42616ad-6b99-4940-b552-301fd066bc2a"
        }
      }
    },
    {
      "fullUrl": "urn:uuid:0d8d7d43-5488-48f0-a192-6ab7aa4efcdd",
      "resource": {
        "resourceType": "Observation",
        "id": "0d8d7d43-5488-48f0-a192-6ab7aa4efcdd",
        "meta": {
          "profile": [
            "http://hl7.eu/fhir/laboratory/StructureDefinition/Observation-resultslab-eu-lab"
          ]
        },
        "performer": [
          {
            "display": "The Central European Lab"
          }
        ],
        "category": [
          {
            "coding": [
              {
                "system": "http://terminology.hl7.org/CodeSystem/observation-category",
                "code": "laboratory"
              }
            ]
          }
        ],
        "code": {
          "coding": [
            {
              "code": "49765-1",
              "system": "http://loinc.org",
              "display": "Calcium [Mass/volume] in Blood"
            }
          ],
          "text": "Calcium [Mass/volume] in Blood"
        },
        "valueQuantity": {
          "system": "http://unitsofmeasure.org",
          "value": 9.2,
          "unit": "mg/dL",
          "code": "mg/dL"
        },
        "referenceRange": [
          {
            "low": {
              "value": 8.5,
              "code": "mg/dL",
              "system": "http://unitsofmeasure.org"
            }
          },
          {
            "high": {
              "value": 10.5,
              "code": "mg/dL",
              "system": "http://unitsofmeasure.org"
            }
          }
        ],
        "text": {
          "status": "generated",
          "div": "<div xmlns=\"http://www.w3.org/1999/xhtml\"><table class=\"hl7__eu__lab__report\"><tr><th>Test</th><th>23-Sep-2023</th><th>Reference&#xA0;Range</th><th>Unit</th></tr><tr><td>Calcium [Mass/volume] in Blood</td><td>9.2</td><td>8.5 - 10.5</td><td></td><td>mg/dL</td></tr></table></div>"
        },
        "status": "final",
        "subject": {
          "reference": "urn:uuid:4e82c11a-a989-4dc5-821c-77f678e779b8",
          "display": "Leonhard Köhler"
        },
        "effectiveDateTime": "2023-09-23T02:48:23Z",
        "specimen": {
          "reference": "urn:uuid:c42616ad-6b99-4940-b552-301fd066bc2a"
        }
      }
    },
    {
      "fullUrl": "urn:uuid:a7c8e5d3-b8ef-4d92-8ded-d636184e28b2",
      "resource": {
        "resourceType": "Observation",
        "id": "a7c8e5d3-b8ef-4d92-8ded-d636184e28b2",
        "meta": {
          "profile": [
            "http://hl7.eu/fhir/laboratory/StructureDefinition/Observation-resultslab-eu-lab"
          ]
        },
        "performer": [
          {
            "display": "The Central European Lab"
          }
        ],
        "category": [
          {
            "coding": [
              {
                "system": "http://terminology.hl7.org/CodeSystem/observation-category",
                "code": "laboratory"
              }
            ]
          }
        ],
        "code": {
          "coding": [
            {
              "code": "2947-0",
              "system": "http://loinc.org",
              "display": "Sodium [Moles/volume] in Blood"
            }
          ],
          "text": "Sodium [Moles/volume] in Blood"
        },
        "valueQuantity": {
          "system": "http://unitsofmeasure.org",
          "value": 141.8,
          "unit": "mmol/L",
          "code": "mmol/L"
        },
        "referenceRange": [
          {
            "low": {
              "value": 135,
              "code": "mmol/L",
              "system": "http://unitsofmeasure.org"
            }
          },
          {
            "high": {
              "value": 145,
              "code": "mmol/L",
              "system": "http://unitsofmeasure.org"
            }
          }
        ],
        "text": {
          "status": "generated",
          "div": "<div xmlns=\"http://www.w3.org/1999/xhtml\"><table class=\"hl7__eu__lab__report\"><tr><th>Test</th><th>23-Sep-2023</th><th>Reference&#xA0;Range</th><th>Unit</th></tr><tr><td>Sodium [Moles/volume] in Blood</td><td>141.8</td><td>135 - 145</td><td></td><td>mmol/L</td></tr></table></div>"
        },
        "status": "final",
        "subject": {
          "reference": "urn:uuid:4e82c11a-a989-4dc5-821c-77f678e779b8",
          "display": "Leonhard Köhler"
        },
        "effectiveDateTime": "2023-09-23T02:48:23Z",
        "specimen": {
          "reference": "urn:uuid:c42616ad-6b99-4940-b552-301fd066bc2a"
        }
      }
    },
    {
      "fullUrl": "urn:uuid:f85ba516-1a8a-4e59-a692-1ebc836a7684",
      "resource": {
        "resourceType": "Observation",
        "id": "f85ba516-1a8a-4e59-a692-1ebc836a7684",
        "meta": {
          "profile": [
            "http://hl7.eu/fhir/laboratory/StructureDefinition/Observation-resultslab-eu-lab"
          ]
        },
        "performer": [
          {
            "display": "The Central European Lab"
          }
        ],
        "category": [
          {
            "coding": [
              {
                "system": "http://terminology.hl7.org/CodeSystem/observation-category",
                "code": "laboratory"
              }
            ]
          }
        ],
        "code": {
          "coding": [
            {
              "code": "6298-4",
              "system": "http://loinc.org",
              "display": "Potassium [Moles/volume] in Blood"
            }
          ],
          "text": "Potassium [Moles/volume] in Blood"
        },
        "valueQuantity": {
          "system": "http://unitsofmeasure.org",
          "value": 4.8,
          "unit": "mmol/L",
          "code": "mmol/L"
        },
        "referenceRange": [
          {
            "low": {
              "value": 3.5,
              "code": "mmol/L",
              "system": "http://unitsofmeasure.org"
            }
          },
          {
            "high": {
              "value": 5.1,
              "code": "mmol/L",
              "system": "http://unitsofmeasure.org"
            }
          }
        ],
        "text": {
          "status": "generated",
          "div": "<div xmlns=\"http://www.w3.org/1999/xhtml\"><table class=\"hl7__eu__lab__report\"><tr><th>Test</th><th>23-Sep-2023</th><th>Reference&#xA0;Range</th><th>Unit</th></tr><tr><td>Potassium [Moles/volume] in Blood</td><td>4.8</td><td>3.5 - 5.1</td><td></td><td>mmol/L</td></tr></table></div>"
        },
        "status": "final",
        "subject": {
          "reference": "urn:uuid:4e82c11a-a989-4dc5-821c-77f678e779b8",
          "display": "Leonhard Köhler"
        },
        "effectiveDateTime": "2023-09-23T02:48:23Z",
        "specimen": {
          "reference": "urn:uuid:c42616ad-6b99-4940-b552-301fd066bc2a"
        }
      }
    },
    {
      "fullUrl": "urn:uuid:6a9be971-2bf6-4b17-b048-5ccdf183245e",
      "resource": {
        "resourceType": "Observation",
        "id": "6a9be971-2bf6-4b17-b048-5ccdf183245e",
        "meta": {
          "profile": [
            "http://hl7.eu/fhir/laboratory/StructureDefinition/Observation-resultslab-eu-lab"
          ]
        },
        "performer": [
          {
            "display": "The Central European Lab"
          }
        ],
        "category": [
          {
            "coding": [
              {
                "system": "http://terminology.hl7.org/CodeSystem/observation-category",
                "code": "laboratory"
              }
            ]
          }
        ],
        "code": {
          "coding": [
            {
              "code": "2069-3",
              "system": "http://loinc.org",
              "display": "Chloride [Moles/volume] in Blood"
            }
          ],
          "text": "Chloride [Moles/volume] in Blood"
        },
        "valueQuantity": {
          "system": "http://unitsofmeasure.org",
          "value": 103.4,
          "unit": "mmol/L",
          "code": "mmol/L"
        },
        "referenceRange": [
          {
            "low": {
              "value": 98,
              "code": "mmol/L",
              "system": "http://unitsofmeasure.org"
            }
          },
          {
            "high": {
              "value": 108,
              "code": "mmol/L",
              "system": "http://unitsofmeasure.org"
            }
          }
        ],
        "text": {
          "status": "generated",
          "div": "<div xmlns=\"http://www.w3.org/1999/xhtml\"><table class=\"hl7__eu__lab__report\"><tr><th>Test</th><th>23-Sep-2023</th><th>Reference&#xA0;Range</th><th>Unit</th></tr><tr><td>Chloride [Moles/volume] in Blood</td><td>103.4</td><td>98 - 108</td><td></td><td>mmol/L</td></tr></table></div>"
        },
        "status": "final",
        "subject": {
          "reference": "urn:uuid:4e82c11a-a989-4dc5-821c-77f678e779b8",
          "display": "Leonhard Köhler"
        },
        "effectiveDateTime": "2023-09-23T02:48:23Z",
        "specimen": {
          "reference": "urn:uuid:c42616ad-6b99-4940-b552-301fd066bc2a"
        }
      }
    },
    {
      "fullUrl": "urn:uuid:561429e5-2781-42ee-b47c-3b4ece19e90d",
      "resource": {
        "resourceType": "Observation",
        "id": "561429e5-2781-42ee-b47c-3b4ece19e90d",
        "meta": {
          "profile": [
            "http://hl7.eu/fhir/laboratory/StructureDefinition/Observation-resultslab-eu-lab"
          ]
        },
        "performer": [
          {
            "display": "The Central European Lab"
          }
        ],
        "category": [
          {
            "coding": [
              {
                "system": "http://terminology.hl7.org/CodeSystem/observation-category",
                "code": "laboratory"
              }
            ]
          }
        ],
        "code": {
          "coding": [
            {
              "code": "20565-8",
              "system": "http://loinc.org",
              "display": "Carbon dioxide, total [Moles/volume] in Blood"
            }
          ],
          "text": "Carbon dioxide, total [Moles/volume] in Blood"
        },
        "valueQuantity": {
          "system": "http://unitsofmeasure.org",
          "value": 26.6,
          "unit": "mmol/L",
          "code": "mmol/L"
        },
        "referenceRange": [
          {
            "low": {
              "value": 22,
              "code": "mmol/L",
              "system": "http://unitsofmeasure.org"
            }
          },
          {
            "high": {
              "value": 32,
              "code": "mmol/L",
              "system": "http://unitsofmeasure.org"
            }
          }
        ],
        "text": {
          "status": "generated",
          "div": "<div xmlns=\"http://www.w3.org/1999/xhtml\"><table class=\"hl7__eu__lab__report\"><tr><th>Test</th><th>23-Sep-2023</th><th>Reference&#xA0;Range</th><th>Unit</th></tr><tr><td>Carbon dioxide, total [Moles/volume] in Blood</td><td>26.6</td><td>22 - 32</td><td></td><td>mmol/L</td></tr></table></div>"
        },
        "status": "final",
        "subject": {
          "reference": "urn:uuid:4e82c11a-a989-4dc5-821c-77f678e779b8",
          "display": "Leonhard Köhler"
        },
        "effectiveDateTime": "2023-09-23T02:48:23Z",
        "specimen": {
          "reference": "urn:uuid:c42616ad-6b99-4940-b552-301fd066bc2a"
        }
      }
    },
    {
      "fullUrl": "urn:uuid:727c45e9-9b18-4746-b623-f3c582e80135",
      "resource": {
        "resourceType": "Observation",
        "id": "727c45e9-9b18-4746-b623-f3c582e80135",
        "meta": {
          "profile": [
            "http://hl7.eu/fhir/laboratory/StructureDefinition/Observation-resultslab-eu-lab"
          ]
        },
        "performer": [
          {
            "display": "The Central European Lab"
          }
        ],
        "category": [
          {
            "coding": [
              {
                "system": "http://terminology.hl7.org/CodeSystem/observation-category",
                "code": "laboratory"
              }
            ]
          }
        ],
        "code": {
          "coding": [
            {
              "code": "2885-2",
              "system": "http://loinc.org",
              "display": "Protein [Mass/volume] in Serum or Plasma"
            }
          ],
          "text": "Protein [Mass/volume] in Serum or Plasma"
        },
        "valueQuantity": {
          "system": "http://unitsofmeasure.org",
          "value": 6.5,
          "unit": "g/dL",
          "code": "g/dL"
        },
        "referenceRange": [
          {
            "low": {
              "value": 6.6,
              "code": "g/dL",
              "system": "http://unitsofmeasure.org"
            }
          },
          {
            "high": {
              "value": 8.3,
              "code": "g/dL",
              "system": "http://unitsofmeasure.org"
            }
          }
        ],
        "interpretation": [
          {
            "coding": [
              {
                "code": "L",
                "system": "http://terminology.hl7.org/CodeSystem/v3-ObservationInterpretation",
                "display": "Low"
              }
            ]
          }
        ],
        "text": {
          "status": "generated",
          "div": "<div xmlns=\"http://www.w3.org/1999/xhtml\"><table class=\"hl7__eu__lab__report\"><tr><th>Test</th><th>23-Sep-2023</th><th>Reference&#xA0;Range</th><th>Unit</th></tr><tr><td>Protein [Mass/volume] in Serum or Plasma</td><td>6.5</td><td>6.6 - 8.3</td><td>L</td><td>g/dL</td></tr></table></div>"
        },
        "status": "final",
        "subject": {
          "reference": "urn:uuid:4e82c11a-a989-4dc5-821c-77f678e779b8",
          "display": "Leonhard Köhler"
        },
        "effectiveDateTime": "2023-09-23T02:48:23Z",
        "specimen": {
          "reference": "urn:uuid:c0ba2457-8054-40ab-b388-cd9ee781f1f4"
        }
      }
    },
    {
      "fullUrl": "urn:uuid:baef4917-5eb4-4357-b944-cf6179de73c6",
      "resource": {
        "resourceType": "Observation",
        "id": "baef4917-5eb4-4357-b944-cf6179de73c6",
        "meta": {
          "profile": [
            "http://hl7.eu/fhir/laboratory/StructureDefinition/Observation-resultslab-eu-lab"
          ]
        },
        "performer": [
          {
            "display": "The Central European Lab"
          }
        ],
        "category": [
          {
            "coding": [
              {
                "system": "http://terminology.hl7.org/CodeSystem/observation-category",
                "code": "laboratory"
              }
            ]
          }
        ],
        "code": {
          "coding": [
            {
              "code": "1751-7",
              "system": "http://loinc.org",
              "display": "Albumin [Mass/volume] in Serum or Plasma"
            }
          ],
          "text": "Albumin [Mass/volume] in Serum or Plasma"
        },
        "valueQuantity": {
          "system": "http://unitsofmeasure.org",
          "value": 4.6,
          "unit": "g/dL",
          "code": "g/dL"
        },
        "referenceRange": [
          {
            "low": {
              "value": 3.5,
              "code": "g/dL",
              "system": "http://unitsofmeasure.org"
            }
          },
          {
            "high": {
              "value": 5.5,
              "code": "g/dL",
              "system": "http://unitsofmeasure.org"
            }
          }
        ],
        "text": {
          "status": "generated",
          "div": "<div xmlns=\"http://www.w3.org/1999/xhtml\"><table class=\"hl7__eu__lab__report\"><tr><th>Test</th><th>23-Sep-2023</th><th>Reference&#xA0;Range</th><th>Unit</th></tr><tr><td>Albumin [Mass/volume] in Serum or Plasma</td><td>4.6</td><td>3.5 - 5.5</td><td></td><td>g/dL</td></tr></table></div>"
        },
        "status": "final",
        "subject": {
          "reference": "urn:uuid:4e82c11a-a989-4dc5-821c-77f678e779b8",
          "display": "Leonhard Köhler"
        },
        "effectiveDateTime": "2023-09-23T02:48:23Z",
        "specimen": {
          "reference": "urn:uuid:c0ba2457-8054-40ab-b388-cd9ee781f1f4"
        }
      }
    },
    {
      "fullUrl": "urn:uuid:7bd9d26c-2a61-4bef-a3d5-58f49f944188",
      "resource": {
        "resourceType": "Observation",
        "id": "7bd9d26c-2a61-4bef-a3d5-58f49f944188",
        "meta": {
          "profile": [
            "http://hl7.eu/fhir/laboratory/StructureDefinition/Observation-resultslab-eu-lab"
          ]
        },
        "performer": [
          {
            "display": "The Central European Lab"
          }
        ],
        "category": [
          {
            "coding": [
              {
                "system": "http://terminology.hl7.org/CodeSystem/observation-category",
                "code": "laboratory"
              }
            ]
          }
        ],
        "code": {
          "coding": [
            {
              "code": "10834-0",
              "system": "http://loinc.org",
              "display": "Globulin [Mass/volume] in Serum by calculation"
            }
          ],
          "text": "Globulin [Mass/volume] in Serum by calculation"
        },
        "valueQuantity": {
          "system": "http://unitsofmeasure.org",
          "value": 3.2,
          "unit": "g/L",
          "code": "g/L"
        },
        "referenceRange": [
          {
            "low": {
              "value": 2,
              "code": "g/L",
              "system": "http://unitsofmeasure.org"
            }
          },
          {
            "high": {
              "value": 3.5,
              "code": "g/L",
              "system": "http://unitsofmeasure.org"
            }
          }
        ],
        "text": {
          "status": "generated",
          "div": "<div xmlns=\"http://www.w3.org/1999/xhtml\"><table class=\"hl7__eu__lab__report\"><tr><th>Test</th><th>23-Sep-2023</th><th>Reference&#xA0;Range</th><th>Unit</th></tr><tr><td>Globulin [Mass/volume] in Serum by calculation</td><td>3.2</td><td>2 - 3.5</td><td></td><td>g/L</td></tr></table></div>"
        },
        "status": "final",
        "subject": {
          "reference": "urn:uuid:4e82c11a-a989-4dc5-821c-77f678e779b8",
          "display": "Leonhard Köhler"
        },
        "effectiveDateTime": "2023-09-23T02:48:23Z",
        "specimen": {
          "reference": "urn:uuid:f3561c50-25e2-4e95-8672-e3f1aa1005b5"
        }
      }
    },
    {
      "fullUrl": "urn:uuid:23b39975-ff27-40e1-bb31-33d4bd9a290d",
      "resource": {
        "resourceType": "Observation",
        "id": "23b39975-ff27-40e1-bb31-33d4bd9a290d",
        "meta": {
          "profile": [
            "http://hl7.eu/fhir/laboratory/StructureDefinition/Observation-resultslab-eu-lab"
          ]
        },
        "performer": [
          {
            "display": "The Central European Lab"
          }
        ],
        "category": [
          {
            "coding": [
              {
                "system": "http://terminology.hl7.org/CodeSystem/observation-category",
                "code": "laboratory"
              }
            ]
          }
        ],
        "code": {
          "coding": [
            {
              "code": "1975-2",
              "system": "http://loinc.org",
              "display": "Bilirubin.total [Mass/volume] in Serum or Plasma"
            }
          ],
          "text": "Bilirubin.total [Mass/volume] in Serum or Plasma"
        },
        "valueQuantity": {
          "system": "http://unitsofmeasure.org",
          "value": 0.3,
          "unit": "mg/dL",
          "code": "mg/dL"
        },
        "referenceRange": [
          {
            "low": {
              "value": 0.3,
              "code": "mg/dL",
              "system": "http://unitsofmeasure.org"
            }
          },
          {
            "high": {
              "value": 1.2,
              "code": "mg/dL",
              "system": "http://unitsofmeasure.org"
            }
          }
        ],
        "text": {
          "status": "generated",
          "div": "<div xmlns=\"http://www.w3.org/1999/xhtml\"><table class=\"hl7__eu__lab__report\"><tr><th>Test</th><th>23-Sep-2023</th><th>Reference&#xA0;Range</th><th>Unit</th></tr><tr><td>Bilirubin.total [Mass/volume] in Serum or Plasma</td><td>0.3</td><td>0.3 - 1.2</td><td></td><td>mg/dL</td></tr></table></div>"
        },
        "status": "final",
        "subject": {
          "reference": "urn:uuid:4e82c11a-a989-4dc5-821c-77f678e779b8",
          "display": "Leonhard Köhler"
        },
        "effectiveDateTime": "2023-09-23T02:48:23Z",
        "specimen": {
          "reference": "urn:uuid:c0ba2457-8054-40ab-b388-cd9ee781f1f4"
        }
      }
    },
    {
      "fullUrl": "urn:uuid:33aeb4d9-501a-4106-99f0-4d910d530206",
      "resource": {
        "resourceType": "Observation",
        "id": "33aeb4d9-501a-4106-99f0-4d910d530206",
        "meta": {
          "profile": [
            "http://hl7.eu/fhir/laboratory/StructureDefinition/Observation-resultslab-eu-lab"
          ]
        },
        "performer": [
          {
            "display": "The Central European Lab"
          }
        ],
        "category": [
          {
            "coding": [
              {
                "system": "http://terminology.hl7.org/CodeSystem/observation-category",
                "code": "laboratory"
              }
            ]
          }
        ],
        "code": {
          "coding": [
            {
              "code": "6768-6",
              "system": "http://loinc.org",
              "display": "Alkaline phosphatase [Enzymatic activity/volume] in Serum or Plasma"
            }
          ],
          "text": "Alkaline phosphatase [Enzymatic activity/volume] in Serum or Plasma"
        },
        "valueQuantity": {
          "system": "http://unitsofmeasure.org",
          "value": 139.4,
          "unit": "U/L",
          "code": "U/L"
        },
        "referenceRange": [
          {
            "low": {
              "value": 53,
              "code": "U/L",
              "system": "http://unitsofmeasure.org"
            }
          },
          {
            "high": {
              "value": 130,
              "code": "U/L",
              "system": "http://unitsofmeasure.org"
            }
          }
        ],
        "interpretation": [
          {
            "coding": [
              {
                "code": "H",
                "system": "http://terminology.hl7.org/CodeSystem/v3-ObservationInterpretation",
                "display": "High"
              }
            ]
          }
        ],
        "text": {
          "status": "generated",
          "div": "<div xmlns=\"http://www.w3.org/1999/xhtml\"><table class=\"hl7__eu__lab__report\"><tr><th>Test</th><th>23-Sep-2023</th><th>Reference&#xA0;Range</th><th>Unit</th></tr><tr><td>Alkaline phosphatase [Enzymatic activity/volume] in Serum or Plasma</td><td>139.4</td><td>53 - 130</td><td>H</td><td>U/L</td></tr></table></div>"
        },
        "status": "final",
        "subject": {
          "reference": "urn:uuid:4e82c11a-a989-4dc5-821c-77f678e779b8",
          "display": "Leonhard Köhler"
        },
        "effectiveDateTime": "2023-09-23T02:48:23Z",
        "specimen": {
          "reference": "urn:uuid:c0ba2457-8054-40ab-b388-cd9ee781f1f4"
        }
      }
    },
    {
      "fullUrl": "urn:uuid:dd8ca95a-9375-4278-b26b-425298e8c6db",
      "resource": {
        "resourceType": "Observation",
        "id": "dd8ca95a-9375-4278-b26b-425298e8c6db",
        "meta": {
          "profile": [
            "http://hl7.eu/fhir/laboratory/StructureDefinition/Observation-resultslab-eu-lab"
          ]
        },
        "performer": [
          {
            "display": "The Central European Lab"
          }
        ],
        "category": [
          {
            "coding": [
              {
                "system": "http://terminology.hl7.org/CodeSystem/observation-category",
                "code": "laboratory"
              }
            ]
          }
        ],
        "code": {
          "coding": [
            {
              "code": "1742-6",
              "system": "http://loinc.org",
              "display": "Alanine aminotransferase [Enzymatic activity/volume] in Serum or Plasma"
            }
          ],
          "text": "Alanine aminotransferase [Enzymatic activity/volume] in Serum or Plasma"
        },
        "valueQuantity": {
          "system": "http://unitsofmeasure.org",
          "value": 46.4,
          "unit": "U/L",
          "code": "U/L"
        },
        "referenceRange": [
          {
            "low": {
              "value": 7,
              "code": "U/L",
              "system": "http://unitsofmeasure.org"
            }
          },
          {
            "high": {
              "value": 60,
              "code": "U/L",
              "system": "http://unitsofmeasure.org"
            }
          }
        ],
        "text": {
          "status": "generated",
          "div": "<div xmlns=\"http://www.w3.org/1999/xhtml\"><table class=\"hl7__eu__lab__report\"><tr><th>Test</th><th>23-Sep-2023</th><th>Reference&#xA0;Range</th><th>Unit</th></tr><tr><td>Alanine aminotransferase [Enzymatic activity/volume] in Serum or Plasma</td><td>46.4</td><td>7 - 60</td><td></td><td>U/L</td></tr></table></div>"
        },
        "status": "final",
        "subject": {
          "reference": "urn:uuid:4e82c11a-a989-4dc5-821c-77f678e779b8",
          "display": "Leonhard Köhler"
        },
        "effectiveDateTime": "2023-09-23T02:48:23Z",
        "specimen": {
          "reference": "urn:uuid:c0ba2457-8054-40ab-b388-cd9ee781f1f4"
        }
      }
    },
    {
      "fullUrl": "urn:uuid:e771ab42-da49-4369-9e50-dcccad6e245e",
      "resource": {
        "resourceType": "Observation",
        "id": "e771ab42-da49-4369-9e50-dcccad6e245e",
        "meta": {
          "profile": [
            "http://hl7.eu/fhir/laboratory/StructureDefinition/Observation-resultslab-eu-lab"
          ]
        },
        "performer": [
          {
            "display": "The Central European Lab"
          }
        ],
        "category": [
          {
            "coding": [
              {
                "system": "http://terminology.hl7.org/CodeSystem/observation-category",
                "code": "laboratory"
              }
            ]
          }
        ],
        "code": {
          "coding": [
            {
              "code": "1920-8",
              "system": "http://loinc.org",
              "display": "Aspartate aminotransferase [Enzymatic activity/volume] in Serum or Plasma"
            }
          ],
          "text": "Aspartate aminotransferase [Enzymatic activity/volume] in Serum or Plasma"
        },
        "valueQuantity": {
          "system": "http://unitsofmeasure.org",
          "value": 34.9,
          "unit": "U/L",
          "code": "U/L"
        },
        "referenceRange": [
          {
            "low": {
              "value": 10,
              "code": "U/L",
              "system": "http://unitsofmeasure.org"
            }
          },
          {
            "high": {
              "value": 49,
              "code": "U/L",
              "system": "http://unitsofmeasure.org"
            }
          }
        ],
        "text": {
          "status": "generated",
          "div": "<div xmlns=\"http://www.w3.org/1999/xhtml\"><table class=\"hl7__eu__lab__report\"><tr><th>Test</th><th>23-Sep-2023</th><th>Reference&#xA0;Range</th><th>Unit</th></tr><tr><td>Aspartate aminotransferase [Enzymatic activity/volume] in Serum or Plasma</td><td>34.9</td><td>10 - 49</td><td></td><td>U/L</td></tr></table></div>"
        },
        "status": "final",
        "subject": {
          "reference": "urn:uuid:4e82c11a-a989-4dc5-821c-77f678e779b8",
          "display": "Leonhard Köhler"
        },
        "effectiveDateTime": "2023-09-23T02:48:23Z",
        "specimen": {
          "reference": "urn:uuid:c0ba2457-8054-40ab-b388-cd9ee781f1f4"
        }
      }
    },
    {
      "fullUrl": "urn:uuid:2ca02ec0-e3d8-4494-afee-bdbd7376849f",
      "resource": {
        "resourceType": "Observation",
        "id": "2ca02ec0-e3d8-4494-afee-bdbd7376849f",
        "meta": {
          "profile": [
            "http://hl7.eu/fhir/laboratory/StructureDefinition/Observation-resultslab-eu-lab"
          ]
        },
        "performer": [
          {
            "display": "The Central European Lab"
          }
        ],
        "category": [
          {
            "coding": [
              {
                "system": "http://terminology.hl7.org/CodeSystem/observation-category",
                "code": "laboratory"
              }
            ]
          }
        ],
        "code": {
          "coding": [
            {
              "code": "2093-3",
              "system": "http://loinc.org",
              "display": "Cholesterol [Mass/volume] in Serum or Plasma"
            }
          ],
          "text": "Cholesterol [Mass/volume] in Serum or Plasma"
        },
        "valueQuantity": {
          "system": "http://unitsofmeasure.org",
          "value": 170.5,
          "unit": "mg/dL",
          "code": "mg/dL"
        },
        "referenceRange": [
          {
            "low": {
              "value": 125,
              "code": "mg/dL",
              "system": "http://unitsofmeasure.org"
            }
          },
          {
            "high": {
              "value": 200,
              "code": "mg/dL",
              "system": "http://unitsofmeasure.org"
            }
          }
        ],
        "text": {
          "status": "generated",
          "div": "<div xmlns=\"http://www.w3.org/1999/xhtml\"><table class=\"hl7__eu__lab__report\"><tr><th>Test</th><th>23-Sep-2023</th><th>Reference&#xA0;Range</th><th>Unit</th></tr><tr><td>Cholesterol [Mass/volume] in Serum or Plasma</td><td>170.5</td><td>125 - 200</td><td></td><td>mg/dL</td></tr></table></div>"
        },
        "status": "final",
        "subject": {
          "reference": "urn:uuid:4e82c11a-a989-4dc5-821c-77f678e779b8",
          "display": "Leonhard Köhler"
        },
        "effectiveDateTime": "2023-09-23T02:48:23Z",
        "specimen": {
          "reference": "urn:uuid:c0ba2457-8054-40ab-b388-cd9ee781f1f4"
        }
      }
    },
    {
      "fullUrl": "urn:uuid:5916f3b4-17d7-4634-8792-ebca375bbdd9",
      "resource": {
        "resourceType": "Observation",
        "id": "5916f3b4-17d7-4634-8792-ebca375bbdd9",
        "meta": {
          "profile": [
            "http://hl7.eu/fhir/laboratory/StructureDefinition/Observation-resultslab-eu-lab"
          ]
        },
        "performer": [
          {
            "display": "The Central European Lab"
          }
        ],
        "category": [
          {
            "coding": [
              {
                "system": "http://terminology.hl7.org/CodeSystem/observation-category",
                "code": "laboratory"
              }
            ]
          }
        ],
        "code": {
          "coding": [
            {
              "code": "2571-8",
              "system": "http://loinc.org",
              "display": "Triglyceride [Mass/volume] in Serum or Plasma"
            }
          ],
          "text": "Triglyceride [Mass/volume] in Serum or Plasma"
        },
        "valueQuantity": {
          "system": "http://unitsofmeasure.org",
          "value": 121.2,
          "unit": "mg/dL",
          "code": "mg/dL"
        },
        "referenceRange": [
          {
            "low": {
              "value": 40,
              "code": "mg/dL",
              "system": "http://unitsofmeasure.org"
            }
          },
          {
            "high": {
              "value": 150,
              "code": "mg/dL",
              "system": "http://unitsofmeasure.org"
            }
          }
        ],
        "text": {
          "status": "generated",
          "div": "<div xmlns=\"http://www.w3.org/1999/xhtml\"><table class=\"hl7__eu__lab__report\"><tr><th>Test</th><th>23-Sep-2023</th><th>Reference&#xA0;Range</th><th>Unit</th></tr><tr><td>Triglyceride [Mass/volume] in Serum or Plasma</td><td>121.2</td><td>40 - 150</td><td></td><td>mg/dL</td></tr></table></div>"
        },
        "status": "final",
        "subject": {
          "reference": "urn:uuid:4e82c11a-a989-4dc5-821c-77f678e779b8",
          "display": "Leonhard Köhler"
        },
        "effectiveDateTime": "2023-09-23T02:48:23Z",
        "specimen": {
          "reference": "urn:uuid:c0ba2457-8054-40ab-b388-cd9ee781f1f4"
        }
      }
    },
    {
      "fullUrl": "urn:uuid:6bb468b9-e5c9-4385-a03b-4ad3d764755b",
      "resource": {
        "resourceType": "Observation",
        "id": "6bb468b9-e5c9-4385-a03b-4ad3d764755b",
        "meta": {
          "profile": [
            "http://hl7.eu/fhir/laboratory/StructureDefinition/Observation-resultslab-eu-lab"
          ]
        },
        "performer": [
          {
            "display": "The Central European Lab"
          }
        ],
        "category": [
          {
            "coding": [
              {
                "system": "http://terminology.hl7.org/CodeSystem/observation-category",
                "code": "laboratory"
              }
            ]
          }
        ],
        "code": {
          "coding": [
            {
              "code": "18262-6",
              "system": "http://loinc.org",
              "display": "Cholesterol in LDL [Mass/volume] in Serum or Plasma by Direct assay"
            }
          ],
          "text": "Cholesterol in LDL [Mass/volume] in Serum or Plasma by Direct assay"
        },
        "valueQuantity": {
          "system": "http://unitsofmeasure.org",
          "value": 126,
          "unit": "mg/dL",
          "code": "mg/dL"
        },
        "referenceRange": [
          {
            "low": {
              "value": 0,
              "code": "mg/dL",
              "system": "http://unitsofmeasure.org"
            }
          },
          {
            "high": {
              "value": 190,
              "code": "mg/dL",
              "system": "http://unitsofmeasure.org"
            }
          }
        ],
        "text": {
          "status": "generated",
          "div": "<div xmlns=\"http://www.w3.org/1999/xhtml\"><table class=\"hl7__eu__lab__report\"><tr><th>Test</th><th>23-Sep-2023</th><th>Reference&#xA0;Range</th><th>Unit</th></tr><tr><td>Cholesterol in LDL [Mass/volume] in Serum or Plasma by Direct assay</td><td>126.0</td><td>0 - 190</td><td></td><td>mg/dL</td></tr></table></div>"
        },
        "status": "final",
        "subject": {
          "reference": "urn:uuid:4e82c11a-a989-4dc5-821c-77f678e779b8",
          "display": "Leonhard Köhler"
        },
        "effectiveDateTime": "2023-09-23T02:48:23Z",
        "specimen": {
          "reference": "urn:uuid:c0ba2457-8054-40ab-b388-cd9ee781f1f4"
        }
      }
    },
    {
      "fullUrl": "urn:uuid:7bf7825e-65d4-4cd4-a04e-e235e00f2877",
      "resource": {
        "resourceType": "Observation",
        "id": "7bf7825e-65d4-4cd4-a04e-e235e00f2877",
        "meta": {
          "profile": [
            "http://hl7.eu/fhir/laboratory/StructureDefinition/Observation-resultslab-eu-lab"
          ]
        },
        "performer": [
          {
            "display": "The Central European Lab"
          }
        ],
        "category": [
          {
            "coding": [
              {
                "system": "http://terminology.hl7.org/CodeSystem/observation-category",
                "code": "laboratory"
              }
            ]
          }
        ],
        "code": {
          "coding": [
            {
              "code": "2085-9",
              "system": "http://loinc.org",
              "display": "Cholesterol in HDL [Mass/volume] in Serum or Plasma"
            }
          ],
          "text": "Cholesterol in HDL [Mass/volume] in Serum or Plasma"
        },
        "valueQuantity": {
          "system": "http://unitsofmeasure.org",
          "value": 62.4,
          "unit": "mg/dL",
          "code": "mg/dL"
        },
        "referenceRange": [
          {
            "low": {
              "value": 40,
              "code": "mg/dL",
              "system": "http://unitsofmeasure.org"
            }
          },
          {
            "high": {
              "value": 60,
              "code": "mg/dL",
              "system": "http://unitsofmeasure.org"
            }
          }
        ],
        "interpretation": [
          {
            "coding": [
              {
                "code": "H",
                "system": "http://terminology.hl7.org/CodeSystem/v3-ObservationInterpretation",
                "display": "High"
              }
            ]
          }
        ],
        "text": {
          "status": "generated",
          "div": "<div xmlns=\"http://www.w3.org/1999/xhtml\"><table class=\"hl7__eu__lab__report\"><tr><th>Test</th><th>23-Sep-2023</th><th>Reference&#xA0;Range</th><th>Unit</th></tr><tr><td>Cholesterol in HDL [Mass/volume] in Serum or Plasma</td><td>62.4</td><td>40 - 60</td><td>H</td><td>mg/dL</td></tr></table></div>"
        },
        "status": "final",
        "subject": {
          "reference": "urn:uuid:4e82c11a-a989-4dc5-821c-77f678e779b8",
          "display": "Leonhard Köhler"
        },
        "effectiveDateTime": "2023-09-23T02:48:23Z",
        "specimen": {
          "reference": "urn:uuid:c0ba2457-8054-40ab-b388-cd9ee781f1f4"
        }
      }
    },
    {
      "fullUrl": "urn:uuid:37e4baed-27fb-4812-bcf3-ce275ed72d28",
      "resource": {
        "resourceType": "Device",
        "id": "37e4baed-27fb-4812-bcf3-ce275ed72d28",
        "deviceName": [
          {
            "name": "SYNDERAI Synthetic Generator",
            "type": "manufacturer-name"
          }
        ],
        "version": [
          {
            "value": "5.0"
          }
        ],
        "text": {
          "status": "generated",
          "div": "<div xmlns=\"http://www.w3.org/1999/xhtml\">SYNDERAI Synthetic Generator v5.0</div>"
        },
        "status": "active\"",
        "distinctIdentifier": "synderai-generator-50",
        "manufacturer": "SYNDERAI Project"
      }
    },
    {
      "fullUrl": "urn:uuid:928e378c-54e3-499e-a251-6879a26adc6d",
      "resource": {
        "resourceType": "Provenance",
        "id": "928e378c-54e3-499e-a251-6879a26adc6d",
        "target": [
          {
            "reference": "Patient/4e82c11a-a989-4dc5-821c-77f678e779b8"
          },
          {
            "reference": "Bundle/1893e64e-4f0a-4a3c-b23d-e1eeba25ee54"
          },
          {
            "reference": "Composition/ccd96c87-5ae6-404f-926f-a9f5a2dc3b1f"
          },
          {
            "reference": "PractitionerRole/9e0b1e4c-2abb-4bd0-b36f-67542be83fb8"
          },
          {
            "reference": "Practitioner/beed8574-4b43-4980-9138-4ff1f2da9e67"
          },
          {
            "reference": "PractitionerRole/6895b08f-3558-45ce-9588-01a4f1e2839b"
          },
          {
            "reference": "Organization/aad902b8-7051-4f15-b37b-409966735f58"
          }
        ],
        "activity": {
          "text": "Synthetic Example Data Generation"
        },
        "policy": [
          "https://synderai.net/synderai-synthetic-data-policy"
        ],
        "agent": [
          {
            "type": {
              "text": "author"
            },
            "who": {
              "reference": "Device/37e4baed-27fb-4812-bcf3-ce275ed72d28"
            }
          }
        ],
        "reason": [
          {
            "text": "Interoperability Testing and Training (non-clinical use)"
          }
        ],
        "text": {
          "status": "generated",
          "div": "<div xmlns=\"http://www.w3.org/1999/xhtml\">Provenance for SYNDERAI Synthetic Example Data Resource</div>"
        },
        "recorded": "2023-09-23T04:48:23Z"
      }
    },
    {
      "fullUrl": "urn:uuid:9e0b1e4c-2abb-4bd0-b36f-67542be83fb8",
      "resource": {
        "resourceType": "PractitionerRole",
        "id": "9e0b1e4c-2abb-4bd0-b36f-67542be83fb8",
        "meta": {
          "profile": [
            "http://hl7.eu/fhir/base/StructureDefinition/practitionerRole-eu"
          ]
        },
        "text": {
          "status": "generated",
          "div": "<div xmlns=\"http://www.w3.org/1999/xhtml\">Laboratory Role Id: 9e0b1e4c-2abb-4bd0-b36f-67542be83fb8</div>"
        },
        "practitioner": {
          "reference": "urn:uuid:beed8574-4b43-4980-9138-4ff1f2da9e67"
        }
      }
    },
    {
      "fullUrl": "urn:uuid:beed8574-4b43-4980-9138-4ff1f2da9e67",
      "resource": {
        "resourceType": "Practitioner",
        "id": "beed8574-4b43-4980-9138-4ff1f2da9e67",
        "meta": {
          "profile": [
            "http://hl7.eu/fhir/base/StructureDefinition/practitioner-eu"
          ]
        },
        "identifier": [
          {
            "assigner": {
              "display": "HL7 Europe"
            },
            "system": "urn:oid:2.16.840.1.113883.2.51.999",
            "value": "bc78c9d9-a24f-4ee4-966c-c254788f8247"
          }
        ],
        "name": [
          {
            "prefix": [
              "dr"
            ],
            "given": [
              "Ex"
            ],
            "family": "Ample"
          }
        ],
        "address": [
          {
            "line": [
              "Laboratoire Central Européenne",
              "Boulevard du Jardin Botanique 32"
            ],
            "postalCode": "1000",
            "city": "Brussels",
            "country": "Belgium"
          }
        ],
        "text": {
          "status": "generated",
          "div": "<div xmlns=\"http://www.w3.org/1999/xhtml\">Laboratory: Laboratoire Central Européenne, 1000 Brussels, Belgium</div>"
        }
      }
    }
  ],
  "type": "document",
  "timestamp": "2023-09-23T04:48:23Z"
}
