{
  "resourceType": "Bundle",
  "id": "7864ee05-548f-4728-bdc0-c03581b96d77",
  "meta": {
    "profile": [
      "http://hl7.eu/fhir/laboratory/StructureDefinition/Bundle-eu-lab"
    ]
  },
  "identifier": {
    "assigner": {
      "display": "HL7 Europe"
    },
    "system": "urn:oid:2.16.840.1.113883.2.51.999",
    "value": "922bcc6c-8c0c-4a70-b809-c878f72de1e4"
  },
  "entry": [
    {
      "fullUrl": "urn:uuid:10bb7760-6227-4f5c-9605-1f715a882b99",
      "resource": {
        "resourceType": "Composition",
        "id": "10bb7760-6227-4f5c-9605-1f715a882b99",
        "meta": {
          "profile": [
            "http://hl7.eu/fhir/laboratory/StructureDefinition/Composition-eu-lab"
          ]
        },
        "identifier": {
          "assigner": {
            "display": "HL7 Europe"
          },
          "system": "urn:oid:2.16.840.1.113883.2.51.999",
          "value": "e83c3633-16e2-4126-aff7-9a6e82ba32c5"
        },
        "author": [
          {
            "reference": "urn:uuid:1ff02fe2-45be-4d4d-89ad-7d19cc75606f"
          }
        ],
        "category": [
          {
            "coding": [
              {
                "code": "26436-6",
                "system": "http://loinc.org",
                "display": "Laboratory studies (set)"
              }
            ]
          }
        ],
        "type": {
          "coding": [
            {
              "code": "11502-2",
              "system": "http://loinc.org",
              "display": "Laboratory report"
            }
          ],
          "text": "Laboratory Report"
        },
        "section": [
          {
            "code": {
              "coding": [
                {
                  "code": "26436-6",
                  "system": "http://loinc.org",
                  "display": "Laboratory studies (set)"
                }
              ],
              "text": "Laboratory studies"
            },
            "section": [
              {
                "code": {
                  "coding": [
                    {
                      "code": "$18719-5",
                      "system": "http://loinc.org",
                      "display": "Chemistry studies (set)"
                    }
                  ],
                  "text": "Chemistry"
                },
                "entry": [
                  {
                    "reference": "urn:uuid:9cef188f-44a0-405b-b859-3d0239153207"
                  },
                  {
                    "reference": "urn:uuid:33758a46-5f23-4db0-9fc9-8f974f066734"
                  },
                  {
                    "reference": "urn:uuid:fc147681-e29a-4e38-9f01-ec7100f02262"
                  },
                  {
                    "reference": "urn:uuid:a5f760fe-1cc5-47d4-9724-a870a919739e"
                  },
                  {
                    "reference": "urn:uuid:e06320f9-94ca-412b-aac9-84dfdebd2113"
                  },
                  {
                    "reference": "urn:uuid:938f7355-5fad-4562-8cf1-853f965c39a6"
                  },
                  {
                    "reference": "urn:uuid:449de04f-f92d-40aa-954b-2c9367613100"
                  },
                  {
                    "reference": "urn:uuid:58742dbf-1df9-4016-8da1-8f6a62c9a141"
                  },
                  {
                    "reference": "urn:uuid:55241324-8088-4eef-b75d-1be1fb37ba3c"
                  },
                  {
                    "reference": "urn:uuid:f14bb672-38a0-4706-a580-adbc228b4aec"
                  }
                ],
                "text": {
                  "status": "generated",
                  "div": "<div xmlns=\"http://www.w3.org/1999/xhtml\"><h3>Chemistry</h3><table class=\"hl7__eu__lab__report\"><thead><tr><th>Test</th><th>26-APR-2024</th><th>Reference&#xA0;Range</th><th>Unit</th></tr></thead><tbody><tr><td>Glucose [Mass/volume] in Serum or Plasma</td><td>89.3</td><td>70 - 140</td><td>mg/dL</td></tr><tr><td>Urea nitrogen [Mass/volume] in Serum or Plasma</td><td>13.7</td><td>7 - 20</td><td>mg/dL</td></tr><tr><td>Creatinine [Mass/volume] in Serum or Plasma</td><td><strong>2.1 H</strong></td><td>0.9 - 1.3</td><td>mg/dL</td></tr><tr><td>Calcium [Mass/volume] in Serum or Plasma</td><td>9.1</td><td>8.5 - 10.5</td><td>mg/dL</td></tr><tr><td>Sodium [Moles/volume] in Serum or Plasma</td><td>136.3</td><td>135 - 145</td><td>mmol/L</td></tr><tr><td>Potassium [Moles/volume] in Serum or Plasma</td><td>3.9</td><td>3.5 - 5.3</td><td>mmol/L</td></tr><tr><td>Chloride [Moles/volume] in Serum or Plasma</td><td><strong>110.2 H</strong></td><td>98 - 107</td><td>mmol/L</td></tr><tr><td>Carbon dioxide, total [Moles/volume] in Serum or Plasma</td><td>24.3</td><td>22 - 33</td><td>mmol/L</td></tr><tr><td>Ketones [Presence] in Urine by Test strip</td><td>Urine ketone test = ++</td><td></td><td></td></tr><tr><td>Hemoglobin A1c/Hemoglobin.total in Blood</td><td><strong>3.4 L</strong></td><td>4.3 - 6</td><td>%</td></tr></tbody></table></div>"
                },
                "title": "Chemistry"
              },
              {
                "code": {
                  "coding": [
                    {
                      "code": "$18729-4",
                      "system": "http://loinc.org",
                      "display": "Urinalysis studies (set)"
                    }
                  ],
                  "text": "Urinalysis"
                },
                "entry": [
                  {
                    "reference": "urn:uuid:07e767e8-e14a-4f1a-95ef-7f623e135a86"
                  },
                  {
                    "reference": "urn:uuid:67ce29fc-51a2-4c84-b8fa-2f1361365976"
                  },
                  {
                    "reference": "urn:uuid:9f49cecb-addb-4796-b773-be045df645af"
                  },
                  {
                    "reference": "urn:uuid:8f0581f8-4ef7-4e69-ab28-8e750c3cd9a5"
                  },
                  {
                    "reference": "urn:uuid:b5dc4b7f-38e9-4a80-b45a-bd1ddf72dd27"
                  },
                  {
                    "reference": "urn:uuid:7a3de429-f4cf-4ed8-b000-84c765751b14"
                  },
                  {
                    "reference": "urn:uuid:bb11b4f5-bdbb-4121-a5c4-86dc5edb627d"
                  },
                  {
                    "reference": "urn:uuid:7c874fa7-20d1-4f7f-87fd-7a8cc3a034f8"
                  },
                  {
                    "reference": "urn:uuid:9ca07caa-1ba9-4281-b58a-0d055fb828bb"
                  },
                  {
                    "reference": "urn:uuid:58a3f0a9-279d-4445-97b4-edee57fac54c"
                  },
                  {
                    "reference": "urn:uuid:0f9dac96-4250-4d25-a072-9844c949a6d4"
                  },
                  {
                    "reference": "urn:uuid:0c273fd7-6f87-45d4-b893-e74a1548e07a"
                  }
                ],
                "text": {
                  "status": "generated",
                  "div": "<div xmlns=\"http://www.w3.org/1999/xhtml\"><h3>Urinalysis</h3><table class=\"hl7__eu__lab__report\"><thead><tr><th>Test</th><th>26-APR-2024</th><th>Reference&#xA0;Range</th><th>Unit</th></tr></thead><tbody><tr><td>Glucose [Mass/volume] in Urine by Test strip</td><td>0.5</td><td>0 - 0.8</td><td>mg/dL</td></tr><tr><td>Glucose [Presence] in Urine by Test strip</td><td>++</td><td></td><td></td></tr><tr><td>Bilirubin.total [Mass/volume] in Urine by Test strip</td><td>0.9</td><td>0 - 1.9</td><td>mg/dL</td></tr><tr><td>Bilirubin.total [Presence] in Urine by Test strip</td><td>Finding of bilirubin in urine</td><td></td><td></td></tr><tr><td>Ketones [Mass/volume] in Urine by Test strip</td><td><strong>13.6 H</strong></td><td>0 - 3</td><td>mg/dL</td></tr><tr><td>Specific gravity of Urine by Test strip</td><td><strong>1.0 L</strong></td><td>1.01 - 1.03</td><td>{nominal}</td></tr><tr><td>pH of Urine by Test strip</td><td>6.9</td><td>4.5 - 7.5</td><td>pH</td></tr><tr><td>Protein [Mass/volume] in Urine by Test strip</td><td><strong>237.9 H</strong></td><td>0 - 149</td><td>mg/dL</td></tr><tr><td>Protein [Presence] in Urine by Test strip</td><td>Urine protein test = ++</td><td></td><td></td></tr><tr><td>Nitrite [Presence] in Urine by Test strip</td><td>Urine nitrite negative</td><td></td><td></td></tr><tr><td>Hemoglobin [Presence] in Urine by Test strip</td><td>Urine blood test = negative</td><td></td><td></td></tr><tr><td>Leukocyte esterase [Presence] in Urine by Test strip</td><td>Urine leukocyte test negative</td><td></td><td></td></tr></tbody></table></div>"
                },
                "title": "Urinalysis"
              },
              {
                "code": {
                  "coding": [
                    {
                      "code": "$LP7846-1",
                      "system": "http://loinc.org",
                      "display": "Specimen information"
                    }
                  ],
                  "text": "Specimen information"
                },
                "entry": [
                  {
                    "reference": "urn:uuid:b952c6ec-d223-4a6a-b701-0d5edfb995f9"
                  },
                  {
                    "reference": "urn:uuid:140c7f97-2988-4830-bf86-c8d2ee23cbb1"
                  },
                  {
                    "reference": "urn:uuid:ce92c67c-0c89-404f-8e40-1fc1c4fbc374"
                  },
                  {
                    "reference": "urn:uuid:0cd30357-925a-4f84-95aa-5322c0d96957"
                  }
                ],
                "text": {
                  "status": "generated",
                  "div": "<div xmlns=\"http://www.w3.org/1999/xhtml\"><h3>Specimen information</h3><table class=\"hl7__eu__lab__report\"><thead><tr><th>Test</th><th>26-APR-2024</th><th>Specimen</th><th></th></tr></thead><tbody><tr><td>Appearance of Urine</td><td>Cloudy urine</td><td>Urine</td><td></td></tr><tr><td>Odor of Urine</td><td>Urine smell ammoniacal</td><td>Urine</td><td></td></tr><tr><td>Clarity of Urine</td><td>Translucent</td><td>Urine</td><td></td></tr><tr><td>Color of Urine</td><td>Brown color</td><td>Urine</td><td></td></tr></tbody></table></div>"
                },
                "title": "Specimen information"
              }
            ],
            "title": "Laboratory Report"
          },
          {
            "text": {
              "status": "generated",
              "div": "<div xmlns=\"http://www.w3.org/1999/xhtml\"><h3>Annotation</h3><table class=\"hl7__eu__lab__report\"><tr><th>Conclusion and Recommendations based on this report and previous findings known to us</th></tr><tr><td>The patient shows elevated serum creatinine, proteinuria, and low urine specific gravity, suggesting impaired renal function. Urine is cloudy, brown, with ammoniacal odor, and contains glucose and ketones, but no leukocytes or nitrites, making infection less likely. Low HbA1c with normoglycemia may reflect anemia or altered red cell turnover. Recommend further renal evaluation and assessment for possible underlying metabolic or renal pathology.</td></tr></table></div>"
            },
            "code": {
              "coding": [
                {
                  "system": "http://loinc.org",
                  "code": "48767-8",
                  "display": "Annotation comment"
                }
              ]
            },
            "title": "Annotation comment"
          }
        ],
        "status": "final",
        "subject": {
          "reference": "urn:uuid:c17185c4-92ec-4349-8c38-5afdad0cfba4",
          "display": "Victor Lagarde"
        },
        "date": "2024-04-26T06:48:18Z",
        "title": "Laboratory Report",
        "confidentiality": "N"
      }
    },
    {
      "fullUrl": "urn:uuid:96dcf18a-c810-40a5-8c6a-592fc3679ee9",
      "resource": {
        "resourceType": "DiagnosticReport",
        "id": "96dcf18a-c810-40a5-8c6a-592fc3679ee9",
        "meta": {
          "profile": [
            "http://hl7.eu/fhir/laboratory/StructureDefinition/DiagnosticReport-eu-lab"
          ]
        },
        "identifier": [
          {
            "assigner": {
              "display": "HL7 Europe"
            },
            "system": "urn:oid:2.16.840.1.113883.2.51.999",
            "value": "d2609e5b-80a3-4b77-9928-4d416ab89595"
          }
        ],
        "extension": [
          {
            "url": "http://hl7.org/fhir/5.0/StructureDefinition/extension-DiagnosticReport.composition",
            "valueReference": {
              "reference": "urn:uuid:e83c3633-16e2-4126-aff7-9a6e82ba32c5"
            }
          }
        ],
        "category": [
          {
            "coding": [
              {
                "code": "26436-6",
                "system": "http://loinc.org",
                "display": "Laboratory studies (set)"
              }
            ]
          }
        ],
        "specimen": [
          {
            "reference": "urn:uuid:4fdb793d-ad21-46d1-b8f8-e9ace3558b53"
          },
          {
            "reference": "urn:uuid:0a16b811-6145-433f-9d62-9c66d1623508"
          },
          {
            "reference": "urn:uuid:0607358e-4939-4f13-8a24-2b2ad94f82b6"
          }
        ],
        "result": [
          {
            "reference": "urn:uuid:9cef188f-44a0-405b-b859-3d0239153207"
          },
          {
            "reference": "urn:uuid:33758a46-5f23-4db0-9fc9-8f974f066734"
          },
          {
            "reference": "urn:uuid:fc147681-e29a-4e38-9f01-ec7100f02262"
          },
          {
            "reference": "urn:uuid:a5f760fe-1cc5-47d4-9724-a870a919739e"
          },
          {
            "reference": "urn:uuid:e06320f9-94ca-412b-aac9-84dfdebd2113"
          },
          {
            "reference": "urn:uuid:938f7355-5fad-4562-8cf1-853f965c39a6"
          },
          {
            "reference": "urn:uuid:449de04f-f92d-40aa-954b-2c9367613100"
          },
          {
            "reference": "urn:uuid:58742dbf-1df9-4016-8da1-8f6a62c9a141"
          },
          {
            "reference": "urn:uuid:b952c6ec-d223-4a6a-b701-0d5edfb995f9"
          },
          {
            "reference": "urn:uuid:140c7f97-2988-4830-bf86-c8d2ee23cbb1"
          },
          {
            "reference": "urn:uuid:ce92c67c-0c89-404f-8e40-1fc1c4fbc374"
          },
          {
            "reference": "urn:uuid:0cd30357-925a-4f84-95aa-5322c0d96957"
          },
          {
            "reference": "urn:uuid:07e767e8-e14a-4f1a-95ef-7f623e135a86"
          },
          {
            "reference": "urn:uuid:67ce29fc-51a2-4c84-b8fa-2f1361365976"
          },
          {
            "reference": "urn:uuid:9f49cecb-addb-4796-b773-be045df645af"
          },
          {
            "reference": "urn:uuid:8f0581f8-4ef7-4e69-ab28-8e750c3cd9a5"
          },
          {
            "reference": "urn:uuid:b5dc4b7f-38e9-4a80-b45a-bd1ddf72dd27"
          },
          {
            "reference": "urn:uuid:55241324-8088-4eef-b75d-1be1fb37ba3c"
          },
          {
            "reference": "urn:uuid:7a3de429-f4cf-4ed8-b000-84c765751b14"
          },
          {
            "reference": "urn:uuid:bb11b4f5-bdbb-4121-a5c4-86dc5edb627d"
          },
          {
            "reference": "urn:uuid:7c874fa7-20d1-4f7f-87fd-7a8cc3a034f8"
          },
          {
            "reference": "urn:uuid:9ca07caa-1ba9-4281-b58a-0d055fb828bb"
          },
          {
            "reference": "urn:uuid:58a3f0a9-279d-4445-97b4-edee57fac54c"
          },
          {
            "reference": "urn:uuid:0f9dac96-4250-4d25-a072-9844c949a6d4"
          },
          {
            "reference": "urn:uuid:0c273fd7-6f87-45d4-b893-e74a1548e07a"
          },
          {
            "reference": "urn:uuid:f14bb672-38a0-4706-a580-adbc228b4aec"
          }
        ],
        "status": "registered",
        "code": {
          "coding": [
            {
              "code": "11502-2",
              "system": "http://loinc.org",
              "display": "Laboratory report"
            }
          ]
        },
        "subject": {
          "reference": "urn:uuid:c17185c4-92ec-4349-8c38-5afdad0cfba4",
          "display": "Victor Lagarde"
        }
      }
    },
    {
      "fullUrl": "urn:uuid:c17185c4-92ec-4349-8c38-5afdad0cfba4",
      "resource": {
        "resourceType": "Patient",
        "id": "c17185c4-92ec-4349-8c38-5afdad0cfba4",
        "meta": {
          "security": [
            {
              "system": "http://terminology.hl7.org/CodeSystem/v3-ActReason",
              "code": "HTEST"
            },
            {
              "system": "http://terminology.hl7.org/CodeSystem/v3-ActReason",
              "code": "TRAIN"
            }
          ],
          "tag": [
            {
              "system": "https://synderai.net/fhir/CodeSystem/tags",
              "code": "synthetic",
              "display": "SYNDERAI Synthetic data"
            }
          ],
          "profile": [
            "http://hl7.eu/fhir/base/StructureDefinition/patient-eu-core"
          ]
        },
        "identifier": [
          {
            "type": {
              "coding": [
                {
                  "code": "PT",
                  "system": "http://terminology.hl7.org/CodeSystem/v2-0203"
                }
              ]
            },
            "system": "http://ec.europa.eu/identifier/eci",
            "value": "9925-001801-9"
          },
          {
            "type": {
              "coding": [
                {
                  "code": "MR",
                  "system": "http://terminology.hl7.org/CodeSystem/v2-0203"
                }
              ]
            },
            "system": "http://local.setting.eu/identifier",
            "value": "22c2dfd0-ac57-8833-2532-848f180896a4"
          }
        ],
        "name": [
          {
            "family": "Lagarde"
          },
          {
            "given": [
              "Victor"
            ]
          },
          {
            "text": "Victor Lagarde"
          }
        ],
        "address": [
          {
            "line": [
              "avenue Robert"
            ],
            "use": "home",
            "type": "physical",
            "postalCode": "80300",
            "city": "Albert",
            "country": "France"
          }
        ],
        "telecom": [
          {
            "system": "phone",
            "value": "0177941801"
          }
        ],
        "extension": [
          {
            "url": "http://hl7.org/fhir/StructureDefinition/patient-nationality",
            "valueCodeableConcept": {
              "coding": [
                {
                  "code": "FR",
                  "system": "http://hl7.org/fhir/ValueSet/country"
                }
              ]
            }
          }
        ],
        "text": {
          "status": "generated",
          "div": "<div xmlns=\"http://www.w3.org/1999/xhtml\"><table class=\"hl7__ips\"><tr><td>Victor Lagarde</td><td>male</td><td>31-Aug-1939</td></tr></table></div>"
        },
        "gender": "male",
        "birthDate": "1939-08-31"
      }
    },
    {
      "fullUrl": "urn:uuid:f2bec7f1-6e20-452d-935a-52ec5e40dbae",
      "resource": {
        "resourceType": "ServiceRequest",
        "id": "f2bec7f1-6e20-452d-935a-52ec5e40dbae",
        "meta": {
          "profile": [
            "http://hl7.eu/fhir/laboratory/StructureDefinition/ServiceRequest-eu-lab"
          ]
        },
        "identifier": [
          {
            "system": "http://example.org",
            "value": "c6035d57-0bc9-4d42-a077-846cde7c7eaf"
          }
        ],
        "specimen": [
          {
            "reference": "urn:uuid:4fdb793d-ad21-46d1-b8f8-e9ace3558b53"
          },
          {
            "reference": "urn:uuid:0a16b811-6145-433f-9d62-9c66d1623508"
          },
          {
            "reference": "urn:uuid:0607358e-4939-4f13-8a24-2b2ad94f82b6"
          }
        ],
        "reasonCode": [
          {
            "coding": [
              {
                "code": "433144002",
                "system": "http://snomed.info/sct",
                "display": "Chronic kidney disease stage 3"
              }
            ]
          },
          {
            "coding": [
              {
                "code": "157141000119108",
                "system": "http://snomed.info/sct",
                "display": "Proteinuria due to type 2 diabetes mellitus"
              }
            ]
          },
          {
            "coding": [
              {
                "code": "431856006",
                "system": "http://snomed.info/sct",
                "display": "Chronic kidney disease stage 2"
              }
            ]
          },
          {
            "coding": [
              {
                "code": "90781000119102",
                "system": "http://snomed.info/sct",
                "display": "Microalbuminuria due to type 2 diabetes mellitus"
              }
            ]
          },
          {
            "coding": [
              {
                "code": "127013003",
                "system": "http://snomed.info/sct",
                "display": "Disorder of kidney due to diabetes mellitus"
              }
            ]
          },
          {
            "coding": [
              {
                "code": "431855005",
                "system": "http://snomed.info/sct",
                "display": "Chronic kidney disease stage 1"
              }
            ]
          },
          {
            "coding": [
              {
                "code": "55822004",
                "system": "http://snomed.info/sct",
                "display": "Hyperlipidemia"
              }
            ]
          },
          {
            "coding": [
              {
                "code": "59621000",
                "system": "http://snomed.info/sct",
                "display": "Essential hypertension"
              }
            ]
          },
          {
            "coding": [
              {
                "code": "237602007",
                "system": "http://snomed.info/sct",
                "display": "Metabolic syndrome X"
              }
            ]
          },
          {
            "coding": [
              {
                "code": "414545008",
                "system": "http://snomed.info/sct",
                "display": "Ischemic heart disease"
              }
            ]
          },
          {
            "coding": [
              {
                "code": "40055000",
                "system": "http://snomed.info/sct",
                "display": "Chronic sinusitis"
              }
            ]
          },
          {
            "coding": [
              {
                "code": "15777000",
                "system": "http://snomed.info/sct",
                "display": "Prediabetes"
              }
            ]
          },
          {
            "coding": [
              {
                "code": "271737000",
                "system": "http://snomed.info/sct",
                "display": "Anemia"
              }
            ]
          }
        ],
        "status": "active",
        "intent": "order",
        "code": {
          "coding": [
            {
              "code": "108252007",
              "system": "http://snomed.info/sct",
              "display": "Laboratory procedure"
            }
          ]
        },
        "subject": {
          "reference": "urn:uuid:c17185c4-92ec-4349-8c38-5afdad0cfba4",
          "display": "Victor Lagarde"
        },
        "requester": {
          "reference": "urn:uuid:966e6dac-d1d0-4204-9cf6-98b955ab4dbd"
        }
      }
    },
    {
      "fullUrl": "urn:uuid:966e6dac-d1d0-4204-9cf6-98b955ab4dbd",
      "resource": {
        "resourceType": "PractitionerRole",
        "id": "966e6dac-d1d0-4204-9cf6-98b955ab4dbd",
        "meta": {
          "profile": [
            "http://hl7.eu/fhir/base/StructureDefinition/practitionerRole-eu"
          ]
        },
        "text": {
          "status": "generated",
          "div": "<div xmlns=\"http://www.w3.org/1999/xhtml\">Provider Role Id: 966e6dac-d1d0-4204-9cf6-98b955ab4dbd</div>"
        },
        "organization": {
          "reference": "urn:uuid:f35b2edf-2f28-43cf-ada1-35ac44d4242d"
        }
      }
    },
    {
      "fullUrl": "urn:uuid:f35b2edf-2f28-43cf-ada1-35ac44d4242d",
      "resource": {
        "resourceType": "Organization",
        "id": "f35b2edf-2f28-43cf-ada1-35ac44d4242d",
        "meta": {
          "profile": [
            "http://hl7.eu/fhir/base/StructureDefinition/organization-eu"
          ]
        },
        "identifier": [
          {
            "assigner": {
              "display": "HL7 Europe"
            },
            "system": "urn:oid:2.16.840.1.113883.2.51.999",
            "value": "77d30845-a036-4277-b533-82eddfdae56a"
          }
        ],
        "address": [
          {
            "city": "Auxerre",
            "postalCode": "89000",
            "country": "France"
          }
        ],
        "text": {
          "status": "generated",
          "div": "<div xmlns=\"http://www.w3.org/1999/xhtml\">Provider Organization: Thiriot Didier (Cardiologie)</div>"
        },
        "name": "Thiriot Didier (Cardiologie)"
      }
    },
    {
      "fullUrl": "urn:uuid:4fdb793d-ad21-46d1-b8f8-e9ace3558b53",
      "resource": {
        "resourceType": "Specimen",
        "id": "4fdb793d-ad21-46d1-b8f8-e9ace3558b53",
        "meta": {
          "profile": [
            "http://hl7.eu/fhir/laboratory/StructureDefinition/Specimen-eu-lab"
          ]
        },
        "collection": {
          "collectedDateTime": "2024-04-26"
        },
        "text": {
          "status": "generated",
          "div": "<div xmlns=\"http://www.w3.org/1999/xhtml\"><table class=\"hl7__eu__lab__report\"><tr><th>Specimen</th><th>Collection Date</th></tr><tr><td>Acellular blood (serum or plasma) specimen</td><td><span class=\"nb\">26-Apr-2024</span></td></tr></table></div>"
        },
        "type": {
          "coding": [
            {
              "code": "122592007",
              "system": "http://snomed.info/sct",
              "display": "Acellular blood (serum or plasma) specimen"
            }
          ]
        }
      }
    },
    {
      "fullUrl": "urn:uuid:0a16b811-6145-433f-9d62-9c66d1623508",
      "resource": {
        "resourceType": "Specimen",
        "id": "0a16b811-6145-433f-9d62-9c66d1623508",
        "meta": {
          "profile": [
            "http://hl7.eu/fhir/laboratory/StructureDefinition/Specimen-eu-lab"
          ]
        },
        "collection": {
          "collectedDateTime": "2024-04-26"
        },
        "text": {
          "status": "generated",
          "div": "<div xmlns=\"http://www.w3.org/1999/xhtml\"><table class=\"hl7__eu__lab__report\"><tr><th>Specimen</th><th>Collection Date</th></tr><tr><td>Urine specimen</td><td><span class=\"nb\">26-Apr-2024</span></td></tr></table></div>"
        },
        "type": {
          "coding": [
            {
              "code": "122575003",
              "system": "http://snomed.info/sct",
              "display": "Urine specimen"
            }
          ]
        }
      }
    },
    {
      "fullUrl": "urn:uuid:0607358e-4939-4f13-8a24-2b2ad94f82b6",
      "resource": {
        "resourceType": "Specimen",
        "id": "0607358e-4939-4f13-8a24-2b2ad94f82b6",
        "meta": {
          "profile": [
            "http://hl7.eu/fhir/laboratory/StructureDefinition/Specimen-eu-lab"
          ]
        },
        "collection": {
          "collectedDateTime": "2024-04-26"
        },
        "text": {
          "status": "generated",
          "div": "<div xmlns=\"http://www.w3.org/1999/xhtml\"><table class=\"hl7__eu__lab__report\"><tr><th>Specimen</th><th>Collection Date</th></tr><tr><td>Whole blood specimen (specimen)</td><td><span class=\"nb\">26-Apr-2024</span></td></tr></table></div>"
        },
        "type": {
          "coding": [
            {
              "code": "258580003",
              "system": "http://snomed.info/sct",
              "display": "Whole blood specimen (specimen)"
            }
          ]
        }
      }
    },
    {
      "fullUrl": "urn:uuid:9cef188f-44a0-405b-b859-3d0239153207",
      "resource": {
        "resourceType": "Observation",
        "id": "9cef188f-44a0-405b-b859-3d0239153207",
        "meta": {
          "profile": [
            "http://hl7.eu/fhir/laboratory/StructureDefinition/Observation-resultslab-eu-lab"
          ]
        },
        "performer": [
          {
            "display": "The Central European Lab"
          }
        ],
        "category": [
          {
            "coding": [
              {
                "system": "http://terminology.hl7.org/CodeSystem/observation-category",
                "code": "laboratory"
              }
            ]
          }
        ],
        "code": {
          "coding": [
            {
              "code": "2345-7",
              "system": "http://loinc.org",
              "display": "Glucose [Mass/volume] in Serum or Plasma"
            }
          ],
          "text": "Glucose [Mass/volume] in Serum or Plasma"
        },
        "valueQuantity": {
          "system": "http://unitsofmeasure.org",
          "value": 89.3,
          "unit": "mg/dL",
          "code": "mg/dL"
        },
        "referenceRange": [
          {
            "low": {
              "value": 70,
              "code": "mg/dL",
              "system": "http://unitsofmeasure.org"
            }
          },
          {
            "high": {
              "value": 140,
              "code": "mg/dL",
              "system": "http://unitsofmeasure.org"
            }
          }
        ],
        "text": {
          "status": "generated",
          "div": "<div xmlns=\"http://www.w3.org/1999/xhtml\"><table class=\"hl7__eu__lab__report\"><tr><th>Test</th><th>26-Apr-2024</th><th>Reference&#xA0;Range</th><th>Unit</th></tr><tr><td>Glucose [Mass/volume] in Serum or Plasma</td><td>89.3</td><td>70 - 140</td><td></td><td>mg/dL</td></tr></table></div>"
        },
        "status": "final",
        "subject": {
          "reference": "urn:uuid:c17185c4-92ec-4349-8c38-5afdad0cfba4",
          "display": "Victor Lagarde"
        },
        "effectiveDateTime": "2024-04-26T04:48:18Z",
        "specimen": {
          "reference": "urn:uuid:4fdb793d-ad21-46d1-b8f8-e9ace3558b53"
        }
      }
    },
    {
      "fullUrl": "urn:uuid:33758a46-5f23-4db0-9fc9-8f974f066734",
      "resource": {
        "resourceType": "Observation",
        "id": "33758a46-5f23-4db0-9fc9-8f974f066734",
        "meta": {
          "profile": [
            "http://hl7.eu/fhir/laboratory/StructureDefinition/Observation-resultslab-eu-lab"
          ]
        },
        "performer": [
          {
            "display": "The Central European Lab"
          }
        ],
        "category": [
          {
            "coding": [
              {
                "system": "http://terminology.hl7.org/CodeSystem/observation-category",
                "code": "laboratory"
              }
            ]
          }
        ],
        "code": {
          "coding": [
            {
              "code": "3094-0",
              "system": "http://loinc.org",
              "display": "Urea nitrogen [Mass/volume] in Serum or Plasma"
            }
          ],
          "text": "Urea nitrogen [Mass/volume] in Serum or Plasma"
        },
        "valueQuantity": {
          "system": "http://unitsofmeasure.org",
          "value": 13.7,
          "unit": "mg/dL",
          "code": "mg/dL"
        },
        "referenceRange": [
          {
            "low": {
              "value": 7,
              "code": "mg/dL",
              "system": "http://unitsofmeasure.org"
            }
          },
          {
            "high": {
              "value": 20,
              "code": "mg/dL",
              "system": "http://unitsofmeasure.org"
            }
          }
        ],
        "text": {
          "status": "generated",
          "div": "<div xmlns=\"http://www.w3.org/1999/xhtml\"><table class=\"hl7__eu__lab__report\"><tr><th>Test</th><th>26-Apr-2024</th><th>Reference&#xA0;Range</th><th>Unit</th></tr><tr><td>Urea nitrogen [Mass/volume] in Serum or Plasma</td><td>13.7</td><td>7 - 20</td><td></td><td>mg/dL</td></tr></table></div>"
        },
        "status": "final",
        "subject": {
          "reference": "urn:uuid:c17185c4-92ec-4349-8c38-5afdad0cfba4",
          "display": "Victor Lagarde"
        },
        "effectiveDateTime": "2024-04-26T04:48:18Z",
        "specimen": {
          "reference": "urn:uuid:4fdb793d-ad21-46d1-b8f8-e9ace3558b53"
        }
      }
    },
    {
      "fullUrl": "urn:uuid:fc147681-e29a-4e38-9f01-ec7100f02262",
      "resource": {
        "resourceType": "Observation",
        "id": "fc147681-e29a-4e38-9f01-ec7100f02262",
        "meta": {
          "profile": [
            "http://hl7.eu/fhir/laboratory/StructureDefinition/Observation-resultslab-eu-lab"
          ]
        },
        "performer": [
          {
            "display": "The Central European Lab"
          }
        ],
        "category": [
          {
            "coding": [
              {
                "system": "http://terminology.hl7.org/CodeSystem/observation-category",
                "code": "laboratory"
              }
            ]
          }
        ],
        "code": {
          "coding": [
            {
              "code": "2160-0",
              "system": "http://loinc.org",
              "display": "Creatinine [Mass/volume] in Serum or Plasma"
            }
          ],
          "text": "Creatinine [Mass/volume] in Serum or Plasma"
        },
        "valueQuantity": {
          "system": "http://unitsofmeasure.org",
          "value": 2.1,
          "unit": "mg/dL",
          "code": "mg/dL"
        },
        "referenceRange": [
          {
            "low": {
              "value": 0.9,
              "code": "mg/dL",
              "system": "http://unitsofmeasure.org"
            }
          },
          {
            "high": {
              "value": 1.3,
              "code": "mg/dL",
              "system": "http://unitsofmeasure.org"
            }
          }
        ],
        "interpretation": [
          {
            "coding": [
              {
                "code": "H",
                "system": "http://terminology.hl7.org/CodeSystem/v3-ObservationInterpretation",
                "display": "High"
              }
            ]
          }
        ],
        "text": {
          "status": "generated",
          "div": "<div xmlns=\"http://www.w3.org/1999/xhtml\"><table class=\"hl7__eu__lab__report\"><tr><th>Test</th><th>26-Apr-2024</th><th>Reference&#xA0;Range</th><th>Unit</th></tr><tr><td>Creatinine [Mass/volume] in Serum or Plasma</td><td>2.1</td><td>0.9 - 1.3</td><td>H</td><td>mg/dL</td></tr></table></div>"
        },
        "status": "final",
        "subject": {
          "reference": "urn:uuid:c17185c4-92ec-4349-8c38-5afdad0cfba4",
          "display": "Victor Lagarde"
        },
        "effectiveDateTime": "2024-04-26T04:48:18Z",
        "specimen": {
          "reference": "urn:uuid:4fdb793d-ad21-46d1-b8f8-e9ace3558b53"
        }
      }
    },
    {
      "fullUrl": "urn:uuid:a5f760fe-1cc5-47d4-9724-a870a919739e",
      "resource": {
        "resourceType": "Observation",
        "id": "a5f760fe-1cc5-47d4-9724-a870a919739e",
        "meta": {
          "profile": [
            "http://hl7.eu/fhir/laboratory/StructureDefinition/Observation-resultslab-eu-lab"
          ]
        },
        "performer": [
          {
            "display": "The Central European Lab"
          }
        ],
        "category": [
          {
            "coding": [
              {
                "system": "http://terminology.hl7.org/CodeSystem/observation-category",
                "code": "laboratory"
              }
            ]
          }
        ],
        "code": {
          "coding": [
            {
              "code": "17861-6",
              "system": "http://loinc.org",
              "display": "Calcium [Mass/volume] in Serum or Plasma"
            }
          ],
          "text": "Calcium [Mass/volume] in Serum or Plasma"
        },
        "valueQuantity": {
          "system": "http://unitsofmeasure.org",
          "value": 9.1,
          "unit": "mg/dL",
          "code": "mg/dL"
        },
        "referenceRange": [
          {
            "low": {
              "value": 8.5,
              "code": "mg/dL",
              "system": "http://unitsofmeasure.org"
            }
          },
          {
            "high": {
              "value": 10.5,
              "code": "mg/dL",
              "system": "http://unitsofmeasure.org"
            }
          }
        ],
        "text": {
          "status": "generated",
          "div": "<div xmlns=\"http://www.w3.org/1999/xhtml\"><table class=\"hl7__eu__lab__report\"><tr><th>Test</th><th>26-Apr-2024</th><th>Reference&#xA0;Range</th><th>Unit</th></tr><tr><td>Calcium [Mass/volume] in Serum or Plasma</td><td>9.1</td><td>8.5 - 10.5</td><td></td><td>mg/dL</td></tr></table></div>"
        },
        "status": "final",
        "subject": {
          "reference": "urn:uuid:c17185c4-92ec-4349-8c38-5afdad0cfba4",
          "display": "Victor Lagarde"
        },
        "effectiveDateTime": "2024-04-26T04:48:18Z",
        "specimen": {
          "reference": "urn:uuid:4fdb793d-ad21-46d1-b8f8-e9ace3558b53"
        }
      }
    },
    {
      "fullUrl": "urn:uuid:e06320f9-94ca-412b-aac9-84dfdebd2113",
      "resource": {
        "resourceType": "Observation",
        "id": "e06320f9-94ca-412b-aac9-84dfdebd2113",
        "meta": {
          "profile": [
            "http://hl7.eu/fhir/laboratory/StructureDefinition/Observation-resultslab-eu-lab"
          ]
        },
        "performer": [
          {
            "display": "The Central European Lab"
          }
        ],
        "category": [
          {
            "coding": [
              {
                "system": "http://terminology.hl7.org/CodeSystem/observation-category",
                "code": "laboratory"
              }
            ]
          }
        ],
        "code": {
          "coding": [
            {
              "code": "2951-2",
              "system": "http://loinc.org",
              "display": "Sodium [Moles/volume] in Serum or Plasma"
            }
          ],
          "text": "Sodium [Moles/volume] in Serum or Plasma"
        },
        "valueQuantity": {
          "system": "http://unitsofmeasure.org",
          "value": 136.3,
          "unit": "mmol/L",
          "code": "mmol/L"
        },
        "referenceRange": [
          {
            "low": {
              "value": 135,
              "code": "mmol/L",
              "system": "http://unitsofmeasure.org"
            }
          },
          {
            "high": {
              "value": 145,
              "code": "mmol/L",
              "system": "http://unitsofmeasure.org"
            }
          }
        ],
        "text": {
          "status": "generated",
          "div": "<div xmlns=\"http://www.w3.org/1999/xhtml\"><table class=\"hl7__eu__lab__report\"><tr><th>Test</th><th>26-Apr-2024</th><th>Reference&#xA0;Range</th><th>Unit</th></tr><tr><td>Sodium [Moles/volume] in Serum or Plasma</td><td>136.3</td><td>135 - 145</td><td></td><td>mmol/L</td></tr></table></div>"
        },
        "status": "final",
        "subject": {
          "reference": "urn:uuid:c17185c4-92ec-4349-8c38-5afdad0cfba4",
          "display": "Victor Lagarde"
        },
        "effectiveDateTime": "2024-04-26T04:48:18Z",
        "specimen": {
          "reference": "urn:uuid:4fdb793d-ad21-46d1-b8f8-e9ace3558b53"
        }
      }
    },
    {
      "fullUrl": "urn:uuid:938f7355-5fad-4562-8cf1-853f965c39a6",
      "resource": {
        "resourceType": "Observation",
        "id": "938f7355-5fad-4562-8cf1-853f965c39a6",
        "meta": {
          "profile": [
            "http://hl7.eu/fhir/laboratory/StructureDefinition/Observation-resultslab-eu-lab"
          ]
        },
        "performer": [
          {
            "display": "The Central European Lab"
          }
        ],
        "category": [
          {
            "coding": [
              {
                "system": "http://terminology.hl7.org/CodeSystem/observation-category",
                "code": "laboratory"
              }
            ]
          }
        ],
        "code": {
          "coding": [
            {
              "code": "2823-3",
              "system": "http://loinc.org",
              "display": "Potassium [Moles/volume] in Serum or Plasma"
            }
          ],
          "text": "Potassium [Moles/volume] in Serum or Plasma"
        },
        "valueQuantity": {
          "system": "http://unitsofmeasure.org",
          "value": 3.9,
          "unit": "mmol/L",
          "code": "mmol/L"
        },
        "referenceRange": [
          {
            "low": {
              "value": 3.5,
              "code": "mmol/L",
              "system": "http://unitsofmeasure.org"
            }
          },
          {
            "high": {
              "value": 5.3,
              "code": "mmol/L",
              "system": "http://unitsofmeasure.org"
            }
          }
        ],
        "text": {
          "status": "generated",
          "div": "<div xmlns=\"http://www.w3.org/1999/xhtml\"><table class=\"hl7__eu__lab__report\"><tr><th>Test</th><th>26-Apr-2024</th><th>Reference&#xA0;Range</th><th>Unit</th></tr><tr><td>Potassium [Moles/volume] in Serum or Plasma</td><td>3.9</td><td>3.5 - 5.3</td><td></td><td>mmol/L</td></tr></table></div>"
        },
        "status": "final",
        "subject": {
          "reference": "urn:uuid:c17185c4-92ec-4349-8c38-5afdad0cfba4",
          "display": "Victor Lagarde"
        },
        "effectiveDateTime": "2024-04-26T04:48:18Z",
        "specimen": {
          "reference": "urn:uuid:4fdb793d-ad21-46d1-b8f8-e9ace3558b53"
        }
      }
    },
    {
      "fullUrl": "urn:uuid:449de04f-f92d-40aa-954b-2c9367613100",
      "resource": {
        "resourceType": "Observation",
        "id": "449de04f-f92d-40aa-954b-2c9367613100",
        "meta": {
          "profile": [
            "http://hl7.eu/fhir/laboratory/StructureDefinition/Observation-resultslab-eu-lab"
          ]
        },
        "performer": [
          {
            "display": "The Central European Lab"
          }
        ],
        "category": [
          {
            "coding": [
              {
                "system": "http://terminology.hl7.org/CodeSystem/observation-category",
                "code": "laboratory"
              }
            ]
          }
        ],
        "code": {
          "coding": [
            {
              "code": "2075-0",
              "system": "http://loinc.org",
              "display": "Chloride [Moles/volume] in Serum or Plasma"
            }
          ],
          "text": "Chloride [Moles/volume] in Serum or Plasma"
        },
        "valueQuantity": {
          "system": "http://unitsofmeasure.org",
          "value": 110.2,
          "unit": "mmol/L",
          "code": "mmol/L"
        },
        "referenceRange": [
          {
            "low": {
              "value": 98,
              "code": "mmol/L",
              "system": "http://unitsofmeasure.org"
            }
          },
          {
            "high": {
              "value": 107,
              "code": "mmol/L",
              "system": "http://unitsofmeasure.org"
            }
          }
        ],
        "interpretation": [
          {
            "coding": [
              {
                "code": "H",
                "system": "http://terminology.hl7.org/CodeSystem/v3-ObservationInterpretation",
                "display": "High"
              }
            ]
          }
        ],
        "text": {
          "status": "generated",
          "div": "<div xmlns=\"http://www.w3.org/1999/xhtml\"><table class=\"hl7__eu__lab__report\"><tr><th>Test</th><th>26-Apr-2024</th><th>Reference&#xA0;Range</th><th>Unit</th></tr><tr><td>Chloride [Moles/volume] in Serum or Plasma</td><td>110.2</td><td>98 - 107</td><td>H</td><td>mmol/L</td></tr></table></div>"
        },
        "status": "final",
        "subject": {
          "reference": "urn:uuid:c17185c4-92ec-4349-8c38-5afdad0cfba4",
          "display": "Victor Lagarde"
        },
        "effectiveDateTime": "2024-04-26T04:48:18Z",
        "specimen": {
          "reference": "urn:uuid:4fdb793d-ad21-46d1-b8f8-e9ace3558b53"
        }
      }
    },
    {
      "fullUrl": "urn:uuid:58742dbf-1df9-4016-8da1-8f6a62c9a141",
      "resource": {
        "resourceType": "Observation",
        "id": "58742dbf-1df9-4016-8da1-8f6a62c9a141",
        "meta": {
          "profile": [
            "http://hl7.eu/fhir/laboratory/StructureDefinition/Observation-resultslab-eu-lab"
          ]
        },
        "performer": [
          {
            "display": "The Central European Lab"
          }
        ],
        "category": [
          {
            "coding": [
              {
                "system": "http://terminology.hl7.org/CodeSystem/observation-category",
                "code": "laboratory"
              }
            ]
          }
        ],
        "code": {
          "coding": [
            {
              "code": "2028-9",
              "system": "http://loinc.org",
              "display": "Carbon dioxide, total [Moles/volume] in Serum or Plasma"
            }
          ],
          "text": "Carbon dioxide, total [Moles/volume] in Serum or Plasma"
        },
        "valueQuantity": {
          "system": "http://unitsofmeasure.org",
          "value": 24.3,
          "unit": "mmol/L",
          "code": "mmol/L"
        },
        "referenceRange": [
          {
            "low": {
              "value": 22,
              "code": "mmol/L",
              "system": "http://unitsofmeasure.org"
            }
          },
          {
            "high": {
              "value": 33,
              "code": "mmol/L",
              "system": "http://unitsofmeasure.org"
            }
          }
        ],
        "text": {
          "status": "generated",
          "div": "<div xmlns=\"http://www.w3.org/1999/xhtml\"><table class=\"hl7__eu__lab__report\"><tr><th>Test</th><th>26-Apr-2024</th><th>Reference&#xA0;Range</th><th>Unit</th></tr><tr><td>Carbon dioxide, total [Moles/volume] in Serum or Plasma</td><td>24.3</td><td>22 - 33</td><td></td><td>mmol/L</td></tr></table></div>"
        },
        "status": "final",
        "subject": {
          "reference": "urn:uuid:c17185c4-92ec-4349-8c38-5afdad0cfba4",
          "display": "Victor Lagarde"
        },
        "effectiveDateTime": "2024-04-26T04:48:18Z",
        "specimen": {
          "reference": "urn:uuid:4fdb793d-ad21-46d1-b8f8-e9ace3558b53"
        }
      }
    },
    {
      "fullUrl": "urn:uuid:b952c6ec-d223-4a6a-b701-0d5edfb995f9",
      "resource": {
        "resourceType": "Observation",
        "id": "b952c6ec-d223-4a6a-b701-0d5edfb995f9",
        "meta": {
          "profile": [
            "http://hl7.eu/fhir/laboratory/StructureDefinition/Observation-resultslab-eu-lab"
          ]
        },
        "performer": [
          {
            "display": "The Central European Lab"
          }
        ],
        "category": [
          {
            "coding": [
              {
                "system": "http://terminology.hl7.org/CodeSystem/observation-category",
                "code": "laboratory"
              }
            ]
          }
        ],
        "code": {
          "coding": [
            {
              "code": "5767-9",
              "system": "http://loinc.org",
              "display": "Appearance of Urine"
            }
          ],
          "text": "Appearance of Urine"
        },
        "text": {
          "status": "generated",
          "div": "<div xmlns=\"http://www.w3.org/1999/xhtml\"><table class=\"hl7__eu__lab__report\"><tr><th>Test</th><th>26-Apr-2024</th><th>Reference&#xA0;Range</th><th>Unit</th></tr><tr><td>Appearance of Urine</td></tr></table></div>"
        },
        "status": "final",
        "subject": {
          "reference": "urn:uuid:c17185c4-92ec-4349-8c38-5afdad0cfba4",
          "display": "Victor Lagarde"
        },
        "effectiveDateTime": "2024-04-26T04:48:18Z",
        "specimen": {
          "reference": "urn:uuid:0a16b811-6145-433f-9d62-9c66d1623508"
        }
      }
    },
    {
      "fullUrl": "urn:uuid:140c7f97-2988-4830-bf86-c8d2ee23cbb1",
      "resource": {
        "resourceType": "Observation",
        "id": "140c7f97-2988-4830-bf86-c8d2ee23cbb1",
        "meta": {
          "profile": [
            "http://hl7.eu/fhir/laboratory/StructureDefinition/Observation-resultslab-eu-lab"
          ]
        },
        "performer": [
          {
            "display": "The Central European Lab"
          }
        ],
        "category": [
          {
            "coding": [
              {
                "system": "http://terminology.hl7.org/CodeSystem/observation-category",
                "code": "laboratory"
              }
            ]
          }
        ],
        "code": {
          "coding": [
            {
              "code": "34533-0",
              "system": "http://loinc.org",
              "display": "Odor of Urine"
            }
          ],
          "text": "Odor of Urine"
        },
        "text": {
          "status": "generated",
          "div": "<div xmlns=\"http://www.w3.org/1999/xhtml\"><table class=\"hl7__eu__lab__report\"><tr><th>Test</th><th>26-Apr-2024</th><th>Reference&#xA0;Range</th><th>Unit</th></tr><tr><td>Odor of Urine</td></tr></table></div>"
        },
        "status": "final",
        "subject": {
          "reference": "urn:uuid:c17185c4-92ec-4349-8c38-5afdad0cfba4",
          "display": "Victor Lagarde"
        },
        "effectiveDateTime": "2024-04-26T04:48:18Z",
        "specimen": {
          "reference": "urn:uuid:0a16b811-6145-433f-9d62-9c66d1623508"
        }
      }
    },
    {
      "fullUrl": "urn:uuid:ce92c67c-0c89-404f-8e40-1fc1c4fbc374",
      "resource": {
        "resourceType": "Observation",
        "id": "ce92c67c-0c89-404f-8e40-1fc1c4fbc374",
        "meta": {
          "profile": [
            "http://hl7.eu/fhir/laboratory/StructureDefinition/Observation-resultslab-eu-lab"
          ]
        },
        "performer": [
          {
            "display": "The Central European Lab"
          }
        ],
        "category": [
          {
            "coding": [
              {
                "system": "http://terminology.hl7.org/CodeSystem/observation-category",
                "code": "laboratory"
              }
            ]
          }
        ],
        "code": {
          "coding": [
            {
              "code": "32167-9",
              "system": "http://loinc.org",
              "display": "Clarity of Urine"
            }
          ],
          "text": "Clarity of Urine"
        },
        "text": {
          "status": "generated",
          "div": "<div xmlns=\"http://www.w3.org/1999/xhtml\"><table class=\"hl7__eu__lab__report\"><tr><th>Test</th><th>26-Apr-2024</th><th>Reference&#xA0;Range</th><th>Unit</th></tr><tr><td>Clarity of Urine</td></tr></table></div>"
        },
        "status": "final",
        "subject": {
          "reference": "urn:uuid:c17185c4-92ec-4349-8c38-5afdad0cfba4",
          "display": "Victor Lagarde"
        },
        "effectiveDateTime": "2024-04-26T04:48:18Z",
        "specimen": {
          "reference": "urn:uuid:0a16b811-6145-433f-9d62-9c66d1623508"
        }
      }
    },
    {
      "fullUrl": "urn:uuid:0cd30357-925a-4f84-95aa-5322c0d96957",
      "resource": {
        "resourceType": "Observation",
        "id": "0cd30357-925a-4f84-95aa-5322c0d96957",
        "meta": {
          "profile": [
            "http://hl7.eu/fhir/laboratory/StructureDefinition/Observation-resultslab-eu-lab"
          ]
        },
        "performer": [
          {
            "display": "The Central European Lab"
          }
        ],
        "category": [
          {
            "coding": [
              {
                "system": "http://terminology.hl7.org/CodeSystem/observation-category",
                "code": "laboratory"
              }
            ]
          }
        ],
        "code": {
          "coding": [
            {
              "code": "5778-6",
              "system": "http://loinc.org",
              "display": "Color of Urine"
            }
          ],
          "text": "Color of Urine"
        },
        "text": {
          "status": "generated",
          "div": "<div xmlns=\"http://www.w3.org/1999/xhtml\"><table class=\"hl7__eu__lab__report\"><tr><th>Test</th><th>26-Apr-2024</th><th>Reference&#xA0;Range</th><th>Unit</th></tr><tr><td>Color of Urine</td></tr></table></div>"
        },
        "status": "final",
        "subject": {
          "reference": "urn:uuid:c17185c4-92ec-4349-8c38-5afdad0cfba4",
          "display": "Victor Lagarde"
        },
        "effectiveDateTime": "2024-04-26T04:48:18Z",
        "specimen": {
          "reference": "urn:uuid:0a16b811-6145-433f-9d62-9c66d1623508"
        }
      }
    },
    {
      "fullUrl": "urn:uuid:07e767e8-e14a-4f1a-95ef-7f623e135a86",
      "resource": {
        "resourceType": "Observation",
        "id": "07e767e8-e14a-4f1a-95ef-7f623e135a86",
        "meta": {
          "profile": [
            "http://hl7.eu/fhir/laboratory/StructureDefinition/Observation-resultslab-eu-lab"
          ]
        },
        "performer": [
          {
            "display": "The Central European Lab"
          }
        ],
        "category": [
          {
            "coding": [
              {
                "system": "http://terminology.hl7.org/CodeSystem/observation-category",
                "code": "laboratory"
              }
            ]
          }
        ],
        "code": {
          "coding": [
            {
              "code": "5792-7",
              "system": "http://loinc.org",
              "display": "Glucose [Mass/volume] in Urine by Test strip"
            }
          ],
          "text": "Glucose [Mass/volume] in Urine by Test strip"
        },
        "valueQuantity": {
          "system": "http://unitsofmeasure.org",
          "value": 0.5,
          "unit": "mg/dL",
          "code": "mg/dL"
        },
        "referenceRange": [
          {
            "low": {
              "value": 0,
              "code": "mg/dL",
              "system": "http://unitsofmeasure.org"
            }
          },
          {
            "high": {
              "value": 0.8,
              "code": "mg/dL",
              "system": "http://unitsofmeasure.org"
            }
          }
        ],
        "text": {
          "status": "generated",
          "div": "<div xmlns=\"http://www.w3.org/1999/xhtml\"><table class=\"hl7__eu__lab__report\"><tr><th>Test</th><th>26-Apr-2024</th><th>Reference&#xA0;Range</th><th>Unit</th></tr><tr><td>Glucose [Mass/volume] in Urine by Test strip</td><td>0.5</td><td>0 - 0.8</td><td></td><td>mg/dL</td></tr></table></div>"
        },
        "status": "final",
        "subject": {
          "reference": "urn:uuid:c17185c4-92ec-4349-8c38-5afdad0cfba4",
          "display": "Victor Lagarde"
        },
        "effectiveDateTime": "2024-04-26T04:48:18Z",
        "specimen": {
          "reference": "urn:uuid:0a16b811-6145-433f-9d62-9c66d1623508"
        }
      }
    },
    {
      "fullUrl": "urn:uuid:67ce29fc-51a2-4c84-b8fa-2f1361365976",
      "resource": {
        "resourceType": "Observation",
        "id": "67ce29fc-51a2-4c84-b8fa-2f1361365976",
        "meta": {
          "profile": [
            "http://hl7.eu/fhir/laboratory/StructureDefinition/Observation-resultslab-eu-lab"
          ]
        },
        "performer": [
          {
            "display": "The Central European Lab"
          }
        ],
        "category": [
          {
            "coding": [
              {
                "system": "http://terminology.hl7.org/CodeSystem/observation-category",
                "code": "laboratory"
              }
            ]
          }
        ],
        "code": {
          "coding": [
            {
              "code": "25428-4",
              "system": "http://loinc.org",
              "display": "Glucose [Presence] in Urine by Test strip"
            }
          ],
          "text": "Glucose [Presence] in Urine by Test strip"
        },
        "text": {
          "status": "generated",
          "div": "<div xmlns=\"http://www.w3.org/1999/xhtml\"><table class=\"hl7__eu__lab__report\"><tr><th>Test</th><th>26-Apr-2024</th><th>Reference&#xA0;Range</th><th>Unit</th></tr><tr><td>Glucose [Presence] in Urine by Test strip</td></tr></table></div>"
        },
        "status": "final",
        "subject": {
          "reference": "urn:uuid:c17185c4-92ec-4349-8c38-5afdad0cfba4",
          "display": "Victor Lagarde"
        },
        "effectiveDateTime": "2024-04-26T04:48:18Z",
        "specimen": {
          "reference": "urn:uuid:0a16b811-6145-433f-9d62-9c66d1623508"
        }
      }
    },
    {
      "fullUrl": "urn:uuid:9f49cecb-addb-4796-b773-be045df645af",
      "resource": {
        "resourceType": "Observation",
        "id": "9f49cecb-addb-4796-b773-be045df645af",
        "meta": {
          "profile": [
            "http://hl7.eu/fhir/laboratory/StructureDefinition/Observation-resultslab-eu-lab"
          ]
        },
        "performer": [
          {
            "display": "The Central European Lab"
          }
        ],
        "category": [
          {
            "coding": [
              {
                "system": "http://terminology.hl7.org/CodeSystem/observation-category",
                "code": "laboratory"
              }
            ]
          }
        ],
        "code": {
          "coding": [
            {
              "code": "20505-4",
              "system": "http://loinc.org",
              "display": "Bilirubin.total [Mass/volume] in Urine by Test strip"
            }
          ],
          "text": "Bilirubin.total [Mass/volume] in Urine by Test strip"
        },
        "valueQuantity": {
          "system": "http://unitsofmeasure.org",
          "value": 0.9,
          "unit": "mg/dL",
          "code": "mg/dL"
        },
        "referenceRange": [
          {
            "low": {
              "value": 0,
              "code": "mg/dL",
              "system": "http://unitsofmeasure.org"
            }
          },
          {
            "high": {
              "value": 1.9,
              "code": "mg/dL",
              "system": "http://unitsofmeasure.org"
            }
          }
        ],
        "text": {
          "status": "generated",
          "div": "<div xmlns=\"http://www.w3.org/1999/xhtml\"><table class=\"hl7__eu__lab__report\"><tr><th>Test</th><th>26-Apr-2024</th><th>Reference&#xA0;Range</th><th>Unit</th></tr><tr><td>Bilirubin.total [Mass/volume] in Urine by Test strip</td><td>0.9</td><td>0 - 1.9</td><td></td><td>mg/dL</td></tr></table></div>"
        },
        "status": "final",
        "subject": {
          "reference": "urn:uuid:c17185c4-92ec-4349-8c38-5afdad0cfba4",
          "display": "Victor Lagarde"
        },
        "effectiveDateTime": "2024-04-26T04:48:18Z",
        "specimen": {
          "reference": "urn:uuid:0a16b811-6145-433f-9d62-9c66d1623508"
        }
      }
    },
    {
      "fullUrl": "urn:uuid:8f0581f8-4ef7-4e69-ab28-8e750c3cd9a5",
      "resource": {
        "resourceType": "Observation",
        "id": "8f0581f8-4ef7-4e69-ab28-8e750c3cd9a5",
        "meta": {
          "profile": [
            "http://hl7.eu/fhir/laboratory/StructureDefinition/Observation-resultslab-eu-lab"
          ]
        },
        "performer": [
          {
            "display": "The Central European Lab"
          }
        ],
        "category": [
          {
            "coding": [
              {
                "system": "http://terminology.hl7.org/CodeSystem/observation-category",
                "code": "laboratory"
              }
            ]
          }
        ],
        "code": {
          "coding": [
            {
              "code": "5770-3",
              "system": "http://loinc.org",
              "display": "Bilirubin.total [Presence] in Urine by Test strip"
            }
          ],
          "text": "Bilirubin.total [Presence] in Urine by Test strip"
        },
        "text": {
          "status": "generated",
          "div": "<div xmlns=\"http://www.w3.org/1999/xhtml\"><table class=\"hl7__eu__lab__report\"><tr><th>Test</th><th>26-Apr-2024</th><th>Reference&#xA0;Range</th><th>Unit</th></tr><tr><td>Bilirubin.total [Presence] in Urine by Test strip</td></tr></table></div>"
        },
        "status": "final",
        "subject": {
          "reference": "urn:uuid:c17185c4-92ec-4349-8c38-5afdad0cfba4",
          "display": "Victor Lagarde"
        },
        "effectiveDateTime": "2024-04-26T04:48:18Z",
        "specimen": {
          "reference": "urn:uuid:0a16b811-6145-433f-9d62-9c66d1623508"
        }
      }
    },
    {
      "fullUrl": "urn:uuid:b5dc4b7f-38e9-4a80-b45a-bd1ddf72dd27",
      "resource": {
        "resourceType": "Observation",
        "id": "b5dc4b7f-38e9-4a80-b45a-bd1ddf72dd27",
        "meta": {
          "profile": [
            "http://hl7.eu/fhir/laboratory/StructureDefinition/Observation-resultslab-eu-lab"
          ]
        },
        "performer": [
          {
            "display": "The Central European Lab"
          }
        ],
        "category": [
          {
            "coding": [
              {
                "system": "http://terminology.hl7.org/CodeSystem/observation-category",
                "code": "laboratory"
              }
            ]
          }
        ],
        "code": {
          "coding": [
            {
              "code": "5797-6",
              "system": "http://loinc.org",
              "display": "Ketones [Mass/volume] in Urine by Test strip"
            }
          ],
          "text": "Ketones [Mass/volume] in Urine by Test strip"
        },
        "valueQuantity": {
          "system": "http://unitsofmeasure.org",
          "value": 13.6,
          "unit": "mg/dL",
          "code": "mg/dL"
        },
        "referenceRange": [
          {
            "low": {
              "value": 0,
              "code": "mg/dL",
              "system": "http://unitsofmeasure.org"
            }
          },
          {
            "high": {
              "value": 3,
              "code": "mg/dL",
              "system": "http://unitsofmeasure.org"
            }
          }
        ],
        "interpretation": [
          {
            "coding": [
              {
                "code": "H",
                "system": "http://terminology.hl7.org/CodeSystem/v3-ObservationInterpretation",
                "display": "High"
              }
            ]
          }
        ],
        "text": {
          "status": "generated",
          "div": "<div xmlns=\"http://www.w3.org/1999/xhtml\"><table class=\"hl7__eu__lab__report\"><tr><th>Test</th><th>26-Apr-2024</th><th>Reference&#xA0;Range</th><th>Unit</th></tr><tr><td>Ketones [Mass/volume] in Urine by Test strip</td><td>13.6</td><td>0 - 3</td><td>H</td><td>mg/dL</td></tr></table></div>"
        },
        "status": "final",
        "subject": {
          "reference": "urn:uuid:c17185c4-92ec-4349-8c38-5afdad0cfba4",
          "display": "Victor Lagarde"
        },
        "effectiveDateTime": "2024-04-26T04:48:18Z",
        "specimen": {
          "reference": "urn:uuid:0a16b811-6145-433f-9d62-9c66d1623508"
        }
      }
    },
    {
      "fullUrl": "urn:uuid:55241324-8088-4eef-b75d-1be1fb37ba3c",
      "resource": {
        "resourceType": "Observation",
        "id": "55241324-8088-4eef-b75d-1be1fb37ba3c",
        "meta": {
          "profile": [
            "http://hl7.eu/fhir/laboratory/StructureDefinition/Observation-resultslab-eu-lab"
          ]
        },
        "performer": [
          {
            "display": "The Central European Lab"
          }
        ],
        "category": [
          {
            "coding": [
              {
                "system": "http://terminology.hl7.org/CodeSystem/observation-category",
                "code": "laboratory"
              }
            ]
          }
        ],
        "code": {
          "coding": [
            {
              "code": "2514-8",
              "system": "http://loinc.org",
              "display": "Ketones [Presence] in Urine by Test strip"
            }
          ],
          "text": "Ketones [Presence] in Urine by Test strip"
        },
        "text": {
          "status": "generated",
          "div": "<div xmlns=\"http://www.w3.org/1999/xhtml\"><table class=\"hl7__eu__lab__report\"><tr><th>Test</th><th>26-Apr-2024</th><th>Reference&#xA0;Range</th><th>Unit</th></tr><tr><td>Ketones [Presence] in Urine by Test strip</td></tr></table></div>"
        },
        "status": "final",
        "subject": {
          "reference": "urn:uuid:c17185c4-92ec-4349-8c38-5afdad0cfba4",
          "display": "Victor Lagarde"
        },
        "effectiveDateTime": "2024-04-26T04:48:18Z",
        "specimen": {
          "reference": "urn:uuid:0a16b811-6145-433f-9d62-9c66d1623508"
        }
      }
    },
    {
      "fullUrl": "urn:uuid:7a3de429-f4cf-4ed8-b000-84c765751b14",
      "resource": {
        "resourceType": "Observation",
        "id": "7a3de429-f4cf-4ed8-b000-84c765751b14",
        "meta": {
          "profile": [
            "http://hl7.eu/fhir/laboratory/StructureDefinition/Observation-resultslab-eu-lab"
          ]
        },
        "performer": [
          {
            "display": "The Central European Lab"
          }
        ],
        "category": [
          {
            "coding": [
              {
                "system": "http://terminology.hl7.org/CodeSystem/observation-category",
                "code": "laboratory"
              }
            ]
          }
        ],
        "code": {
          "coding": [
            {
              "code": "5811-5",
              "system": "http://loinc.org",
              "display": "Specific gravity of Urine by Test strip"
            }
          ],
          "text": "Specific gravity of Urine by Test strip"
        },
        "valueQuantity": {
          "system": "http://unitsofmeasure.org",
          "value": 1,
          "unit": "{nominal}",
          "code": "{nominal}"
        },
        "referenceRange": [
          {
            "low": {
              "value": 1.01,
              "code": "g/mL",
              "system": "http://unitsofmeasure.org"
            }
          },
          {
            "high": {
              "value": 1.03,
              "code": "g/mL",
              "system": "http://unitsofmeasure.org"
            }
          }
        ],
        "interpretation": [
          {
            "coding": [
              {
                "code": "L",
                "system": "http://terminology.hl7.org/CodeSystem/v3-ObservationInterpretation",
                "display": "Low"
              }
            ]
          }
        ],
        "text": {
          "status": "generated",
          "div": "<div xmlns=\"http://www.w3.org/1999/xhtml\"><table class=\"hl7__eu__lab__report\"><tr><th>Test</th><th>26-Apr-2024</th><th>Reference&#xA0;Range</th><th>Unit</th></tr><tr><td>Specific gravity of Urine by Test strip</td><td>1.0</td><td>1.01 - 1.03</td><td>L</td><td>{nominal}</td></tr></table></div>"
        },
        "status": "final",
        "subject": {
          "reference": "urn:uuid:c17185c4-92ec-4349-8c38-5afdad0cfba4",
          "display": "Victor Lagarde"
        },
        "effectiveDateTime": "2024-04-26T04:48:18Z",
        "specimen": {
          "reference": "urn:uuid:0a16b811-6145-433f-9d62-9c66d1623508"
        }
      }
    },
    {
      "fullUrl": "urn:uuid:bb11b4f5-bdbb-4121-a5c4-86dc5edb627d",
      "resource": {
        "resourceType": "Observation",
        "id": "bb11b4f5-bdbb-4121-a5c4-86dc5edb627d",
        "meta": {
          "profile": [
            "http://hl7.eu/fhir/laboratory/StructureDefinition/Observation-resultslab-eu-lab"
          ]
        },
        "performer": [
          {
            "display": "The Central European Lab"
          }
        ],
        "category": [
          {
            "coding": [
              {
                "system": "http://terminology.hl7.org/CodeSystem/observation-category",
                "code": "laboratory"
              }
            ]
          }
        ],
        "code": {
          "coding": [
            {
              "code": "5803-2",
              "system": "http://loinc.org",
              "display": "pH of Urine by Test strip"
            }
          ],
          "text": "pH of Urine by Test strip"
        },
        "valueQuantity": {
          "system": "http://unitsofmeasure.org",
          "value": 6.9,
          "unit": "pH",
          "code": "pH"
        },
        "referenceRange": [
          {
            "low": {
              "value": 4.5,
              "code": "pH",
              "system": "http://unitsofmeasure.org"
            }
          },
          {
            "high": {
              "value": 7.5,
              "code": "pH",
              "system": "http://unitsofmeasure.org"
            }
          }
        ],
        "text": {
          "status": "generated",
          "div": "<div xmlns=\"http://www.w3.org/1999/xhtml\"><table class=\"hl7__eu__lab__report\"><tr><th>Test</th><th>26-Apr-2024</th><th>Reference&#xA0;Range</th><th>Unit</th></tr><tr><td>pH of Urine by Test strip</td><td>6.9</td><td>4.5 - 7.5</td><td></td><td>pH</td></tr></table></div>"
        },
        "status": "final",
        "subject": {
          "reference": "urn:uuid:c17185c4-92ec-4349-8c38-5afdad0cfba4",
          "display": "Victor Lagarde"
        },
        "effectiveDateTime": "2024-04-26T04:48:18Z",
        "specimen": {
          "reference": "urn:uuid:0a16b811-6145-433f-9d62-9c66d1623508"
        }
      }
    },
    {
      "fullUrl": "urn:uuid:7c874fa7-20d1-4f7f-87fd-7a8cc3a034f8",
      "resource": {
        "resourceType": "Observation",
        "id": "7c874fa7-20d1-4f7f-87fd-7a8cc3a034f8",
        "meta": {
          "profile": [
            "http://hl7.eu/fhir/laboratory/StructureDefinition/Observation-resultslab-eu-lab"
          ]
        },
        "performer": [
          {
            "display": "The Central European Lab"
          }
        ],
        "category": [
          {
            "coding": [
              {
                "system": "http://terminology.hl7.org/CodeSystem/observation-category",
                "code": "laboratory"
              }
            ]
          }
        ],
        "code": {
          "coding": [
            {
              "code": "5804-0",
              "system": "http://loinc.org",
              "display": "Protein [Mass/volume] in Urine by Test strip"
            }
          ],
          "text": "Protein [Mass/volume] in Urine by Test strip"
        },
        "valueQuantity": {
          "system": "http://unitsofmeasure.org",
          "value": 237.9,
          "unit": "mg/dL",
          "code": "mg/dL"
        },
        "referenceRange": [
          {
            "low": {
              "value": 0,
              "code": "mg/dL",
              "system": "http://unitsofmeasure.org"
            }
          },
          {
            "high": {
              "value": 149,
              "code": "mg/dL",
              "system": "http://unitsofmeasure.org"
            }
          }
        ],
        "interpretation": [
          {
            "coding": [
              {
                "code": "H",
                "system": "http://terminology.hl7.org/CodeSystem/v3-ObservationInterpretation",
                "display": "High"
              }
            ]
          }
        ],
        "text": {
          "status": "generated",
          "div": "<div xmlns=\"http://www.w3.org/1999/xhtml\"><table class=\"hl7__eu__lab__report\"><tr><th>Test</th><th>26-Apr-2024</th><th>Reference&#xA0;Range</th><th>Unit</th></tr><tr><td>Protein [Mass/volume] in Urine by Test strip</td><td>237.9</td><td>0 - 149</td><td>H</td><td>mg/dL</td></tr></table></div>"
        },
        "status": "final",
        "subject": {
          "reference": "urn:uuid:c17185c4-92ec-4349-8c38-5afdad0cfba4",
          "display": "Victor Lagarde"
        },
        "effectiveDateTime": "2024-04-26T04:48:18Z",
        "specimen": {
          "reference": "urn:uuid:0a16b811-6145-433f-9d62-9c66d1623508"
        }
      }
    },
    {
      "fullUrl": "urn:uuid:9ca07caa-1ba9-4281-b58a-0d055fb828bb",
      "resource": {
        "resourceType": "Observation",
        "id": "9ca07caa-1ba9-4281-b58a-0d055fb828bb",
        "meta": {
          "profile": [
            "http://hl7.eu/fhir/laboratory/StructureDefinition/Observation-resultslab-eu-lab"
          ]
        },
        "performer": [
          {
            "display": "The Central European Lab"
          }
        ],
        "category": [
          {
            "coding": [
              {
                "system": "http://terminology.hl7.org/CodeSystem/observation-category",
                "code": "laboratory"
              }
            ]
          }
        ],
        "code": {
          "coding": [
            {
              "code": "20454-5",
              "system": "http://loinc.org",
              "display": "Protein [Presence] in Urine by Test strip"
            }
          ],
          "text": "Protein [Presence] in Urine by Test strip"
        },
        "text": {
          "status": "generated",
          "div": "<div xmlns=\"http://www.w3.org/1999/xhtml\"><table class=\"hl7__eu__lab__report\"><tr><th>Test</th><th>26-Apr-2024</th><th>Reference&#xA0;Range</th><th>Unit</th></tr><tr><td>Protein [Presence] in Urine by Test strip</td></tr></table></div>"
        },
        "status": "final",
        "subject": {
          "reference": "urn:uuid:c17185c4-92ec-4349-8c38-5afdad0cfba4",
          "display": "Victor Lagarde"
        },
        "effectiveDateTime": "2024-04-26T04:48:18Z",
        "specimen": {
          "reference": "urn:uuid:0a16b811-6145-433f-9d62-9c66d1623508"
        }
      }
    },
    {
      "fullUrl": "urn:uuid:58a3f0a9-279d-4445-97b4-edee57fac54c",
      "resource": {
        "resourceType": "Observation",
        "id": "58a3f0a9-279d-4445-97b4-edee57fac54c",
        "meta": {
          "profile": [
            "http://hl7.eu/fhir/laboratory/StructureDefinition/Observation-resultslab-eu-lab"
          ]
        },
        "performer": [
          {
            "display": "The Central European Lab"
          }
        ],
        "category": [
          {
            "coding": [
              {
                "system": "http://terminology.hl7.org/CodeSystem/observation-category",
                "code": "laboratory"
              }
            ]
          }
        ],
        "code": {
          "coding": [
            {
              "code": "5802-4",
              "system": "http://loinc.org",
              "display": "Nitrite [Presence] in Urine by Test strip"
            }
          ],
          "text": "Nitrite [Presence] in Urine by Test strip"
        },
        "text": {
          "status": "generated",
          "div": "<div xmlns=\"http://www.w3.org/1999/xhtml\"><table class=\"hl7__eu__lab__report\"><tr><th>Test</th><th>26-Apr-2024</th><th>Reference&#xA0;Range</th><th>Unit</th></tr><tr><td>Nitrite [Presence] in Urine by Test strip</td></tr></table></div>"
        },
        "status": "final",
        "subject": {
          "reference": "urn:uuid:c17185c4-92ec-4349-8c38-5afdad0cfba4",
          "display": "Victor Lagarde"
        },
        "effectiveDateTime": "2024-04-26T04:48:18Z",
        "specimen": {
          "reference": "urn:uuid:0a16b811-6145-433f-9d62-9c66d1623508"
        }
      }
    },
    {
      "fullUrl": "urn:uuid:0f9dac96-4250-4d25-a072-9844c949a6d4",
      "resource": {
        "resourceType": "Observation",
        "id": "0f9dac96-4250-4d25-a072-9844c949a6d4",
        "meta": {
          "profile": [
            "http://hl7.eu/fhir/laboratory/StructureDefinition/Observation-resultslab-eu-lab"
          ]
        },
        "performer": [
          {
            "display": "The Central European Lab"
          }
        ],
        "category": [
          {
            "coding": [
              {
                "system": "http://terminology.hl7.org/CodeSystem/observation-category",
                "code": "laboratory"
              }
            ]
          }
        ],
        "code": {
          "coding": [
            {
              "code": "5794-3",
              "system": "http://loinc.org",
              "display": "Hemoglobin [Presence] in Urine by Test strip"
            }
          ],
          "text": "Hemoglobin [Presence] in Urine by Test strip"
        },
        "text": {
          "status": "generated",
          "div": "<div xmlns=\"http://www.w3.org/1999/xhtml\"><table class=\"hl7__eu__lab__report\"><tr><th>Test</th><th>26-Apr-2024</th><th>Reference&#xA0;Range</th><th>Unit</th></tr><tr><td>Hemoglobin [Presence] in Urine by Test strip</td></tr></table></div>"
        },
        "status": "final",
        "subject": {
          "reference": "urn:uuid:c17185c4-92ec-4349-8c38-5afdad0cfba4",
          "display": "Victor Lagarde"
        },
        "effectiveDateTime": "2024-04-26T04:48:18Z",
        "specimen": {
          "reference": "urn:uuid:0a16b811-6145-433f-9d62-9c66d1623508"
        }
      }
    },
    {
      "fullUrl": "urn:uuid:0c273fd7-6f87-45d4-b893-e74a1548e07a",
      "resource": {
        "resourceType": "Observation",
        "id": "0c273fd7-6f87-45d4-b893-e74a1548e07a",
        "meta": {
          "profile": [
            "http://hl7.eu/fhir/laboratory/StructureDefinition/Observation-resultslab-eu-lab"
          ]
        },
        "performer": [
          {
            "display": "The Central European Lab"
          }
        ],
        "category": [
          {
            "coding": [
              {
                "system": "http://terminology.hl7.org/CodeSystem/observation-category",
                "code": "laboratory"
              }
            ]
          }
        ],
        "code": {
          "coding": [
            {
              "code": "5799-2",
              "system": "http://loinc.org",
              "display": "Leukocyte esterase [Presence] in Urine by Test strip"
            }
          ],
          "text": "Leukocyte esterase [Presence] in Urine by Test strip"
        },
        "text": {
          "status": "generated",
          "div": "<div xmlns=\"http://www.w3.org/1999/xhtml\"><table class=\"hl7__eu__lab__report\"><tr><th>Test</th><th>26-Apr-2024</th><th>Reference&#xA0;Range</th><th>Unit</th></tr><tr><td>Leukocyte esterase [Presence] in Urine by Test strip</td></tr></table></div>"
        },
        "status": "final",
        "subject": {
          "reference": "urn:uuid:c17185c4-92ec-4349-8c38-5afdad0cfba4",
          "display": "Victor Lagarde"
        },
        "effectiveDateTime": "2024-04-26T04:48:18Z",
        "specimen": {
          "reference": "urn:uuid:0a16b811-6145-433f-9d62-9c66d1623508"
        }
      }
    },
    {
      "fullUrl": "urn:uuid:f14bb672-38a0-4706-a580-adbc228b4aec",
      "resource": {
        "resourceType": "Observation",
        "id": "f14bb672-38a0-4706-a580-adbc228b4aec",
        "meta": {
          "profile": [
            "http://hl7.eu/fhir/laboratory/StructureDefinition/Observation-resultslab-eu-lab"
          ]
        },
        "performer": [
          {
            "display": "The Central European Lab"
          }
        ],
        "category": [
          {
            "coding": [
              {
                "system": "http://terminology.hl7.org/CodeSystem/observation-category",
                "code": "laboratory"
              }
            ]
          }
        ],
        "code": {
          "coding": [
            {
              "code": "4548-4",
              "system": "http://loinc.org",
              "display": "Hemoglobin A1c/Hemoglobin.total in Blood"
            }
          ],
          "text": "Hemoglobin A1c/Hemoglobin.total in Blood"
        },
        "valueQuantity": {
          "system": "http://unitsofmeasure.org",
          "value": 3.4,
          "unit": "%",
          "code": "%"
        },
        "referenceRange": [
          {
            "low": {
              "value": 4.3,
              "code": "%",
              "system": "http://unitsofmeasure.org"
            }
          },
          {
            "high": {
              "value": 6,
              "code": "%",
              "system": "http://unitsofmeasure.org"
            }
          }
        ],
        "interpretation": [
          {
            "coding": [
              {
                "code": "L",
                "system": "http://terminology.hl7.org/CodeSystem/v3-ObservationInterpretation",
                "display": "Low"
              }
            ]
          }
        ],
        "text": {
          "status": "generated",
          "div": "<div xmlns=\"http://www.w3.org/1999/xhtml\"><table class=\"hl7__eu__lab__report\"><tr><th>Test</th><th>26-Apr-2024</th><th>Reference&#xA0;Range</th><th>Unit</th></tr><tr><td>Hemoglobin A1c/Hemoglobin.total in Blood</td><td>3.4</td><td>4.3 - 6</td><td>L</td><td>%</td></tr></table></div>"
        },
        "status": "final",
        "subject": {
          "reference": "urn:uuid:c17185c4-92ec-4349-8c38-5afdad0cfba4",
          "display": "Victor Lagarde"
        },
        "effectiveDateTime": "2024-04-26T04:48:18Z",
        "specimen": {
          "reference": "urn:uuid:0607358e-4939-4f13-8a24-2b2ad94f82b6"
        }
      }
    },
    {
      "fullUrl": "urn:uuid:3b5e24ad-e852-4c09-946b-05ef67c6fa81",
      "resource": {
        "resourceType": "Device",
        "id": "3b5e24ad-e852-4c09-946b-05ef67c6fa81",
        "deviceName": [
          {
            "name": "SYNDERAI Synthetic Generator",
            "type": "manufacturer-name"
          }
        ],
        "version": [
          {
            "value": "5.0"
          }
        ],
        "text": {
          "status": "generated",
          "div": "<div xmlns=\"http://www.w3.org/1999/xhtml\">SYNDERAI Synthetic Generator v5.0</div>"
        },
        "status": "active\"",
        "distinctIdentifier": "synderai-generator-50",
        "manufacturer": "SYNDERAI Project"
      }
    },
    {
      "fullUrl": "urn:uuid:9f8c4d27-7ef2-48ac-9973-acf4dacbb5ba",
      "resource": {
        "resourceType": "Provenance",
        "id": "9f8c4d27-7ef2-48ac-9973-acf4dacbb5ba",
        "target": [
          {
            "reference": "Patient/c17185c4-92ec-4349-8c38-5afdad0cfba4"
          },
          {
            "reference": "Bundle/7864ee05-548f-4728-bdc0-c03581b96d77"
          },
          {
            "reference": "Composition/10bb7760-6227-4f5c-9605-1f715a882b99"
          },
          {
            "reference": "PractitionerRole/1ff02fe2-45be-4d4d-89ad-7d19cc75606f"
          },
          {
            "reference": "Practitioner/fe8fb111-e14a-4cf0-ab00-0fffa5dfe5df"
          },
          {
            "reference": "PractitionerRole/966e6dac-d1d0-4204-9cf6-98b955ab4dbd"
          },
          {
            "reference": "Organization/f35b2edf-2f28-43cf-ada1-35ac44d4242d"
          }
        ],
        "activity": {
          "text": "Synthetic Example Data Generation"
        },
        "policy": [
          "https://synderai.net/synderai-synthetic-data-policy"
        ],
        "agent": [
          {
            "type": {
              "text": "author"
            },
            "who": {
              "reference": "Device/3b5e24ad-e852-4c09-946b-05ef67c6fa81"
            }
          }
        ],
        "reason": [
          {
            "text": "Interoperability Testing and Training (non-clinical use)"
          }
        ],
        "text": {
          "status": "generated",
          "div": "<div xmlns=\"http://www.w3.org/1999/xhtml\">Provenance for SYNDERAI Synthetic Example Data Resource</div>"
        },
        "recorded": "2024-04-26T06:48:18Z"
      }
    },
    {
      "fullUrl": "urn:uuid:1ff02fe2-45be-4d4d-89ad-7d19cc75606f",
      "resource": {
        "resourceType": "PractitionerRole",
        "id": "1ff02fe2-45be-4d4d-89ad-7d19cc75606f",
        "meta": {
          "profile": [
            "http://hl7.eu/fhir/base/StructureDefinition/practitionerRole-eu"
          ]
        },
        "text": {
          "status": "generated",
          "div": "<div xmlns=\"http://www.w3.org/1999/xhtml\">Laboratory Role Id: 1ff02fe2-45be-4d4d-89ad-7d19cc75606f</div>"
        },
        "practitioner": {
          "reference": "urn:uuid:fe8fb111-e14a-4cf0-ab00-0fffa5dfe5df"
        }
      }
    },
    {
      "fullUrl": "urn:uuid:fe8fb111-e14a-4cf0-ab00-0fffa5dfe5df",
      "resource": {
        "resourceType": "Practitioner",
        "id": "fe8fb111-e14a-4cf0-ab00-0fffa5dfe5df",
        "meta": {
          "profile": [
            "http://hl7.eu/fhir/base/StructureDefinition/practitioner-eu"
          ]
        },
        "identifier": [
          {
            "assigner": {
              "display": "HL7 Europe"
            },
            "system": "urn:oid:2.16.840.1.113883.2.51.999",
            "value": "3f126f26-9cb7-4ac8-b23f-6e7c635307d7"
          }
        ],
        "name": [
          {
            "prefix": [
              "dr"
            ],
            "given": [
              "Ex"
            ],
            "family": "Ample"
          }
        ],
        "address": [
          {
            "line": [
              "Laboratoire Central Europenne",
              "Boulevard du Jardin Botanique 32"
            ],
            "postalCode": "1000",
            "city": "Brussels",
            "country": "Belgium"
          }
        ],
        "text": {
          "status": "generated",
          "div": "<div xmlns=\"http://www.w3.org/1999/xhtml\">Laboratory: Laboratoire Central Europenne, 1000 Brussels, Belgium</div>"
        }
      }
    }
  ],
  "type": "document",
  "timestamp": "2024-04-26T06:48:18Z"
}
