{
  "resourceType": "Bundle",
  "id": "bfd414e5-1f35-4a85-bf03-2290a161b7b1",
  "meta": {
    "profile": [
      "http://hl7.eu/fhir/laboratory/StructureDefinition/Bundle-eu-lab"
    ]
  },
  "identifier": {
    "assigner": {
      "display": "HL7 Europe"
    },
    "system": "urn:oid:2.16.840.1.113883.2.51.999",
    "value": "96ac3bee-225b-4985-a782-62a0ab079810"
  },
  "entry": [
    {
      "fullUrl": "urn:uuid:ddc2a0fa-a80a-4f76-82e1-2b8afc457f8b",
      "resource": {
        "resourceType": "Composition",
        "id": "ddc2a0fa-a80a-4f76-82e1-2b8afc457f8b",
        "meta": {
          "profile": [
            "http://hl7.eu/fhir/laboratory/StructureDefinition/Composition-eu-lab"
          ]
        },
        "identifier": {
          "assigner": {
            "display": "HL7 Europe"
          },
          "system": "urn:oid:2.16.840.1.113883.2.51.999",
          "value": "024b748f-4627-401c-863b-ad175b2b63e5"
        },
        "author": [
          {
            "reference": "urn:uuid:329435a1-3ad8-4869-a0a2-f8a9910370a7"
          }
        ],
        "category": [
          {
            "coding": [
              {
                "code": "26436-6",
                "system": "http://loinc.org",
                "display": "Laboratory studies (set)"
              }
            ]
          }
        ],
        "type": {
          "coding": [
            {
              "code": "11502-2",
              "system": "http://loinc.org",
              "display": "Laboratory report"
            }
          ],
          "text": "Laboratory Report"
        },
        "section": [
          {
            "code": {
              "coding": [
                {
                  "code": "26436-6",
                  "system": "http://loinc.org",
                  "display": "Laboratory studies (set)"
                }
              ],
              "text": "Laboratory studies"
            },
            "section": [
              {
                "code": {
                  "coding": [
                    {
                      "code": "$18719-5",
                      "system": "http://loinc.org",
                      "display": "Chemistry studies (set)"
                    }
                  ],
                  "text": "Chemistry"
                },
                "entry": [
                  {
                    "reference": "urn:uuid:49da1557-ef72-4c2b-af41-27405c229402"
                  },
                  {
                    "reference": "urn:uuid:c5d82083-0fc0-41f8-8dee-8ffc555bff8e"
                  },
                  {
                    "reference": "urn:uuid:10fc460c-aee3-4d84-a548-7c8e3cf504f7"
                  },
                  {
                    "reference": "urn:uuid:24805670-c6db-4f9a-a56f-0861640ee372"
                  },
                  {
                    "reference": "urn:uuid:56a6156f-c8c4-4bba-b8c3-d255085dd9d7"
                  },
                  {
                    "reference": "urn:uuid:726187d2-34e8-47e0-b9c4-11ae75ff644c"
                  },
                  {
                    "reference": "urn:uuid:1a07b9ed-3853-4482-a220-e3b92caca50f"
                  },
                  {
                    "reference": "urn:uuid:93958954-1fcd-488c-980f-dfa14f820750"
                  },
                  {
                    "reference": "urn:uuid:a0b6d367-8045-4c1c-93cd-1c4283873b3f"
                  },
                  {
                    "reference": "urn:uuid:becf874b-3c80-4996-8de5-2ac3b133426b"
                  },
                  {
                    "reference": "urn:uuid:343e1add-0689-4b81-b757-d1190b8976bc"
                  },
                  {
                    "reference": "urn:uuid:a614ea79-9541-47e8-842e-2ea1f17ad819"
                  },
                  {
                    "reference": "urn:uuid:b7687395-d1ba-416e-8dbf-49fef14148ae"
                  },
                  {
                    "reference": "urn:uuid:fe887660-8f64-4eab-9bc3-9642db0b8a95"
                  },
                  {
                    "reference": "urn:uuid:5f3c07f9-4b7f-4e10-804e-dd26c77588cb"
                  },
                  {
                    "reference": "urn:uuid:800aeb88-f1bb-4b29-960c-a6966210bb74"
                  },
                  {
                    "reference": "urn:uuid:fb67af05-8f48-4969-83a3-beb3ba3b71df"
                  },
                  {
                    "reference": "urn:uuid:66534179-f055-4d42-823d-e12402b95b9b"
                  },
                  {
                    "reference": "urn:uuid:25d67ea5-939d-4b33-989e-45fe640a3aff"
                  }
                ],
                "text": {
                  "status": "generated",
                  "div": "<div xmlns=\"http://www.w3.org/1999/xhtml\"><h3>Chemistry</h3><table class=\"hl7__eu__lab__report\"><thead><tr><th>Test</th><th>30-NOV-2024</th><th>Reference&#xA0;Range</th><th>Unit</th></tr></thead><tbody><tr><td>Glucose [Mass/volume] in Blood</td><td>86.2</td><td>70 - 140</td><td>mg/dL</td></tr><tr><td>Urea nitrogen [Mass/volume] in Blood</td><td>15.0</td><td>7 - 25</td><td>mg/dL</td></tr><tr><td>Creatinine [Mass/volume] in Blood</td><td><strong>2.7 H</strong></td><td>0.6 - 1.1</td><td>mg/dL</td></tr><tr><td>Calcium [Mass/volume] in Blood</td><td>8.6</td><td>8.6 - 10.4</td><td>mg/dL</td></tr><tr><td>Sodium [Moles/volume] in Blood</td><td>142.2</td><td>135 - 145</td><td>mmol/L</td></tr><tr><td>Potassium [Moles/volume] in Blood</td><td>5.0</td><td>3.5 - 5.3</td><td>mmol/L</td></tr><tr><td>Chloride [Moles/volume] in Blood</td><td>106.8</td><td>98 - 108</td><td>mmol/L</td></tr><tr><td>Carbon dioxide, total [Moles/volume] in Blood</td><td><strong>20.6 L</strong></td><td>22 - 32</td><td>mmol/L</td></tr><tr><td>Protein [Mass/volume] in Serum or Plasma</td><td>6.7</td><td>6.6 - 8.3</td><td>g/dL</td></tr><tr><td>Albumin [Mass/volume] in Serum or Plasma</td><td>4.0</td><td>3.5 - 5.5</td><td>g/dL</td></tr><tr><td>Globulin [Mass/volume] in Serum by calculation</td><td>2.2</td><td>2.2 - 3.7</td><td>g/L</td></tr><tr><td>Bilirubin.total [Mass/volume] in Serum or Plasma</td><td>0.3</td><td>0.3 - 1.2</td><td>mg/dL</td></tr><tr><td>Alkaline phosphatase [Enzymatic activity/volume] in Serum or Plasma</td><td>44.6</td><td>40 - 130</td><td>U/L</td></tr><tr><td>Alanine aminotransferase [Enzymatic activity/volume] in Serum or Plasma</td><td>43.4</td><td>7 - 55</td><td>U/L</td></tr><tr><td>Aspartate aminotransferase [Enzymatic activity/volume] in Serum or Plasma</td><td>15.6</td><td>10 - 40</td><td>U/L</td></tr><tr><td>Cholesterol [Mass/volume] in Serum or Plasma</td><td><strong>204.8 H</strong></td><td>125 - 200</td><td>mg/dL</td></tr><tr><td>Triglyceride [Mass/volume] in Serum or Plasma</td><td>151.8</td><td>10 - 175</td><td>mg/dL</td></tr><tr><td>Cholesterol in LDL [Mass/volume] in Serum or Plasma by Direct assay</td><td>100.8</td><td>0 - 130</td><td>mg/dL</td></tr><tr><td>Cholesterol in HDL [Mass/volume] in Serum or Plasma</td><td><strong>32.2 L</strong></td><td>50 - 100</td><td>mg/dL</td></tr></tbody></table></div>"
                },
                "title": "Chemistry"
              }
            ],
            "title": "Laboratory Report"
          },
          {
            "text": {
              "status": "generated",
              "div": "<div xmlns=\"http://www.w3.org/1999/xhtml\"><h3>Annotation</h3><table class=\"hl7__eu__lab__report\"><tr><th>Conclusion and Recommendations based on this report and previous findings known to us</th></tr><tr><td>The patient shows elevated creatinine, suggesting impaired renal function, and low total CO₂, which may indicate mild metabolic acidosis. Cholesterol is slightly elevated with low HDL, increasing cardiovascular risk. Other parameters, including glucose, electrolytes, liver enzymes, and proteins, are within normal limits. Renal function and cardiovascular risk factors should be further evaluated.</td></tr></table></div>"
            },
            "code": {
              "coding": [
                {
                  "system": "http://loinc.org",
                  "code": "48767-8",
                  "display": "Annotation comment"
                }
              ]
            },
            "title": "Annotation comment"
          }
        ],
        "status": "final",
        "subject": {
          "reference": "urn:uuid:7d0e0986-9d49-4fbe-a207-c33a4dbc78c1",
          "display": "Helene Andresen"
        },
        "date": "2024-11-30T23:53:36Z",
        "title": "Laboratory Report",
        "confidentiality": "N"
      }
    },
    {
      "fullUrl": "urn:uuid:e665aaa3-f4d6-46f2-8186-b2e8b69baede",
      "resource": {
        "resourceType": "DiagnosticReport",
        "id": "e665aaa3-f4d6-46f2-8186-b2e8b69baede",
        "meta": {
          "profile": [
            "http://hl7.eu/fhir/laboratory/StructureDefinition/DiagnosticReport-eu-lab"
          ]
        },
        "identifier": [
          {
            "assigner": {
              "display": "HL7 Europe"
            },
            "system": "urn:oid:2.16.840.1.113883.2.51.999",
            "value": "49747c02-a608-46cb-8de8-de6340815cde"
          }
        ],
        "extension": [
          {
            "url": "http://hl7.org/fhir/5.0/StructureDefinition/extension-DiagnosticReport.composition",
            "valueReference": {
              "reference": "urn:uuid:024b748f-4627-401c-863b-ad175b2b63e5"
            }
          }
        ],
        "category": [
          {
            "coding": [
              {
                "code": "26436-6",
                "system": "http://loinc.org",
                "display": "Laboratory studies (set)"
              }
            ]
          }
        ],
        "specimen": [
          {
            "reference": "urn:uuid:264a26df-aeea-41a7-a0e3-af5f86f93d8d"
          },
          {
            "reference": "urn:uuid:7ae3ba25-b214-4c49-85a7-2bc18dd10e3e"
          },
          {
            "reference": "urn:uuid:f22747b4-0f12-41af-8cc2-ee062a70aad3"
          }
        ],
        "result": [
          {
            "reference": "urn:uuid:49da1557-ef72-4c2b-af41-27405c229402"
          },
          {
            "reference": "urn:uuid:c5d82083-0fc0-41f8-8dee-8ffc555bff8e"
          },
          {
            "reference": "urn:uuid:10fc460c-aee3-4d84-a548-7c8e3cf504f7"
          },
          {
            "reference": "urn:uuid:24805670-c6db-4f9a-a56f-0861640ee372"
          },
          {
            "reference": "urn:uuid:56a6156f-c8c4-4bba-b8c3-d255085dd9d7"
          },
          {
            "reference": "urn:uuid:726187d2-34e8-47e0-b9c4-11ae75ff644c"
          },
          {
            "reference": "urn:uuid:1a07b9ed-3853-4482-a220-e3b92caca50f"
          },
          {
            "reference": "urn:uuid:93958954-1fcd-488c-980f-dfa14f820750"
          },
          {
            "reference": "urn:uuid:a0b6d367-8045-4c1c-93cd-1c4283873b3f"
          },
          {
            "reference": "urn:uuid:becf874b-3c80-4996-8de5-2ac3b133426b"
          },
          {
            "reference": "urn:uuid:343e1add-0689-4b81-b757-d1190b8976bc"
          },
          {
            "reference": "urn:uuid:a614ea79-9541-47e8-842e-2ea1f17ad819"
          },
          {
            "reference": "urn:uuid:b7687395-d1ba-416e-8dbf-49fef14148ae"
          },
          {
            "reference": "urn:uuid:fe887660-8f64-4eab-9bc3-9642db0b8a95"
          },
          {
            "reference": "urn:uuid:5f3c07f9-4b7f-4e10-804e-dd26c77588cb"
          },
          {
            "reference": "urn:uuid:800aeb88-f1bb-4b29-960c-a6966210bb74"
          },
          {
            "reference": "urn:uuid:fb67af05-8f48-4969-83a3-beb3ba3b71df"
          },
          {
            "reference": "urn:uuid:66534179-f055-4d42-823d-e12402b95b9b"
          },
          {
            "reference": "urn:uuid:25d67ea5-939d-4b33-989e-45fe640a3aff"
          }
        ],
        "status": "registered",
        "code": {
          "coding": [
            {
              "code": "11502-2",
              "system": "http://loinc.org",
              "display": "Laboratory report"
            }
          ]
        },
        "subject": {
          "reference": "urn:uuid:7d0e0986-9d49-4fbe-a207-c33a4dbc78c1",
          "display": "Helene Andresen"
        }
      }
    },
    {
      "fullUrl": "urn:uuid:7d0e0986-9d49-4fbe-a207-c33a4dbc78c1",
      "resource": {
        "resourceType": "Patient",
        "id": "7d0e0986-9d49-4fbe-a207-c33a4dbc78c1",
        "meta": {
          "security": [
            {
              "system": "http://terminology.hl7.org/CodeSystem/v3-ActReason",
              "code": "HTEST"
            },
            {
              "system": "http://terminology.hl7.org/CodeSystem/v3-ActReason",
              "code": "TRAIN"
            }
          ],
          "tag": [
            {
              "system": "https://synderai.net/fhir/CodeSystem/tags",
              "code": "synthetic",
              "display": "SYNDERAI Synthetic data"
            }
          ],
          "profile": [
            "http://hl7.eu/fhir/base/StructureDefinition/patient-eu-core"
          ]
        },
        "identifier": [
          {
            "type": {
              "coding": [
                {
                  "code": "PT",
                  "system": "http://terminology.hl7.org/CodeSystem/v2-0203"
                }
              ]
            },
            "system": "http://ec.europa.eu/identifier/eci",
            "value": "3450-170343-2"
          },
          {
            "type": {
              "coding": [
                {
                  "code": "MR",
                  "system": "http://terminology.hl7.org/CodeSystem/v2-0203"
                }
              ]
            },
            "system": "http://local.setting.eu/identifier",
            "value": "72e91c9c-0b01-42b0-a6a0-6dcc70aeec49"
          }
        ],
        "name": [
          {
            "family": "Andresen"
          },
          {
            "given": [
              "Helene"
            ]
          },
          {
            "text": "Helene Andresen"
          }
        ],
        "address": [
          {
            "line": [
              "Kristiansenberget 2"
            ],
            "use": "home",
            "type": "physical",
            "postalCode": "0172",
            "city": "Sørensen",
            "country": "Norway"
          }
        ],
        "telecom": [
          {
            "system": "phone",
            "value": "53 98 86 24"
          }
        ],
        "extension": [
          {
            "url": "http://hl7.org/fhir/StructureDefinition/patient-nationality",
            "valueCodeableConcept": {
              "coding": [
                {
                  "code": "NO",
                  "system": "http://hl7.org/fhir/ValueSet/country"
                }
              ]
            }
          }
        ],
        "text": {
          "status": "generated",
          "div": "<div xmlns=\"http://www.w3.org/1999/xhtml\"><table class=\"hl7__ips\"><tr><td>Helene Andresen</td><td>female</td><td>17-Oct-1939</td></tr></table></div>"
        },
        "gender": "female",
        "birthDate": "1939-10-17"
      }
    },
    {
      "fullUrl": "urn:uuid:3182458f-7bd4-4910-88af-d1a148fe06c9",
      "resource": {
        "resourceType": "ServiceRequest",
        "id": "3182458f-7bd4-4910-88af-d1a148fe06c9",
        "meta": {
          "profile": [
            "http://hl7.eu/fhir/laboratory/StructureDefinition/ServiceRequest-eu-lab"
          ]
        },
        "identifier": [
          {
            "system": "http://example.org",
            "value": "6cc83b3e-039a-4bf2-9a05-c32434d358fa"
          }
        ],
        "specimen": [
          {
            "reference": "urn:uuid:264a26df-aeea-41a7-a0e3-af5f86f93d8d"
          },
          {
            "reference": "urn:uuid:7ae3ba25-b214-4c49-85a7-2bc18dd10e3e"
          },
          {
            "reference": "urn:uuid:f22747b4-0f12-41af-8cc2-ee062a70aad3"
          }
        ],
        "reasonCode": [
          {
            "coding": [
              {
                "code": "64859006",
                "system": "http://snomed.info/sct",
                "display": "Osteoporosis"
              }
            ]
          },
          {
            "coding": [
              {
                "code": "40055000",
                "system": "http://snomed.info/sct",
                "display": "Chronic sinusitis"
              }
            ]
          },
          {
            "coding": [
              {
                "code": "55822004",
                "system": "http://snomed.info/sct",
                "display": "Hyperlipidemia"
              }
            ]
          },
          {
            "coding": [
              {
                "code": "271737000",
                "system": "http://snomed.info/sct",
                "display": "Anemia"
              }
            ]
          },
          {
            "coding": [
              {
                "code": "15777000",
                "system": "http://snomed.info/sct",
                "display": "Prediabetes"
              }
            ]
          },
          {
            "coding": [
              {
                "code": "128613002",
                "system": "http://snomed.info/sct",
                "display": "Seizure disorder"
              }
            ]
          }
        ],
        "status": "active",
        "intent": "order",
        "code": {
          "coding": [
            {
              "code": "108252007",
              "system": "http://snomed.info/sct",
              "display": "Laboratory procedure"
            }
          ]
        },
        "subject": {
          "reference": "urn:uuid:7d0e0986-9d49-4fbe-a207-c33a4dbc78c1",
          "display": "Helene Andresen"
        },
        "requester": {
          "reference": "urn:uuid:9ea2e422-e1af-49f3-ac63-5f56ed05be19"
        }
      }
    },
    {
      "fullUrl": "urn:uuid:9ea2e422-e1af-49f3-ac63-5f56ed05be19",
      "resource": {
        "resourceType": "PractitionerRole",
        "id": "9ea2e422-e1af-49f3-ac63-5f56ed05be19",
        "meta": {
          "profile": [
            "http://hl7.eu/fhir/base/StructureDefinition/practitionerRole-eu"
          ]
        },
        "text": {
          "status": "generated",
          "div": "<div xmlns=\"http://www.w3.org/1999/xhtml\">Provider Role Id: 9ea2e422-e1af-49f3-ac63-5f56ed05be19</div>"
        },
        "organization": {
          "reference": "urn:uuid:49553488-37b5-4e84-87e4-29a7db985863"
        }
      }
    },
    {
      "fullUrl": "urn:uuid:49553488-37b5-4e84-87e4-29a7db985863",
      "resource": {
        "resourceType": "Organization",
        "id": "49553488-37b5-4e84-87e4-29a7db985863",
        "meta": {
          "profile": [
            "http://hl7.eu/fhir/base/StructureDefinition/organization-eu"
          ]
        },
        "identifier": [
          {
            "assigner": {
              "display": "HL7 Europe"
            },
            "system": "urn:oid:2.16.840.1.113883.2.51.999",
            "value": "c0e8e79f-b212-48e5-ba6b-9007a983311e"
          }
        ],
        "address": [
          {
            "city": "Oslo",
            "postalCode": "0155",
            "country": "Norway"
          }
        ],
        "text": {
          "status": "generated",
          "div": "<div xmlns=\"http://www.w3.org/1999/xhtml\">Provider Organization: Oslo universitetssykehus (Ullevål)</div>"
        },
        "name": "Oslo universitetssykehus (Ullevål)"
      }
    },
    {
      "fullUrl": "urn:uuid:264a26df-aeea-41a7-a0e3-af5f86f93d8d",
      "resource": {
        "resourceType": "Specimen",
        "id": "264a26df-aeea-41a7-a0e3-af5f86f93d8d",
        "meta": {
          "profile": [
            "http://hl7.eu/fhir/laboratory/StructureDefinition/Specimen-eu-lab"
          ]
        },
        "collection": {
          "collectedDateTime": "2024-11-30"
        },
        "text": {
          "status": "generated",
          "div": "<div xmlns=\"http://www.w3.org/1999/xhtml\"><table class=\"hl7__eu__lab__report\"><tr><th>Specimen</th><th>Collection Date</th></tr><tr><td>Whole blood specimen (specimen)</td><td><span class=\"nb\">30-Nov-2024</span></td></tr></table></div>"
        },
        "type": {
          "coding": [
            {
              "code": "258580003",
              "system": "http://snomed.info/sct",
              "display": "Whole blood specimen (specimen)"
            }
          ]
        }
      }
    },
    {
      "fullUrl": "urn:uuid:7ae3ba25-b214-4c49-85a7-2bc18dd10e3e",
      "resource": {
        "resourceType": "Specimen",
        "id": "7ae3ba25-b214-4c49-85a7-2bc18dd10e3e",
        "meta": {
          "profile": [
            "http://hl7.eu/fhir/laboratory/StructureDefinition/Specimen-eu-lab"
          ]
        },
        "collection": {
          "collectedDateTime": "2024-11-30"
        },
        "text": {
          "status": "generated",
          "div": "<div xmlns=\"http://www.w3.org/1999/xhtml\"><table class=\"hl7__eu__lab__report\"><tr><th>Specimen</th><th>Collection Date</th></tr><tr><td>Acellular blood (serum or plasma) specimen</td><td><span class=\"nb\">30-Nov-2024</span></td></tr></table></div>"
        },
        "type": {
          "coding": [
            {
              "code": "122592007",
              "system": "http://snomed.info/sct",
              "display": "Acellular blood (serum or plasma) specimen"
            }
          ]
        }
      }
    },
    {
      "fullUrl": "urn:uuid:f22747b4-0f12-41af-8cc2-ee062a70aad3",
      "resource": {
        "resourceType": "Specimen",
        "id": "f22747b4-0f12-41af-8cc2-ee062a70aad3",
        "meta": {
          "profile": [
            "http://hl7.eu/fhir/laboratory/StructureDefinition/Specimen-eu-lab"
          ]
        },
        "collection": {
          "collectedDateTime": "2024-11-30"
        },
        "text": {
          "status": "generated",
          "div": "<div xmlns=\"http://www.w3.org/1999/xhtml\"><table class=\"hl7__eu__lab__report\"><tr><th>Specimen</th><th>Collection Date</th></tr><tr><td>Serum specimen</td><td><span class=\"nb\">30-Nov-2024</span></td></tr></table></div>"
        },
        "type": {
          "coding": [
            {
              "code": "119364003",
              "system": "http://snomed.info/sct",
              "display": "Serum specimen"
            }
          ]
        }
      }
    },
    {
      "fullUrl": "urn:uuid:49da1557-ef72-4c2b-af41-27405c229402",
      "resource": {
        "resourceType": "Observation",
        "id": "49da1557-ef72-4c2b-af41-27405c229402",
        "meta": {
          "profile": [
            "http://hl7.eu/fhir/laboratory/StructureDefinition/Observation-resultslab-eu-lab"
          ]
        },
        "performer": [
          {
            "display": "The Central European Lab"
          }
        ],
        "category": [
          {
            "coding": [
              {
                "system": "http://terminology.hl7.org/CodeSystem/observation-category",
                "code": "laboratory"
              }
            ]
          }
        ],
        "code": {
          "coding": [
            {
              "code": "2339-0",
              "system": "http://loinc.org",
              "display": "Glucose [Mass/volume] in Blood"
            }
          ],
          "text": "Glucose [Mass/volume] in Blood"
        },
        "valueQuantity": {
          "system": "http://unitsofmeasure.org",
          "value": 86.2,
          "unit": "mg/dL",
          "code": "mg/dL"
        },
        "referenceRange": [
          {
            "low": {
              "value": 70,
              "code": "mg/dL",
              "system": "http://unitsofmeasure.org"
            }
          },
          {
            "high": {
              "value": 140,
              "code": "mg/dL",
              "system": "http://unitsofmeasure.org"
            }
          }
        ],
        "text": {
          "status": "generated",
          "div": "<div xmlns=\"http://www.w3.org/1999/xhtml\"><table class=\"hl7__eu__lab__report\"><tr><th>Test</th><th>30-Nov-2024</th><th>Reference&#xA0;Range</th><th>Unit</th></tr><tr><td>Glucose [Mass/volume] in Blood</td><td>86.2</td><td>70 - 140</td><td></td><td>mg/dL</td></tr></table></div>"
        },
        "status": "final",
        "subject": {
          "reference": "urn:uuid:7d0e0986-9d49-4fbe-a207-c33a4dbc78c1",
          "display": "Helene Andresen"
        },
        "effectiveDateTime": "2024-11-30T22:53:36Z",
        "specimen": {
          "reference": "urn:uuid:264a26df-aeea-41a7-a0e3-af5f86f93d8d"
        }
      }
    },
    {
      "fullUrl": "urn:uuid:c5d82083-0fc0-41f8-8dee-8ffc555bff8e",
      "resource": {
        "resourceType": "Observation",
        "id": "c5d82083-0fc0-41f8-8dee-8ffc555bff8e",
        "meta": {
          "profile": [
            "http://hl7.eu/fhir/laboratory/StructureDefinition/Observation-resultslab-eu-lab"
          ]
        },
        "performer": [
          {
            "display": "The Central European Lab"
          }
        ],
        "category": [
          {
            "coding": [
              {
                "system": "http://terminology.hl7.org/CodeSystem/observation-category",
                "code": "laboratory"
              }
            ]
          }
        ],
        "code": {
          "coding": [
            {
              "code": "6299-2",
              "system": "http://loinc.org",
              "display": "Urea nitrogen [Mass/volume] in Blood"
            }
          ],
          "text": "Urea nitrogen [Mass/volume] in Blood"
        },
        "valueQuantity": {
          "system": "http://unitsofmeasure.org",
          "value": 15,
          "unit": "mg/dL",
          "code": "mg/dL"
        },
        "referenceRange": [
          {
            "low": {
              "value": 7,
              "code": "mg/dL",
              "system": "http://unitsofmeasure.org"
            }
          },
          {
            "high": {
              "value": 25,
              "code": "mg/dL",
              "system": "http://unitsofmeasure.org"
            }
          }
        ],
        "text": {
          "status": "generated",
          "div": "<div xmlns=\"http://www.w3.org/1999/xhtml\"><table class=\"hl7__eu__lab__report\"><tr><th>Test</th><th>30-Nov-2024</th><th>Reference&#xA0;Range</th><th>Unit</th></tr><tr><td>Urea nitrogen [Mass/volume] in Blood</td><td>15.0</td><td>7 - 25</td><td></td><td>mg/dL</td></tr></table></div>"
        },
        "status": "final",
        "subject": {
          "reference": "urn:uuid:7d0e0986-9d49-4fbe-a207-c33a4dbc78c1",
          "display": "Helene Andresen"
        },
        "effectiveDateTime": "2024-11-30T22:53:36Z",
        "specimen": {
          "reference": "urn:uuid:264a26df-aeea-41a7-a0e3-af5f86f93d8d"
        }
      }
    },
    {
      "fullUrl": "urn:uuid:10fc460c-aee3-4d84-a548-7c8e3cf504f7",
      "resource": {
        "resourceType": "Observation",
        "id": "10fc460c-aee3-4d84-a548-7c8e3cf504f7",
        "meta": {
          "profile": [
            "http://hl7.eu/fhir/laboratory/StructureDefinition/Observation-resultslab-eu-lab"
          ]
        },
        "performer": [
          {
            "display": "The Central European Lab"
          }
        ],
        "category": [
          {
            "coding": [
              {
                "system": "http://terminology.hl7.org/CodeSystem/observation-category",
                "code": "laboratory"
              }
            ]
          }
        ],
        "code": {
          "coding": [
            {
              "code": "38483-4",
              "system": "http://loinc.org",
              "display": "Creatinine [Mass/volume] in Blood"
            }
          ],
          "text": "Creatinine [Mass/volume] in Blood"
        },
        "valueQuantity": {
          "system": "http://unitsofmeasure.org",
          "value": 2.7,
          "unit": "mg/dL",
          "code": "mg/dL"
        },
        "referenceRange": [
          {
            "low": {
              "value": 0.6,
              "code": "mg/dL",
              "system": "http://unitsofmeasure.org"
            }
          },
          {
            "high": {
              "value": 1.1,
              "code": "mg/dL",
              "system": "http://unitsofmeasure.org"
            }
          }
        ],
        "interpretation": [
          {
            "coding": [
              {
                "code": "H",
                "system": "http://terminology.hl7.org/CodeSystem/v3-ObservationInterpretation",
                "display": "High"
              }
            ]
          }
        ],
        "text": {
          "status": "generated",
          "div": "<div xmlns=\"http://www.w3.org/1999/xhtml\"><table class=\"hl7__eu__lab__report\"><tr><th>Test</th><th>30-Nov-2024</th><th>Reference&#xA0;Range</th><th>Unit</th></tr><tr><td>Creatinine [Mass/volume] in Blood</td><td>2.7</td><td>0.6 - 1.1</td><td>H</td><td>mg/dL</td></tr></table></div>"
        },
        "status": "final",
        "subject": {
          "reference": "urn:uuid:7d0e0986-9d49-4fbe-a207-c33a4dbc78c1",
          "display": "Helene Andresen"
        },
        "effectiveDateTime": "2024-11-30T22:53:36Z",
        "specimen": {
          "reference": "urn:uuid:264a26df-aeea-41a7-a0e3-af5f86f93d8d"
        }
      }
    },
    {
      "fullUrl": "urn:uuid:24805670-c6db-4f9a-a56f-0861640ee372",
      "resource": {
        "resourceType": "Observation",
        "id": "24805670-c6db-4f9a-a56f-0861640ee372",
        "meta": {
          "profile": [
            "http://hl7.eu/fhir/laboratory/StructureDefinition/Observation-resultslab-eu-lab"
          ]
        },
        "performer": [
          {
            "display": "The Central European Lab"
          }
        ],
        "category": [
          {
            "coding": [
              {
                "system": "http://terminology.hl7.org/CodeSystem/observation-category",
                "code": "laboratory"
              }
            ]
          }
        ],
        "code": {
          "coding": [
            {
              "code": "49765-1",
              "system": "http://loinc.org",
              "display": "Calcium [Mass/volume] in Blood"
            }
          ],
          "text": "Calcium [Mass/volume] in Blood"
        },
        "valueQuantity": {
          "system": "http://unitsofmeasure.org",
          "value": 8.6,
          "unit": "mg/dL",
          "code": "mg/dL"
        },
        "referenceRange": [
          {
            "low": {
              "value": 8.6,
              "code": "mg/dL",
              "system": "http://unitsofmeasure.org"
            }
          },
          {
            "high": {
              "value": 10.4,
              "code": "mg/dL",
              "system": "http://unitsofmeasure.org"
            }
          }
        ],
        "text": {
          "status": "generated",
          "div": "<div xmlns=\"http://www.w3.org/1999/xhtml\"><table class=\"hl7__eu__lab__report\"><tr><th>Test</th><th>30-Nov-2024</th><th>Reference&#xA0;Range</th><th>Unit</th></tr><tr><td>Calcium [Mass/volume] in Blood</td><td>8.6</td><td>8.6 - 10.4</td><td></td><td>mg/dL</td></tr></table></div>"
        },
        "status": "final",
        "subject": {
          "reference": "urn:uuid:7d0e0986-9d49-4fbe-a207-c33a4dbc78c1",
          "display": "Helene Andresen"
        },
        "effectiveDateTime": "2024-11-30T22:53:36Z",
        "specimen": {
          "reference": "urn:uuid:264a26df-aeea-41a7-a0e3-af5f86f93d8d"
        }
      }
    },
    {
      "fullUrl": "urn:uuid:56a6156f-c8c4-4bba-b8c3-d255085dd9d7",
      "resource": {
        "resourceType": "Observation",
        "id": "56a6156f-c8c4-4bba-b8c3-d255085dd9d7",
        "meta": {
          "profile": [
            "http://hl7.eu/fhir/laboratory/StructureDefinition/Observation-resultslab-eu-lab"
          ]
        },
        "performer": [
          {
            "display": "The Central European Lab"
          }
        ],
        "category": [
          {
            "coding": [
              {
                "system": "http://terminology.hl7.org/CodeSystem/observation-category",
                "code": "laboratory"
              }
            ]
          }
        ],
        "code": {
          "coding": [
            {
              "code": "2947-0",
              "system": "http://loinc.org",
              "display": "Sodium [Moles/volume] in Blood"
            }
          ],
          "text": "Sodium [Moles/volume] in Blood"
        },
        "valueQuantity": {
          "system": "http://unitsofmeasure.org",
          "value": 142.2,
          "unit": "mmol/L",
          "code": "mmol/L"
        },
        "referenceRange": [
          {
            "low": {
              "value": 135,
              "code": "mmol/L",
              "system": "http://unitsofmeasure.org"
            }
          },
          {
            "high": {
              "value": 145,
              "code": "mmol/L",
              "system": "http://unitsofmeasure.org"
            }
          }
        ],
        "text": {
          "status": "generated",
          "div": "<div xmlns=\"http://www.w3.org/1999/xhtml\"><table class=\"hl7__eu__lab__report\"><tr><th>Test</th><th>30-Nov-2024</th><th>Reference&#xA0;Range</th><th>Unit</th></tr><tr><td>Sodium [Moles/volume] in Blood</td><td>142.2</td><td>135 - 145</td><td></td><td>mmol/L</td></tr></table></div>"
        },
        "status": "final",
        "subject": {
          "reference": "urn:uuid:7d0e0986-9d49-4fbe-a207-c33a4dbc78c1",
          "display": "Helene Andresen"
        },
        "effectiveDateTime": "2024-11-30T22:53:36Z",
        "specimen": {
          "reference": "urn:uuid:264a26df-aeea-41a7-a0e3-af5f86f93d8d"
        }
      }
    },
    {
      "fullUrl": "urn:uuid:726187d2-34e8-47e0-b9c4-11ae75ff644c",
      "resource": {
        "resourceType": "Observation",
        "id": "726187d2-34e8-47e0-b9c4-11ae75ff644c",
        "meta": {
          "profile": [
            "http://hl7.eu/fhir/laboratory/StructureDefinition/Observation-resultslab-eu-lab"
          ]
        },
        "performer": [
          {
            "display": "The Central European Lab"
          }
        ],
        "category": [
          {
            "coding": [
              {
                "system": "http://terminology.hl7.org/CodeSystem/observation-category",
                "code": "laboratory"
              }
            ]
          }
        ],
        "code": {
          "coding": [
            {
              "code": "6298-4",
              "system": "http://loinc.org",
              "display": "Potassium [Moles/volume] in Blood"
            }
          ],
          "text": "Potassium [Moles/volume] in Blood"
        },
        "valueQuantity": {
          "system": "http://unitsofmeasure.org",
          "value": 5,
          "unit": "mmol/L",
          "code": "mmol/L"
        },
        "referenceRange": [
          {
            "low": {
              "value": 3.5,
              "code": "mmol/L",
              "system": "http://unitsofmeasure.org"
            }
          },
          {
            "high": {
              "value": 5.3,
              "code": "mmol/L",
              "system": "http://unitsofmeasure.org"
            }
          }
        ],
        "text": {
          "status": "generated",
          "div": "<div xmlns=\"http://www.w3.org/1999/xhtml\"><table class=\"hl7__eu__lab__report\"><tr><th>Test</th><th>30-Nov-2024</th><th>Reference&#xA0;Range</th><th>Unit</th></tr><tr><td>Potassium [Moles/volume] in Blood</td><td>5.0</td><td>3.5 - 5.3</td><td></td><td>mmol/L</td></tr></table></div>"
        },
        "status": "final",
        "subject": {
          "reference": "urn:uuid:7d0e0986-9d49-4fbe-a207-c33a4dbc78c1",
          "display": "Helene Andresen"
        },
        "effectiveDateTime": "2024-11-30T22:53:36Z",
        "specimen": {
          "reference": "urn:uuid:264a26df-aeea-41a7-a0e3-af5f86f93d8d"
        }
      }
    },
    {
      "fullUrl": "urn:uuid:1a07b9ed-3853-4482-a220-e3b92caca50f",
      "resource": {
        "resourceType": "Observation",
        "id": "1a07b9ed-3853-4482-a220-e3b92caca50f",
        "meta": {
          "profile": [
            "http://hl7.eu/fhir/laboratory/StructureDefinition/Observation-resultslab-eu-lab"
          ]
        },
        "performer": [
          {
            "display": "The Central European Lab"
          }
        ],
        "category": [
          {
            "coding": [
              {
                "system": "http://terminology.hl7.org/CodeSystem/observation-category",
                "code": "laboratory"
              }
            ]
          }
        ],
        "code": {
          "coding": [
            {
              "code": "2069-3",
              "system": "http://loinc.org",
              "display": "Chloride [Moles/volume] in Blood"
            }
          ],
          "text": "Chloride [Moles/volume] in Blood"
        },
        "valueQuantity": {
          "system": "http://unitsofmeasure.org",
          "value": 106.8,
          "unit": "mmol/L",
          "code": "mmol/L"
        },
        "referenceRange": [
          {
            "low": {
              "value": 98,
              "code": "mmol/L",
              "system": "http://unitsofmeasure.org"
            }
          },
          {
            "high": {
              "value": 108,
              "code": "mmol/L",
              "system": "http://unitsofmeasure.org"
            }
          }
        ],
        "text": {
          "status": "generated",
          "div": "<div xmlns=\"http://www.w3.org/1999/xhtml\"><table class=\"hl7__eu__lab__report\"><tr><th>Test</th><th>30-Nov-2024</th><th>Reference&#xA0;Range</th><th>Unit</th></tr><tr><td>Chloride [Moles/volume] in Blood</td><td>106.8</td><td>98 - 108</td><td></td><td>mmol/L</td></tr></table></div>"
        },
        "status": "final",
        "subject": {
          "reference": "urn:uuid:7d0e0986-9d49-4fbe-a207-c33a4dbc78c1",
          "display": "Helene Andresen"
        },
        "effectiveDateTime": "2024-11-30T22:53:36Z",
        "specimen": {
          "reference": "urn:uuid:264a26df-aeea-41a7-a0e3-af5f86f93d8d"
        }
      }
    },
    {
      "fullUrl": "urn:uuid:93958954-1fcd-488c-980f-dfa14f820750",
      "resource": {
        "resourceType": "Observation",
        "id": "93958954-1fcd-488c-980f-dfa14f820750",
        "meta": {
          "profile": [
            "http://hl7.eu/fhir/laboratory/StructureDefinition/Observation-resultslab-eu-lab"
          ]
        },
        "performer": [
          {
            "display": "The Central European Lab"
          }
        ],
        "category": [
          {
            "coding": [
              {
                "system": "http://terminology.hl7.org/CodeSystem/observation-category",
                "code": "laboratory"
              }
            ]
          }
        ],
        "code": {
          "coding": [
            {
              "code": "20565-8",
              "system": "http://loinc.org",
              "display": "Carbon dioxide, total [Moles/volume] in Blood"
            }
          ],
          "text": "Carbon dioxide, total [Moles/volume] in Blood"
        },
        "valueQuantity": {
          "system": "http://unitsofmeasure.org",
          "value": 20.6,
          "unit": "mmol/L",
          "code": "mmol/L"
        },
        "referenceRange": [
          {
            "low": {
              "value": 22,
              "code": "mmol/L",
              "system": "http://unitsofmeasure.org"
            }
          },
          {
            "high": {
              "value": 32,
              "code": "mmol/L",
              "system": "http://unitsofmeasure.org"
            }
          }
        ],
        "interpretation": [
          {
            "coding": [
              {
                "code": "L",
                "system": "http://terminology.hl7.org/CodeSystem/v3-ObservationInterpretation",
                "display": "Low"
              }
            ]
          }
        ],
        "text": {
          "status": "generated",
          "div": "<div xmlns=\"http://www.w3.org/1999/xhtml\"><table class=\"hl7__eu__lab__report\"><tr><th>Test</th><th>30-Nov-2024</th><th>Reference&#xA0;Range</th><th>Unit</th></tr><tr><td>Carbon dioxide, total [Moles/volume] in Blood</td><td>20.6</td><td>22 - 32</td><td>L</td><td>mmol/L</td></tr></table></div>"
        },
        "status": "final",
        "subject": {
          "reference": "urn:uuid:7d0e0986-9d49-4fbe-a207-c33a4dbc78c1",
          "display": "Helene Andresen"
        },
        "effectiveDateTime": "2024-11-30T22:53:36Z",
        "specimen": {
          "reference": "urn:uuid:264a26df-aeea-41a7-a0e3-af5f86f93d8d"
        }
      }
    },
    {
      "fullUrl": "urn:uuid:a0b6d367-8045-4c1c-93cd-1c4283873b3f",
      "resource": {
        "resourceType": "Observation",
        "id": "a0b6d367-8045-4c1c-93cd-1c4283873b3f",
        "meta": {
          "profile": [
            "http://hl7.eu/fhir/laboratory/StructureDefinition/Observation-resultslab-eu-lab"
          ]
        },
        "performer": [
          {
            "display": "The Central European Lab"
          }
        ],
        "category": [
          {
            "coding": [
              {
                "system": "http://terminology.hl7.org/CodeSystem/observation-category",
                "code": "laboratory"
              }
            ]
          }
        ],
        "code": {
          "coding": [
            {
              "code": "2885-2",
              "system": "http://loinc.org",
              "display": "Protein [Mass/volume] in Serum or Plasma"
            }
          ],
          "text": "Protein [Mass/volume] in Serum or Plasma"
        },
        "valueQuantity": {
          "system": "http://unitsofmeasure.org",
          "value": 6.7,
          "unit": "g/dL",
          "code": "g/dL"
        },
        "referenceRange": [
          {
            "low": {
              "value": 6.6,
              "code": "g/dL",
              "system": "http://unitsofmeasure.org"
            }
          },
          {
            "high": {
              "value": 8.3,
              "code": "g/dL",
              "system": "http://unitsofmeasure.org"
            }
          }
        ],
        "text": {
          "status": "generated",
          "div": "<div xmlns=\"http://www.w3.org/1999/xhtml\"><table class=\"hl7__eu__lab__report\"><tr><th>Test</th><th>30-Nov-2024</th><th>Reference&#xA0;Range</th><th>Unit</th></tr><tr><td>Protein [Mass/volume] in Serum or Plasma</td><td>6.7</td><td>6.6 - 8.3</td><td></td><td>g/dL</td></tr></table></div>"
        },
        "status": "final",
        "subject": {
          "reference": "urn:uuid:7d0e0986-9d49-4fbe-a207-c33a4dbc78c1",
          "display": "Helene Andresen"
        },
        "effectiveDateTime": "2024-11-30T22:53:36Z",
        "specimen": {
          "reference": "urn:uuid:7ae3ba25-b214-4c49-85a7-2bc18dd10e3e"
        }
      }
    },
    {
      "fullUrl": "urn:uuid:becf874b-3c80-4996-8de5-2ac3b133426b",
      "resource": {
        "resourceType": "Observation",
        "id": "becf874b-3c80-4996-8de5-2ac3b133426b",
        "meta": {
          "profile": [
            "http://hl7.eu/fhir/laboratory/StructureDefinition/Observation-resultslab-eu-lab"
          ]
        },
        "performer": [
          {
            "display": "The Central European Lab"
          }
        ],
        "category": [
          {
            "coding": [
              {
                "system": "http://terminology.hl7.org/CodeSystem/observation-category",
                "code": "laboratory"
              }
            ]
          }
        ],
        "code": {
          "coding": [
            {
              "code": "1751-7",
              "system": "http://loinc.org",
              "display": "Albumin [Mass/volume] in Serum or Plasma"
            }
          ],
          "text": "Albumin [Mass/volume] in Serum or Plasma"
        },
        "valueQuantity": {
          "system": "http://unitsofmeasure.org",
          "value": 4,
          "unit": "g/dL",
          "code": "g/dL"
        },
        "referenceRange": [
          {
            "low": {
              "value": 3.5,
              "code": "g/dL",
              "system": "http://unitsofmeasure.org"
            }
          },
          {
            "high": {
              "value": 5.5,
              "code": "g/dL",
              "system": "http://unitsofmeasure.org"
            }
          }
        ],
        "text": {
          "status": "generated",
          "div": "<div xmlns=\"http://www.w3.org/1999/xhtml\"><table class=\"hl7__eu__lab__report\"><tr><th>Test</th><th>30-Nov-2024</th><th>Reference&#xA0;Range</th><th>Unit</th></tr><tr><td>Albumin [Mass/volume] in Serum or Plasma</td><td>4.0</td><td>3.5 - 5.5</td><td></td><td>g/dL</td></tr></table></div>"
        },
        "status": "final",
        "subject": {
          "reference": "urn:uuid:7d0e0986-9d49-4fbe-a207-c33a4dbc78c1",
          "display": "Helene Andresen"
        },
        "effectiveDateTime": "2024-11-30T22:53:36Z",
        "specimen": {
          "reference": "urn:uuid:7ae3ba25-b214-4c49-85a7-2bc18dd10e3e"
        }
      }
    },
    {
      "fullUrl": "urn:uuid:343e1add-0689-4b81-b757-d1190b8976bc",
      "resource": {
        "resourceType": "Observation",
        "id": "343e1add-0689-4b81-b757-d1190b8976bc",
        "meta": {
          "profile": [
            "http://hl7.eu/fhir/laboratory/StructureDefinition/Observation-resultslab-eu-lab"
          ]
        },
        "performer": [
          {
            "display": "The Central European Lab"
          }
        ],
        "category": [
          {
            "coding": [
              {
                "system": "http://terminology.hl7.org/CodeSystem/observation-category",
                "code": "laboratory"
              }
            ]
          }
        ],
        "code": {
          "coding": [
            {
              "code": "10834-0",
              "system": "http://loinc.org",
              "display": "Globulin [Mass/volume] in Serum by calculation"
            }
          ],
          "text": "Globulin [Mass/volume] in Serum by calculation"
        },
        "valueQuantity": {
          "system": "http://unitsofmeasure.org",
          "value": 2.2,
          "unit": "g/L",
          "code": "g/L"
        },
        "referenceRange": [
          {
            "low": {
              "value": 2.2,
              "code": "g/L",
              "system": "http://unitsofmeasure.org"
            }
          },
          {
            "high": {
              "value": 3.7,
              "code": "g/L",
              "system": "http://unitsofmeasure.org"
            }
          }
        ],
        "text": {
          "status": "generated",
          "div": "<div xmlns=\"http://www.w3.org/1999/xhtml\"><table class=\"hl7__eu__lab__report\"><tr><th>Test</th><th>30-Nov-2024</th><th>Reference&#xA0;Range</th><th>Unit</th></tr><tr><td>Globulin [Mass/volume] in Serum by calculation</td><td>2.2</td><td>2.2 - 3.7</td><td></td><td>g/L</td></tr></table></div>"
        },
        "status": "final",
        "subject": {
          "reference": "urn:uuid:7d0e0986-9d49-4fbe-a207-c33a4dbc78c1",
          "display": "Helene Andresen"
        },
        "effectiveDateTime": "2024-11-30T22:53:36Z",
        "specimen": {
          "reference": "urn:uuid:f22747b4-0f12-41af-8cc2-ee062a70aad3"
        }
      }
    },
    {
      "fullUrl": "urn:uuid:a614ea79-9541-47e8-842e-2ea1f17ad819",
      "resource": {
        "resourceType": "Observation",
        "id": "a614ea79-9541-47e8-842e-2ea1f17ad819",
        "meta": {
          "profile": [
            "http://hl7.eu/fhir/laboratory/StructureDefinition/Observation-resultslab-eu-lab"
          ]
        },
        "performer": [
          {
            "display": "The Central European Lab"
          }
        ],
        "category": [
          {
            "coding": [
              {
                "system": "http://terminology.hl7.org/CodeSystem/observation-category",
                "code": "laboratory"
              }
            ]
          }
        ],
        "code": {
          "coding": [
            {
              "code": "1975-2",
              "system": "http://loinc.org",
              "display": "Bilirubin.total [Mass/volume] in Serum or Plasma"
            }
          ],
          "text": "Bilirubin.total [Mass/volume] in Serum or Plasma"
        },
        "valueQuantity": {
          "system": "http://unitsofmeasure.org",
          "value": 0.3,
          "unit": "mg/dL",
          "code": "mg/dL"
        },
        "referenceRange": [
          {
            "low": {
              "value": 0.3,
              "code": "mg/dL",
              "system": "http://unitsofmeasure.org"
            }
          },
          {
            "high": {
              "value": 1.2,
              "code": "mg/dL",
              "system": "http://unitsofmeasure.org"
            }
          }
        ],
        "text": {
          "status": "generated",
          "div": "<div xmlns=\"http://www.w3.org/1999/xhtml\"><table class=\"hl7__eu__lab__report\"><tr><th>Test</th><th>30-Nov-2024</th><th>Reference&#xA0;Range</th><th>Unit</th></tr><tr><td>Bilirubin.total [Mass/volume] in Serum or Plasma</td><td>0.3</td><td>0.3 - 1.2</td><td></td><td>mg/dL</td></tr></table></div>"
        },
        "status": "final",
        "subject": {
          "reference": "urn:uuid:7d0e0986-9d49-4fbe-a207-c33a4dbc78c1",
          "display": "Helene Andresen"
        },
        "effectiveDateTime": "2024-11-30T22:53:36Z",
        "specimen": {
          "reference": "urn:uuid:7ae3ba25-b214-4c49-85a7-2bc18dd10e3e"
        }
      }
    },
    {
      "fullUrl": "urn:uuid:b7687395-d1ba-416e-8dbf-49fef14148ae",
      "resource": {
        "resourceType": "Observation",
        "id": "b7687395-d1ba-416e-8dbf-49fef14148ae",
        "meta": {
          "profile": [
            "http://hl7.eu/fhir/laboratory/StructureDefinition/Observation-resultslab-eu-lab"
          ]
        },
        "performer": [
          {
            "display": "The Central European Lab"
          }
        ],
        "category": [
          {
            "coding": [
              {
                "system": "http://terminology.hl7.org/CodeSystem/observation-category",
                "code": "laboratory"
              }
            ]
          }
        ],
        "code": {
          "coding": [
            {
              "code": "6768-6",
              "system": "http://loinc.org",
              "display": "Alkaline phosphatase [Enzymatic activity/volume] in Serum or Plasma"
            }
          ],
          "text": "Alkaline phosphatase [Enzymatic activity/volume] in Serum or Plasma"
        },
        "valueQuantity": {
          "system": "http://unitsofmeasure.org",
          "value": 44.6,
          "unit": "U/L",
          "code": "U/L"
        },
        "referenceRange": [
          {
            "low": {
              "value": 40,
              "code": "U/L",
              "system": "http://unitsofmeasure.org"
            }
          },
          {
            "high": {
              "value": 130,
              "code": "U/L",
              "system": "http://unitsofmeasure.org"
            }
          }
        ],
        "text": {
          "status": "generated",
          "div": "<div xmlns=\"http://www.w3.org/1999/xhtml\"><table class=\"hl7__eu__lab__report\"><tr><th>Test</th><th>30-Nov-2024</th><th>Reference&#xA0;Range</th><th>Unit</th></tr><tr><td>Alkaline phosphatase [Enzymatic activity/volume] in Serum or Plasma</td><td>44.6</td><td>40 - 130</td><td></td><td>U/L</td></tr></table></div>"
        },
        "status": "final",
        "subject": {
          "reference": "urn:uuid:7d0e0986-9d49-4fbe-a207-c33a4dbc78c1",
          "display": "Helene Andresen"
        },
        "effectiveDateTime": "2024-11-30T22:53:36Z",
        "specimen": {
          "reference": "urn:uuid:7ae3ba25-b214-4c49-85a7-2bc18dd10e3e"
        }
      }
    },
    {
      "fullUrl": "urn:uuid:fe887660-8f64-4eab-9bc3-9642db0b8a95",
      "resource": {
        "resourceType": "Observation",
        "id": "fe887660-8f64-4eab-9bc3-9642db0b8a95",
        "meta": {
          "profile": [
            "http://hl7.eu/fhir/laboratory/StructureDefinition/Observation-resultslab-eu-lab"
          ]
        },
        "performer": [
          {
            "display": "The Central European Lab"
          }
        ],
        "category": [
          {
            "coding": [
              {
                "system": "http://terminology.hl7.org/CodeSystem/observation-category",
                "code": "laboratory"
              }
            ]
          }
        ],
        "code": {
          "coding": [
            {
              "code": "1742-6",
              "system": "http://loinc.org",
              "display": "Alanine aminotransferase [Enzymatic activity/volume] in Serum or Plasma"
            }
          ],
          "text": "Alanine aminotransferase [Enzymatic activity/volume] in Serum or Plasma"
        },
        "valueQuantity": {
          "system": "http://unitsofmeasure.org",
          "value": 43.4,
          "unit": "U/L",
          "code": "U/L"
        },
        "referenceRange": [
          {
            "low": {
              "value": 7,
              "code": "U/L",
              "system": "http://unitsofmeasure.org"
            }
          },
          {
            "high": {
              "value": 55,
              "code": "U/L",
              "system": "http://unitsofmeasure.org"
            }
          }
        ],
        "text": {
          "status": "generated",
          "div": "<div xmlns=\"http://www.w3.org/1999/xhtml\"><table class=\"hl7__eu__lab__report\"><tr><th>Test</th><th>30-Nov-2024</th><th>Reference&#xA0;Range</th><th>Unit</th></tr><tr><td>Alanine aminotransferase [Enzymatic activity/volume] in Serum or Plasma</td><td>43.4</td><td>7 - 55</td><td></td><td>U/L</td></tr></table></div>"
        },
        "status": "final",
        "subject": {
          "reference": "urn:uuid:7d0e0986-9d49-4fbe-a207-c33a4dbc78c1",
          "display": "Helene Andresen"
        },
        "effectiveDateTime": "2024-11-30T22:53:36Z",
        "specimen": {
          "reference": "urn:uuid:7ae3ba25-b214-4c49-85a7-2bc18dd10e3e"
        }
      }
    },
    {
      "fullUrl": "urn:uuid:5f3c07f9-4b7f-4e10-804e-dd26c77588cb",
      "resource": {
        "resourceType": "Observation",
        "id": "5f3c07f9-4b7f-4e10-804e-dd26c77588cb",
        "meta": {
          "profile": [
            "http://hl7.eu/fhir/laboratory/StructureDefinition/Observation-resultslab-eu-lab"
          ]
        },
        "performer": [
          {
            "display": "The Central European Lab"
          }
        ],
        "category": [
          {
            "coding": [
              {
                "system": "http://terminology.hl7.org/CodeSystem/observation-category",
                "code": "laboratory"
              }
            ]
          }
        ],
        "code": {
          "coding": [
            {
              "code": "1920-8",
              "system": "http://loinc.org",
              "display": "Aspartate aminotransferase [Enzymatic activity/volume] in Serum or Plasma"
            }
          ],
          "text": "Aspartate aminotransferase [Enzymatic activity/volume] in Serum or Plasma"
        },
        "valueQuantity": {
          "system": "http://unitsofmeasure.org",
          "value": 15.6,
          "unit": "U/L",
          "code": "U/L"
        },
        "referenceRange": [
          {
            "low": {
              "value": 10,
              "code": "U/L",
              "system": "http://unitsofmeasure.org"
            }
          },
          {
            "high": {
              "value": 40,
              "code": "U/L",
              "system": "http://unitsofmeasure.org"
            }
          }
        ],
        "text": {
          "status": "generated",
          "div": "<div xmlns=\"http://www.w3.org/1999/xhtml\"><table class=\"hl7__eu__lab__report\"><tr><th>Test</th><th>30-Nov-2024</th><th>Reference&#xA0;Range</th><th>Unit</th></tr><tr><td>Aspartate aminotransferase [Enzymatic activity/volume] in Serum or Plasma</td><td>15.6</td><td>10 - 40</td><td></td><td>U/L</td></tr></table></div>"
        },
        "status": "final",
        "subject": {
          "reference": "urn:uuid:7d0e0986-9d49-4fbe-a207-c33a4dbc78c1",
          "display": "Helene Andresen"
        },
        "effectiveDateTime": "2024-11-30T22:53:36Z",
        "specimen": {
          "reference": "urn:uuid:7ae3ba25-b214-4c49-85a7-2bc18dd10e3e"
        }
      }
    },
    {
      "fullUrl": "urn:uuid:800aeb88-f1bb-4b29-960c-a6966210bb74",
      "resource": {
        "resourceType": "Observation",
        "id": "800aeb88-f1bb-4b29-960c-a6966210bb74",
        "meta": {
          "profile": [
            "http://hl7.eu/fhir/laboratory/StructureDefinition/Observation-resultslab-eu-lab"
          ]
        },
        "performer": [
          {
            "display": "The Central European Lab"
          }
        ],
        "category": [
          {
            "coding": [
              {
                "system": "http://terminology.hl7.org/CodeSystem/observation-category",
                "code": "laboratory"
              }
            ]
          }
        ],
        "code": {
          "coding": [
            {
              "code": "2093-3",
              "system": "http://loinc.org",
              "display": "Cholesterol [Mass/volume] in Serum or Plasma"
            }
          ],
          "text": "Cholesterol [Mass/volume] in Serum or Plasma"
        },
        "valueQuantity": {
          "system": "http://unitsofmeasure.org",
          "value": 204.8,
          "unit": "mg/dL",
          "code": "mg/dL"
        },
        "referenceRange": [
          {
            "low": {
              "value": 125,
              "code": "mg/dL",
              "system": "http://unitsofmeasure.org"
            }
          },
          {
            "high": {
              "value": 200,
              "code": "mg/dL",
              "system": "http://unitsofmeasure.org"
            }
          }
        ],
        "interpretation": [
          {
            "coding": [
              {
                "code": "H",
                "system": "http://terminology.hl7.org/CodeSystem/v3-ObservationInterpretation",
                "display": "High"
              }
            ]
          }
        ],
        "text": {
          "status": "generated",
          "div": "<div xmlns=\"http://www.w3.org/1999/xhtml\"><table class=\"hl7__eu__lab__report\"><tr><th>Test</th><th>30-Nov-2024</th><th>Reference&#xA0;Range</th><th>Unit</th></tr><tr><td>Cholesterol [Mass/volume] in Serum or Plasma</td><td>204.8</td><td>125 - 200</td><td>H</td><td>mg/dL</td></tr></table></div>"
        },
        "status": "final",
        "subject": {
          "reference": "urn:uuid:7d0e0986-9d49-4fbe-a207-c33a4dbc78c1",
          "display": "Helene Andresen"
        },
        "effectiveDateTime": "2024-11-30T22:53:36Z",
        "specimen": {
          "reference": "urn:uuid:7ae3ba25-b214-4c49-85a7-2bc18dd10e3e"
        }
      }
    },
    {
      "fullUrl": "urn:uuid:fb67af05-8f48-4969-83a3-beb3ba3b71df",
      "resource": {
        "resourceType": "Observation",
        "id": "fb67af05-8f48-4969-83a3-beb3ba3b71df",
        "meta": {
          "profile": [
            "http://hl7.eu/fhir/laboratory/StructureDefinition/Observation-resultslab-eu-lab"
          ]
        },
        "performer": [
          {
            "display": "The Central European Lab"
          }
        ],
        "category": [
          {
            "coding": [
              {
                "system": "http://terminology.hl7.org/CodeSystem/observation-category",
                "code": "laboratory"
              }
            ]
          }
        ],
        "code": {
          "coding": [
            {
              "code": "2571-8",
              "system": "http://loinc.org",
              "display": "Triglyceride [Mass/volume] in Serum or Plasma"
            }
          ],
          "text": "Triglyceride [Mass/volume] in Serum or Plasma"
        },
        "valueQuantity": {
          "system": "http://unitsofmeasure.org",
          "value": 151.8,
          "unit": "mg/dL",
          "code": "mg/dL"
        },
        "referenceRange": [
          {
            "low": {
              "value": 10,
              "code": "mg/dL",
              "system": "http://unitsofmeasure.org"
            }
          },
          {
            "high": {
              "value": 175,
              "code": "mg/dL",
              "system": "http://unitsofmeasure.org"
            }
          }
        ],
        "text": {
          "status": "generated",
          "div": "<div xmlns=\"http://www.w3.org/1999/xhtml\"><table class=\"hl7__eu__lab__report\"><tr><th>Test</th><th>30-Nov-2024</th><th>Reference&#xA0;Range</th><th>Unit</th></tr><tr><td>Triglyceride [Mass/volume] in Serum or Plasma</td><td>151.8</td><td>10 - 175</td><td></td><td>mg/dL</td></tr></table></div>"
        },
        "status": "final",
        "subject": {
          "reference": "urn:uuid:7d0e0986-9d49-4fbe-a207-c33a4dbc78c1",
          "display": "Helene Andresen"
        },
        "effectiveDateTime": "2024-11-30T22:53:36Z",
        "specimen": {
          "reference": "urn:uuid:7ae3ba25-b214-4c49-85a7-2bc18dd10e3e"
        }
      }
    },
    {
      "fullUrl": "urn:uuid:66534179-f055-4d42-823d-e12402b95b9b",
      "resource": {
        "resourceType": "Observation",
        "id": "66534179-f055-4d42-823d-e12402b95b9b",
        "meta": {
          "profile": [
            "http://hl7.eu/fhir/laboratory/StructureDefinition/Observation-resultslab-eu-lab"
          ]
        },
        "performer": [
          {
            "display": "The Central European Lab"
          }
        ],
        "category": [
          {
            "coding": [
              {
                "system": "http://terminology.hl7.org/CodeSystem/observation-category",
                "code": "laboratory"
              }
            ]
          }
        ],
        "code": {
          "coding": [
            {
              "code": "18262-6",
              "system": "http://loinc.org",
              "display": "Cholesterol in LDL [Mass/volume] in Serum or Plasma by Direct assay"
            }
          ],
          "text": "Cholesterol in LDL [Mass/volume] in Serum or Plasma by Direct assay"
        },
        "valueQuantity": {
          "system": "http://unitsofmeasure.org",
          "value": 100.8,
          "unit": "mg/dL",
          "code": "mg/dL"
        },
        "referenceRange": [
          {
            "low": {
              "value": 0,
              "code": "mg/dL",
              "system": "http://unitsofmeasure.org"
            }
          },
          {
            "high": {
              "value": 130,
              "code": "mg/dL",
              "system": "http://unitsofmeasure.org"
            }
          }
        ],
        "text": {
          "status": "generated",
          "div": "<div xmlns=\"http://www.w3.org/1999/xhtml\"><table class=\"hl7__eu__lab__report\"><tr><th>Test</th><th>30-Nov-2024</th><th>Reference&#xA0;Range</th><th>Unit</th></tr><tr><td>Cholesterol in LDL [Mass/volume] in Serum or Plasma by Direct assay</td><td>100.8</td><td>0 - 130</td><td></td><td>mg/dL</td></tr></table></div>"
        },
        "status": "final",
        "subject": {
          "reference": "urn:uuid:7d0e0986-9d49-4fbe-a207-c33a4dbc78c1",
          "display": "Helene Andresen"
        },
        "effectiveDateTime": "2024-11-30T22:53:36Z",
        "specimen": {
          "reference": "urn:uuid:7ae3ba25-b214-4c49-85a7-2bc18dd10e3e"
        }
      }
    },
    {
      "fullUrl": "urn:uuid:25d67ea5-939d-4b33-989e-45fe640a3aff",
      "resource": {
        "resourceType": "Observation",
        "id": "25d67ea5-939d-4b33-989e-45fe640a3aff",
        "meta": {
          "profile": [
            "http://hl7.eu/fhir/laboratory/StructureDefinition/Observation-resultslab-eu-lab"
          ]
        },
        "performer": [
          {
            "display": "The Central European Lab"
          }
        ],
        "category": [
          {
            "coding": [
              {
                "system": "http://terminology.hl7.org/CodeSystem/observation-category",
                "code": "laboratory"
              }
            ]
          }
        ],
        "code": {
          "coding": [
            {
              "code": "2085-9",
              "system": "http://loinc.org",
              "display": "Cholesterol in HDL [Mass/volume] in Serum or Plasma"
            }
          ],
          "text": "Cholesterol in HDL [Mass/volume] in Serum or Plasma"
        },
        "valueQuantity": {
          "system": "http://unitsofmeasure.org",
          "value": 32.2,
          "unit": "mg/dL",
          "code": "mg/dL"
        },
        "referenceRange": [
          {
            "low": {
              "value": 50,
              "code": "mg/dL",
              "system": "http://unitsofmeasure.org"
            }
          },
          {
            "high": {
              "value": 100,
              "code": "mg/dL",
              "system": "http://unitsofmeasure.org"
            }
          }
        ],
        "interpretation": [
          {
            "coding": [
              {
                "code": "L",
                "system": "http://terminology.hl7.org/CodeSystem/v3-ObservationInterpretation",
                "display": "Low"
              }
            ]
          }
        ],
        "text": {
          "status": "generated",
          "div": "<div xmlns=\"http://www.w3.org/1999/xhtml\"><table class=\"hl7__eu__lab__report\"><tr><th>Test</th><th>30-Nov-2024</th><th>Reference&#xA0;Range</th><th>Unit</th></tr><tr><td>Cholesterol in HDL [Mass/volume] in Serum or Plasma</td><td>32.2</td><td>50 - 100</td><td>L</td><td>mg/dL</td></tr></table></div>"
        },
        "status": "final",
        "subject": {
          "reference": "urn:uuid:7d0e0986-9d49-4fbe-a207-c33a4dbc78c1",
          "display": "Helene Andresen"
        },
        "effectiveDateTime": "2024-11-30T22:53:36Z",
        "specimen": {
          "reference": "urn:uuid:7ae3ba25-b214-4c49-85a7-2bc18dd10e3e"
        }
      }
    },
    {
      "fullUrl": "urn:uuid:b787fa35-6968-4e2b-a76f-9c6c2e1fac08",
      "resource": {
        "resourceType": "Device",
        "id": "b787fa35-6968-4e2b-a76f-9c6c2e1fac08",
        "deviceName": [
          {
            "name": "SYNDERAI Synthetic Generator",
            "type": "manufacturer-name"
          }
        ],
        "version": [
          {
            "value": "5.0"
          }
        ],
        "text": {
          "status": "generated",
          "div": "<div xmlns=\"http://www.w3.org/1999/xhtml\">SYNDERAI Synthetic Generator v5.0</div>"
        },
        "status": "active\"",
        "distinctIdentifier": "synderai-generator-50",
        "manufacturer": "SYNDERAI Project"
      }
    },
    {
      "fullUrl": "urn:uuid:f8357989-b129-4c23-9e2b-3206eaf08807",
      "resource": {
        "resourceType": "Provenance",
        "id": "f8357989-b129-4c23-9e2b-3206eaf08807",
        "target": [
          {
            "reference": "Patient/7d0e0986-9d49-4fbe-a207-c33a4dbc78c1"
          },
          {
            "reference": "Bundle/bfd414e5-1f35-4a85-bf03-2290a161b7b1"
          },
          {
            "reference": "Composition/ddc2a0fa-a80a-4f76-82e1-2b8afc457f8b"
          },
          {
            "reference": "PractitionerRole/329435a1-3ad8-4869-a0a2-f8a9910370a7"
          },
          {
            "reference": "Practitioner/ee6c9232-e5c8-47e7-beeb-be56152ea708"
          },
          {
            "reference": "PractitionerRole/9ea2e422-e1af-49f3-ac63-5f56ed05be19"
          },
          {
            "reference": "Organization/49553488-37b5-4e84-87e4-29a7db985863"
          }
        ],
        "activity": {
          "text": "Synthetic Example Data Generation"
        },
        "policy": [
          "https://synderai.net/synderai-synthetic-data-policy"
        ],
        "agent": [
          {
            "type": {
              "text": "author"
            },
            "who": {
              "reference": "Device/b787fa35-6968-4e2b-a76f-9c6c2e1fac08"
            }
          }
        ],
        "reason": [
          {
            "text": "Interoperability Testing and Training (non-clinical use)"
          }
        ],
        "text": {
          "status": "generated",
          "div": "<div xmlns=\"http://www.w3.org/1999/xhtml\">Provenance for SYNDERAI Synthetic Example Data Resource</div>"
        },
        "recorded": "2024-11-30T23:53:36Z"
      }
    },
    {
      "fullUrl": "urn:uuid:329435a1-3ad8-4869-a0a2-f8a9910370a7",
      "resource": {
        "resourceType": "PractitionerRole",
        "id": "329435a1-3ad8-4869-a0a2-f8a9910370a7",
        "meta": {
          "profile": [
            "http://hl7.eu/fhir/base/StructureDefinition/practitionerRole-eu"
          ]
        },
        "text": {
          "status": "generated",
          "div": "<div xmlns=\"http://www.w3.org/1999/xhtml\">Laboratory Role Id: 329435a1-3ad8-4869-a0a2-f8a9910370a7</div>"
        },
        "practitioner": {
          "reference": "urn:uuid:ee6c9232-e5c8-47e7-beeb-be56152ea708"
        }
      }
    },
    {
      "fullUrl": "urn:uuid:ee6c9232-e5c8-47e7-beeb-be56152ea708",
      "resource": {
        "resourceType": "Practitioner",
        "id": "ee6c9232-e5c8-47e7-beeb-be56152ea708",
        "meta": {
          "profile": [
            "http://hl7.eu/fhir/base/StructureDefinition/practitioner-eu"
          ]
        },
        "identifier": [
          {
            "assigner": {
              "display": "HL7 Europe"
            },
            "system": "urn:oid:2.16.840.1.113883.2.51.999",
            "value": "2a10619f-5875-4341-a6e9-da8cb070651b"
          }
        ],
        "name": [
          {
            "prefix": [
              "dr"
            ],
            "given": [
              "Ex"
            ],
            "family": "Ample"
          }
        ],
        "address": [
          {
            "line": [
              "Laboratoire Central Européenne",
              "Boulevard du Jardin Botanique 32"
            ],
            "postalCode": "1000",
            "city": "Brussels",
            "country": "Belgium"
          }
        ],
        "text": {
          "status": "generated",
          "div": "<div xmlns=\"http://www.w3.org/1999/xhtml\">Laboratory: Laboratoire Central Européenne, 1000 Brussels, Belgium</div>"
        }
      }
    }
  ],
  "type": "document",
  "timestamp": "2024-11-30T23:53:36Z"
}
