{
  "resourceType": "Bundle",
  "id": "4304bd2a-62e7-4852-b8e0-877854f68a87",
  "meta": {
    "profile": [
      "http://hl7.eu/fhir/laboratory/StructureDefinition/Bundle-eu-lab"
    ]
  },
  "identifier": {
    "assigner": {
      "display": "HL7 Europe"
    },
    "system": "urn:oid:2.16.840.1.113883.2.51.999",
    "value": "b4c0d419-fce6-4824-bc3e-e5b89324d305"
  },
  "entry": [
    {
      "fullUrl": "urn:uuid:5982f8fb-2782-4b73-8559-82e880195b7c",
      "resource": {
        "resourceType": "Composition",
        "id": "5982f8fb-2782-4b73-8559-82e880195b7c",
        "meta": {
          "profile": [
            "http://hl7.eu/fhir/laboratory/StructureDefinition/Composition-eu-lab"
          ]
        },
        "identifier": {
          "assigner": {
            "display": "HL7 Europe"
          },
          "system": "urn:oid:2.16.840.1.113883.2.51.999",
          "value": "f5bb8e85-a62e-42b9-9d5f-3789c7af7e46"
        },
        "author": [
          {
            "reference": "urn:uuid:d5e2a246-720f-4867-8b34-bfac3a725bd3"
          }
        ],
        "category": [
          {
            "coding": [
              {
                "code": "26436-6",
                "system": "http://loinc.org",
                "display": "Laboratory studies (set)"
              }
            ]
          }
        ],
        "type": {
          "coding": [
            {
              "code": "11502-2",
              "system": "http://loinc.org",
              "display": "Laboratory report"
            }
          ],
          "text": "Laboratory Report"
        },
        "section": [
          {
            "code": {
              "coding": [
                {
                  "code": "26436-6",
                  "system": "http://loinc.org",
                  "display": "Laboratory studies (set)"
                }
              ],
              "text": "Laboratory studies"
            },
            "section": [
              {
                "code": {
                  "coding": [
                    {
                      "code": "$18719-5",
                      "system": "http://loinc.org",
                      "display": "Chemistry studies (set)"
                    }
                  ],
                  "text": "Chemistry"
                },
                "entry": [
                  {
                    "reference": "urn:uuid:cda5e999-67a4-4431-93b4-b414226d8359"
                  },
                  {
                    "reference": "urn:uuid:8d792b02-d2d4-4164-aae2-627a2cde783c"
                  },
                  {
                    "reference": "urn:uuid:79a289fd-bf25-4a1a-a84a-fc87bcfc9d0a"
                  },
                  {
                    "reference": "urn:uuid:e77f5251-efcc-4877-afbb-03df6043addb"
                  },
                  {
                    "reference": "urn:uuid:21512dfe-d8c3-400f-a535-032ea996c62c"
                  },
                  {
                    "reference": "urn:uuid:c03d392d-85fb-40d9-b762-43cbfd37efae"
                  },
                  {
                    "reference": "urn:uuid:93565588-86f9-4966-8fb1-2ac6817b6a44"
                  },
                  {
                    "reference": "urn:uuid:89a6d1e1-2c50-473f-915d-39e30acd9d20"
                  },
                  {
                    "reference": "urn:uuid:8214e6a7-5d64-4654-9638-2e28e34e47e1"
                  },
                  {
                    "reference": "urn:uuid:ad92be5e-b152-4530-b395-a54a4ce545d7"
                  },
                  {
                    "reference": "urn:uuid:a90dbbb1-0c09-4346-9927-9014595aad52"
                  },
                  {
                    "reference": "urn:uuid:08d8ee0d-b08e-41e8-9831-19c00a05bda2"
                  },
                  {
                    "reference": "urn:uuid:7f3584bc-6202-471e-b20a-f4d1c5251ee1"
                  },
                  {
                    "reference": "urn:uuid:c184f5d7-afae-46b9-a163-5c6a1c745b7c"
                  },
                  {
                    "reference": "urn:uuid:48417fb1-0099-4d2f-9006-3442eef4e007"
                  },
                  {
                    "reference": "urn:uuid:0b232f89-7e12-41f3-9360-86fce986e12a"
                  },
                  {
                    "reference": "urn:uuid:9a8bf210-c652-476c-a3db-004ecc677c71"
                  },
                  {
                    "reference": "urn:uuid:7679ac5b-2dcc-4e0e-905e-41b0e7ecffa4"
                  }
                ],
                "text": {
                  "status": "generated",
                  "div": "<div xmlns=\"http://www.w3.org/1999/xhtml\"><h3>Chemistry</h3><table class=\"hl7__eu__lab__report\"><thead><tr><th>Test</th><th>02-APR-2021</th><th>Reference&#xA0;Range</th><th>Unit</th></tr></thead><tbody><tr><td>Glucose [Mass/volume] in Serum or Plasma</td><td>76.4</td><td>70 - 140</td><td>mg/dL</td></tr><tr><td>Urea nitrogen [Mass/volume] in Serum or Plasma</td><td>18.0</td><td>7 - 20</td><td>mg/dL</td></tr><tr><td>Creatinine [Mass/volume] in Serum or Plasma</td><td><strong>2.0 H</strong></td><td>0.9 - 1.3</td><td>mg/dL</td></tr><tr><td>Calcium [Mass/volume] in Serum or Plasma</td><td>9.3</td><td>8.5 - 10.5</td><td>mg/dL</td></tr><tr><td>Sodium [Moles/volume] in Serum or Plasma</td><td>141.1</td><td>135 - 145</td><td>mmol/L</td></tr><tr><td>Potassium [Moles/volume] in Serum or Plasma</td><td>4.8</td><td>3.5 - 5.3</td><td>mmol/L</td></tr><tr><td>Chloride [Moles/volume] in Serum or Plasma</td><td>106.9</td><td>98 - 107</td><td>mmol/L</td></tr><tr><td>Carbon dioxide, total [Moles/volume] in Serum or Plasma</td><td>28.2</td><td>22 - 33</td><td>mmol/L</td></tr><tr><td>Ketones [Presence] in Urine by Test strip</td><td>Urine ketone test = ++</td><td></td><td></td></tr><tr><td>Hemoglobin A1c/Hemoglobin.total in Blood</td><td><strong>3.2 L</strong></td><td>4.3 - 6</td><td>%</td></tr><tr><td>Glucose [Mass/volume] in Blood</td><td>76.4</td><td>70 - 140</td><td>mg/dL</td></tr><tr><td>Urea nitrogen [Mass/volume] in Blood</td><td>18.0</td><td>7 - 20</td><td>mg/dL</td></tr><tr><td>Creatinine [Mass/volume] in Blood</td><td><strong>2.8 H</strong></td><td>0.9 - 1.3</td><td>mg/dL</td></tr><tr><td>Calcium [Mass/volume] in Blood</td><td>9.3</td><td>8.5 - 10.5</td><td>mg/dL</td></tr><tr><td>Sodium [Moles/volume] in Blood</td><td>141.1</td><td>135 - 145</td><td>mmol/L</td></tr><tr><td>Potassium [Moles/volume] in Blood</td><td>4.8</td><td>3.5 - 5.1</td><td>mmol/L</td></tr><tr><td>Chloride [Moles/volume] in Blood</td><td>106.9</td><td>98 - 108</td><td>mmol/L</td></tr><tr><td>Carbon dioxide, total [Moles/volume] in Blood</td><td>28.2</td><td>22 - 29</td><td>mmol/L</td></tr></tbody></table></div>"
                },
                "title": "Chemistry"
              },
              {
                "code": {
                  "coding": [
                    {
                      "code": "$18729-4",
                      "system": "http://loinc.org",
                      "display": "Urinalysis studies (set)"
                    }
                  ],
                  "text": "Urinalysis"
                },
                "entry": [
                  {
                    "reference": "urn:uuid:55315bfd-5064-4251-8b6b-005d981eee5d"
                  },
                  {
                    "reference": "urn:uuid:e0ae3138-805d-4492-93bf-4f9b1bcbb81b"
                  },
                  {
                    "reference": "urn:uuid:3072a4cd-6c42-477c-8f8a-1e7fcf5b5bbe"
                  },
                  {
                    "reference": "urn:uuid:a93f5c46-32ef-4e66-bfe0-6aad91ddc4e9"
                  },
                  {
                    "reference": "urn:uuid:b74e9152-200c-4aaa-9bef-6e2b3cdef9d4"
                  },
                  {
                    "reference": "urn:uuid:99d6f9a6-0813-46cd-8856-8c9b5764b794"
                  },
                  {
                    "reference": "urn:uuid:a890180e-48be-4544-80fd-7e3ac6d85d13"
                  },
                  {
                    "reference": "urn:uuid:280a9044-5737-48b1-807b-a4261e871608"
                  },
                  {
                    "reference": "urn:uuid:a24993ac-5512-46c5-90b3-fd2aa5fea214"
                  },
                  {
                    "reference": "urn:uuid:714b5719-b38f-4243-83bd-0df845ae014d"
                  },
                  {
                    "reference": "urn:uuid:cc8a1b39-e92f-4520-b80b-006e2c1d27bc"
                  },
                  {
                    "reference": "urn:uuid:9cb06bfe-7391-461e-bcfa-9f5343736692"
                  }
                ],
                "text": {
                  "status": "generated",
                  "div": "<div xmlns=\"http://www.w3.org/1999/xhtml\"><h3>Urinalysis</h3><table class=\"hl7__eu__lab__report\"><thead><tr><th>Test</th><th>02-APR-2021</th><th>Reference&#xA0;Range</th><th>Unit</th></tr></thead><tbody><tr><td>Glucose [Mass/volume] in Urine by Test strip</td><td>0.8</td><td>0 - 0.8</td><td>mg/dL</td></tr><tr><td>Glucose [Presence] in Urine by Test strip</td><td>++</td><td></td><td></td></tr><tr><td>Bilirubin.total [Mass/volume] in Urine by Test strip</td><td>0.3</td><td>0 - 1.9</td><td>mg/dL</td></tr><tr><td>Bilirubin.total [Presence] in Urine by Test strip</td><td>Finding of bilirubin in urine</td><td></td><td></td></tr><tr><td>Ketones [Mass/volume] in Urine by Test strip</td><td><strong>14.4 H</strong></td><td>0 - 3</td><td>mg/dL</td></tr><tr><td>Specific gravity of Urine by Test strip</td><td><strong>1.0 L</strong></td><td>1.01 - 1.03</td><td>{nominal}</td></tr><tr><td>pH of Urine by Test strip</td><td>6.0</td><td>4.5 - 7.5</td><td>pH</td></tr><tr><td>Protein [Mass/volume] in Urine by Test strip</td><td><strong>291.1 H</strong></td><td>0 - 149</td><td>mg/dL</td></tr><tr><td>Protein [Presence] in Urine by Test strip</td><td>Urine protein test = ++</td><td></td><td></td></tr><tr><td>Nitrite [Presence] in Urine by Test strip</td><td>Urine nitrite negative</td><td></td><td></td></tr><tr><td>Hemoglobin [Presence] in Urine by Test strip</td><td>Urine blood test = negative</td><td></td><td></td></tr><tr><td>Leukocyte esterase [Presence] in Urine by Test strip</td><td>Urine leukocyte test negative</td><td></td><td></td></tr></tbody></table></div>"
                },
                "title": "Urinalysis"
              },
              {
                "code": {
                  "coding": [
                    {
                      "code": "$LP7846-1",
                      "system": "http://loinc.org",
                      "display": "Specimen information"
                    }
                  ],
                  "text": "Specimen information"
                },
                "entry": [
                  {
                    "reference": "urn:uuid:db955e86-1ff5-4a9c-a7e6-a7c7a37117e6"
                  },
                  {
                    "reference": "urn:uuid:a06bea0e-a398-4600-9413-662fd26bf851"
                  },
                  {
                    "reference": "urn:uuid:cc1ea1d6-8774-4c99-b5aa-9bc966d1138f"
                  },
                  {
                    "reference": "urn:uuid:7eb0e620-745b-44a9-8206-ae4988046259"
                  }
                ],
                "text": {
                  "status": "generated",
                  "div": "<div xmlns=\"http://www.w3.org/1999/xhtml\"><h3>Specimen information</h3><table class=\"hl7__eu__lab__report\"><thead><tr><th>Test</th><th>02-APR-2021</th><th>Specimen</th><th></th></tr></thead><tbody><tr><td>Appearance of Urine</td><td>Cloudy urine</td><td>Urine</td><td></td></tr><tr><td>Odor of Urine</td><td>Urine smell ammoniacal</td><td>Urine</td><td></td></tr><tr><td>Clarity of Urine</td><td>Translucent</td><td>Urine</td><td></td></tr><tr><td>Color of Urine</td><td>Brown color</td><td>Urine</td><td></td></tr></tbody></table></div>"
                },
                "title": "Specimen information"
              }
            ],
            "title": "Laboratory Report"
          },
          {
            "text": {
              "status": "generated",
              "div": "<div xmlns=\"http://www.w3.org/1999/xhtml\"><h3>Annotation</h3><table class=\"hl7__eu__lab__report\"><tr><th>Conclusion and Recommendations based on this report and previous findings known to us</th></tr><tr><td>The patient shows elevated creatinine, proteinuria, and low urine specific gravity, suggesting impaired renal function. Urine findings (cloudy, brown, ammoniacal odor) may indicate urinary tract pathology. Marked ketonuria is present without hyperglycemia, and HbA1c is low, possibly reflecting anemia or recent hypoglycemia. Electrolytes and other parameters are within normal limits. Recommend further evaluation of renal function and possible urinary tract infection or other renal pathology.</td></tr></table></div>"
            },
            "code": {
              "coding": [
                {
                  "system": "http://loinc.org",
                  "code": "48767-8",
                  "display": "Annotation comment"
                }
              ]
            },
            "title": "Annotation comment"
          }
        ],
        "status": "final",
        "subject": {
          "reference": "urn:uuid:647a0e12-7336-43f2-8d78-bb052a5adbf3",
          "display": "Victor Lagarde"
        },
        "date": "2021-04-02T06:48:18Z",
        "title": "Laboratory Report",
        "confidentiality": "N"
      }
    },
    {
      "fullUrl": "urn:uuid:2db51003-f864-48a9-8188-0e9ac45f88fd",
      "resource": {
        "resourceType": "DiagnosticReport",
        "id": "2db51003-f864-48a9-8188-0e9ac45f88fd",
        "meta": {
          "profile": [
            "http://hl7.eu/fhir/laboratory/StructureDefinition/DiagnosticReport-eu-lab"
          ]
        },
        "identifier": [
          {
            "assigner": {
              "display": "HL7 Europe"
            },
            "system": "urn:oid:2.16.840.1.113883.2.51.999",
            "value": "91f4899e-ecda-4813-a69f-b091ae4f517f"
          }
        ],
        "extension": [
          {
            "url": "http://hl7.org/fhir/5.0/StructureDefinition/extension-DiagnosticReport.composition",
            "valueReference": {
              "reference": "urn:uuid:f5bb8e85-a62e-42b9-9d5f-3789c7af7e46"
            }
          }
        ],
        "category": [
          {
            "coding": [
              {
                "code": "26436-6",
                "system": "http://loinc.org",
                "display": "Laboratory studies (set)"
              }
            ]
          }
        ],
        "specimen": [
          {
            "reference": "urn:uuid:b7afc86e-a1f6-47fa-8865-886fda9c9b75"
          },
          {
            "reference": "urn:uuid:59b19a78-37c1-404e-8e06-1f4a8556bdb8"
          },
          {
            "reference": "urn:uuid:30cdb27a-0a07-4f60-9eda-6a953ea92556"
          }
        ],
        "result": [
          {
            "reference": "urn:uuid:cda5e999-67a4-4431-93b4-b414226d8359"
          },
          {
            "reference": "urn:uuid:8d792b02-d2d4-4164-aae2-627a2cde783c"
          },
          {
            "reference": "urn:uuid:79a289fd-bf25-4a1a-a84a-fc87bcfc9d0a"
          },
          {
            "reference": "urn:uuid:e77f5251-efcc-4877-afbb-03df6043addb"
          },
          {
            "reference": "urn:uuid:21512dfe-d8c3-400f-a535-032ea996c62c"
          },
          {
            "reference": "urn:uuid:c03d392d-85fb-40d9-b762-43cbfd37efae"
          },
          {
            "reference": "urn:uuid:93565588-86f9-4966-8fb1-2ac6817b6a44"
          },
          {
            "reference": "urn:uuid:89a6d1e1-2c50-473f-915d-39e30acd9d20"
          },
          {
            "reference": "urn:uuid:db955e86-1ff5-4a9c-a7e6-a7c7a37117e6"
          },
          {
            "reference": "urn:uuid:a06bea0e-a398-4600-9413-662fd26bf851"
          },
          {
            "reference": "urn:uuid:cc1ea1d6-8774-4c99-b5aa-9bc966d1138f"
          },
          {
            "reference": "urn:uuid:7eb0e620-745b-44a9-8206-ae4988046259"
          },
          {
            "reference": "urn:uuid:55315bfd-5064-4251-8b6b-005d981eee5d"
          },
          {
            "reference": "urn:uuid:e0ae3138-805d-4492-93bf-4f9b1bcbb81b"
          },
          {
            "reference": "urn:uuid:3072a4cd-6c42-477c-8f8a-1e7fcf5b5bbe"
          },
          {
            "reference": "urn:uuid:a93f5c46-32ef-4e66-bfe0-6aad91ddc4e9"
          },
          {
            "reference": "urn:uuid:b74e9152-200c-4aaa-9bef-6e2b3cdef9d4"
          },
          {
            "reference": "urn:uuid:8214e6a7-5d64-4654-9638-2e28e34e47e1"
          },
          {
            "reference": "urn:uuid:99d6f9a6-0813-46cd-8856-8c9b5764b794"
          },
          {
            "reference": "urn:uuid:a890180e-48be-4544-80fd-7e3ac6d85d13"
          },
          {
            "reference": "urn:uuid:280a9044-5737-48b1-807b-a4261e871608"
          },
          {
            "reference": "urn:uuid:a24993ac-5512-46c5-90b3-fd2aa5fea214"
          },
          {
            "reference": "urn:uuid:714b5719-b38f-4243-83bd-0df845ae014d"
          },
          {
            "reference": "urn:uuid:cc8a1b39-e92f-4520-b80b-006e2c1d27bc"
          },
          {
            "reference": "urn:uuid:9cb06bfe-7391-461e-bcfa-9f5343736692"
          },
          {
            "reference": "urn:uuid:ad92be5e-b152-4530-b395-a54a4ce545d7"
          },
          {
            "reference": "urn:uuid:a90dbbb1-0c09-4346-9927-9014595aad52"
          },
          {
            "reference": "urn:uuid:08d8ee0d-b08e-41e8-9831-19c00a05bda2"
          },
          {
            "reference": "urn:uuid:7f3584bc-6202-471e-b20a-f4d1c5251ee1"
          },
          {
            "reference": "urn:uuid:c184f5d7-afae-46b9-a163-5c6a1c745b7c"
          },
          {
            "reference": "urn:uuid:48417fb1-0099-4d2f-9006-3442eef4e007"
          },
          {
            "reference": "urn:uuid:0b232f89-7e12-41f3-9360-86fce986e12a"
          },
          {
            "reference": "urn:uuid:9a8bf210-c652-476c-a3db-004ecc677c71"
          },
          {
            "reference": "urn:uuid:7679ac5b-2dcc-4e0e-905e-41b0e7ecffa4"
          }
        ],
        "status": "registered",
        "code": {
          "coding": [
            {
              "code": "11502-2",
              "system": "http://loinc.org",
              "display": "Laboratory report"
            }
          ]
        },
        "subject": {
          "reference": "urn:uuid:647a0e12-7336-43f2-8d78-bb052a5adbf3",
          "display": "Victor Lagarde"
        }
      }
    },
    {
      "fullUrl": "urn:uuid:647a0e12-7336-43f2-8d78-bb052a5adbf3",
      "resource": {
        "resourceType": "Patient",
        "id": "647a0e12-7336-43f2-8d78-bb052a5adbf3",
        "meta": {
          "security": [
            {
              "system": "http://terminology.hl7.org/CodeSystem/v3-ActReason",
              "code": "HTEST"
            },
            {
              "system": "http://terminology.hl7.org/CodeSystem/v3-ActReason",
              "code": "TRAIN"
            }
          ],
          "tag": [
            {
              "system": "https://synderai.net/fhir/CodeSystem/tags",
              "code": "synthetic",
              "display": "SYNDERAI Synthetic data"
            }
          ],
          "profile": [
            "http://hl7.eu/fhir/base/StructureDefinition/patient-eu-core"
          ]
        },
        "identifier": [
          {
            "type": {
              "coding": [
                {
                  "code": "PT",
                  "system": "http://terminology.hl7.org/CodeSystem/v2-0203"
                }
              ]
            },
            "system": "http://ec.europa.eu/identifier/eci",
            "value": "9925-001801-9"
          },
          {
            "type": {
              "coding": [
                {
                  "code": "MR",
                  "system": "http://terminology.hl7.org/CodeSystem/v2-0203"
                }
              ]
            },
            "system": "http://local.setting.eu/identifier",
            "value": "22c2dfd0-ac57-8833-2532-848f180896a4"
          }
        ],
        "name": [
          {
            "family": "Lagarde"
          },
          {
            "given": [
              "Victor"
            ]
          },
          {
            "text": "Victor Lagarde"
          }
        ],
        "address": [
          {
            "line": [
              "avenue Robert"
            ],
            "use": "home",
            "type": "physical",
            "postalCode": "80300",
            "city": "Albert",
            "country": "France"
          }
        ],
        "telecom": [
          {
            "system": "phone",
            "value": "0177941801"
          }
        ],
        "extension": [
          {
            "url": "http://hl7.org/fhir/StructureDefinition/patient-nationality",
            "valueCodeableConcept": {
              "coding": [
                {
                  "code": "FR",
                  "system": "http://hl7.org/fhir/ValueSet/country"
                }
              ]
            }
          }
        ],
        "text": {
          "status": "generated",
          "div": "<div xmlns=\"http://www.w3.org/1999/xhtml\"><table class=\"hl7__ips\"><tr><td>Victor Lagarde</td><td>male</td><td>31-Aug-1939</td></tr></table></div>"
        },
        "gender": "male",
        "birthDate": "1939-08-31"
      }
    },
    {
      "fullUrl": "urn:uuid:304a25af-3365-4fc1-a246-3b2c8ce7c86e",
      "resource": {
        "resourceType": "ServiceRequest",
        "id": "304a25af-3365-4fc1-a246-3b2c8ce7c86e",
        "meta": {
          "profile": [
            "http://hl7.eu/fhir/laboratory/StructureDefinition/ServiceRequest-eu-lab"
          ]
        },
        "identifier": [
          {
            "system": "http://example.org",
            "value": "66383364-0781-42f3-833b-c70b381d1b6b"
          }
        ],
        "specimen": [
          {
            "reference": "urn:uuid:b7afc86e-a1f6-47fa-8865-886fda9c9b75"
          },
          {
            "reference": "urn:uuid:59b19a78-37c1-404e-8e06-1f4a8556bdb8"
          },
          {
            "reference": "urn:uuid:30cdb27a-0a07-4f60-9eda-6a953ea92556"
          }
        ],
        "reasonCode": [
          {
            "coding": [
              {
                "code": "433144002",
                "system": "http://snomed.info/sct",
                "display": "Chronic kidney disease stage 3"
              }
            ]
          },
          {
            "coding": [
              {
                "code": "157141000119108",
                "system": "http://snomed.info/sct",
                "display": "Proteinuria due to type 2 diabetes mellitus"
              }
            ]
          },
          {
            "coding": [
              {
                "code": "431856006",
                "system": "http://snomed.info/sct",
                "display": "Chronic kidney disease stage 2"
              }
            ]
          },
          {
            "coding": [
              {
                "code": "90781000119102",
                "system": "http://snomed.info/sct",
                "display": "Microalbuminuria due to type 2 diabetes mellitus"
              }
            ]
          },
          {
            "coding": [
              {
                "code": "127013003",
                "system": "http://snomed.info/sct",
                "display": "Disorder of kidney due to diabetes mellitus"
              }
            ]
          },
          {
            "coding": [
              {
                "code": "431855005",
                "system": "http://snomed.info/sct",
                "display": "Chronic kidney disease stage 1"
              }
            ]
          },
          {
            "coding": [
              {
                "code": "55822004",
                "system": "http://snomed.info/sct",
                "display": "Hyperlipidemia"
              }
            ]
          },
          {
            "coding": [
              {
                "code": "59621000",
                "system": "http://snomed.info/sct",
                "display": "Essential hypertension"
              }
            ]
          },
          {
            "coding": [
              {
                "code": "237602007",
                "system": "http://snomed.info/sct",
                "display": "Metabolic syndrome X"
              }
            ]
          },
          {
            "coding": [
              {
                "code": "414545008",
                "system": "http://snomed.info/sct",
                "display": "Ischemic heart disease"
              }
            ]
          },
          {
            "coding": [
              {
                "code": "40055000",
                "system": "http://snomed.info/sct",
                "display": "Chronic sinusitis"
              }
            ]
          },
          {
            "coding": [
              {
                "code": "15777000",
                "system": "http://snomed.info/sct",
                "display": "Prediabetes"
              }
            ]
          },
          {
            "coding": [
              {
                "code": "271737000",
                "system": "http://snomed.info/sct",
                "display": "Anemia"
              }
            ]
          }
        ],
        "status": "active",
        "intent": "order",
        "code": {
          "coding": [
            {
              "code": "108252007",
              "system": "http://snomed.info/sct",
              "display": "Laboratory procedure"
            }
          ]
        },
        "subject": {
          "reference": "urn:uuid:647a0e12-7336-43f2-8d78-bb052a5adbf3",
          "display": "Victor Lagarde"
        },
        "requester": {
          "reference": "urn:uuid:5180ad88-c16a-4267-9a64-f34f18a7b410"
        }
      }
    },
    {
      "fullUrl": "urn:uuid:5180ad88-c16a-4267-9a64-f34f18a7b410",
      "resource": {
        "resourceType": "PractitionerRole",
        "id": "5180ad88-c16a-4267-9a64-f34f18a7b410",
        "meta": {
          "profile": [
            "http://hl7.eu/fhir/base/StructureDefinition/practitionerRole-eu"
          ]
        },
        "text": {
          "status": "generated",
          "div": "<div xmlns=\"http://www.w3.org/1999/xhtml\">Provider Role Id: 5180ad88-c16a-4267-9a64-f34f18a7b410</div>"
        },
        "organization": {
          "reference": "urn:uuid:1cc24d28-9854-435f-bcb9-caf6c3f229e8"
        }
      }
    },
    {
      "fullUrl": "urn:uuid:1cc24d28-9854-435f-bcb9-caf6c3f229e8",
      "resource": {
        "resourceType": "Organization",
        "id": "1cc24d28-9854-435f-bcb9-caf6c3f229e8",
        "meta": {
          "profile": [
            "http://hl7.eu/fhir/base/StructureDefinition/organization-eu"
          ]
        },
        "identifier": [
          {
            "assigner": {
              "display": "HL7 Europe"
            },
            "system": "urn:oid:2.16.840.1.113883.2.51.999",
            "value": "3ea28cac-6dac-4eac-82f1-e350a0b5a528"
          }
        ],
        "address": [
          {
            "city": "Auxerre",
            "postalCode": "89000",
            "country": "France"
          }
        ],
        "text": {
          "status": "generated",
          "div": "<div xmlns=\"http://www.w3.org/1999/xhtml\">Provider Organization: Thiriot Didier (Cardiologie)</div>"
        },
        "name": "Thiriot Didier (Cardiologie)"
      }
    },
    {
      "fullUrl": "urn:uuid:b7afc86e-a1f6-47fa-8865-886fda9c9b75",
      "resource": {
        "resourceType": "Specimen",
        "id": "b7afc86e-a1f6-47fa-8865-886fda9c9b75",
        "meta": {
          "profile": [
            "http://hl7.eu/fhir/laboratory/StructureDefinition/Specimen-eu-lab"
          ]
        },
        "collection": {
          "collectedDateTime": "2021-04-02"
        },
        "text": {
          "status": "generated",
          "div": "<div xmlns=\"http://www.w3.org/1999/xhtml\"><table class=\"hl7__eu__lab__report\"><tr><th>Specimen</th><th>Collection Date</th></tr><tr><td>Acellular blood (serum or plasma) specimen</td><td><span class=\"nb\">02-Apr-2021</span></td></tr></table></div>"
        },
        "type": {
          "coding": [
            {
              "code": "122592007",
              "system": "http://snomed.info/sct",
              "display": "Acellular blood (serum or plasma) specimen"
            }
          ]
        }
      }
    },
    {
      "fullUrl": "urn:uuid:59b19a78-37c1-404e-8e06-1f4a8556bdb8",
      "resource": {
        "resourceType": "Specimen",
        "id": "59b19a78-37c1-404e-8e06-1f4a8556bdb8",
        "meta": {
          "profile": [
            "http://hl7.eu/fhir/laboratory/StructureDefinition/Specimen-eu-lab"
          ]
        },
        "collection": {
          "collectedDateTime": "2021-04-02"
        },
        "text": {
          "status": "generated",
          "div": "<div xmlns=\"http://www.w3.org/1999/xhtml\"><table class=\"hl7__eu__lab__report\"><tr><th>Specimen</th><th>Collection Date</th></tr><tr><td>Urine specimen</td><td><span class=\"nb\">02-Apr-2021</span></td></tr></table></div>"
        },
        "type": {
          "coding": [
            {
              "code": "122575003",
              "system": "http://snomed.info/sct",
              "display": "Urine specimen"
            }
          ]
        }
      }
    },
    {
      "fullUrl": "urn:uuid:30cdb27a-0a07-4f60-9eda-6a953ea92556",
      "resource": {
        "resourceType": "Specimen",
        "id": "30cdb27a-0a07-4f60-9eda-6a953ea92556",
        "meta": {
          "profile": [
            "http://hl7.eu/fhir/laboratory/StructureDefinition/Specimen-eu-lab"
          ]
        },
        "collection": {
          "collectedDateTime": "2021-04-02"
        },
        "text": {
          "status": "generated",
          "div": "<div xmlns=\"http://www.w3.org/1999/xhtml\"><table class=\"hl7__eu__lab__report\"><tr><th>Specimen</th><th>Collection Date</th></tr><tr><td>Whole blood specimen (specimen)</td><td><span class=\"nb\">02-Apr-2021</span></td></tr></table></div>"
        },
        "type": {
          "coding": [
            {
              "code": "258580003",
              "system": "http://snomed.info/sct",
              "display": "Whole blood specimen (specimen)"
            }
          ]
        }
      }
    },
    {
      "fullUrl": "urn:uuid:cda5e999-67a4-4431-93b4-b414226d8359",
      "resource": {
        "resourceType": "Observation",
        "id": "cda5e999-67a4-4431-93b4-b414226d8359",
        "meta": {
          "profile": [
            "http://hl7.eu/fhir/laboratory/StructureDefinition/Observation-resultslab-eu-lab"
          ]
        },
        "performer": [
          {
            "display": "The Central European Lab"
          }
        ],
        "category": [
          {
            "coding": [
              {
                "system": "http://terminology.hl7.org/CodeSystem/observation-category",
                "code": "laboratory"
              }
            ]
          }
        ],
        "code": {
          "coding": [
            {
              "code": "2345-7",
              "system": "http://loinc.org",
              "display": "Glucose [Mass/volume] in Serum or Plasma"
            }
          ],
          "text": "Glucose [Mass/volume] in Serum or Plasma"
        },
        "valueQuantity": {
          "system": "http://unitsofmeasure.org",
          "value": 76.4,
          "unit": "mg/dL",
          "code": "mg/dL"
        },
        "referenceRange": [
          {
            "low": {
              "value": 70,
              "code": "mg/dL",
              "system": "http://unitsofmeasure.org"
            }
          },
          {
            "high": {
              "value": 140,
              "code": "mg/dL",
              "system": "http://unitsofmeasure.org"
            }
          }
        ],
        "text": {
          "status": "generated",
          "div": "<div xmlns=\"http://www.w3.org/1999/xhtml\"><table class=\"hl7__eu__lab__report\"><tr><th>Test</th><th>02-Apr-2021</th><th>Reference&#xA0;Range</th><th>Unit</th></tr><tr><td>Glucose [Mass/volume] in Serum or Plasma</td><td>76.4</td><td>70 - 140</td><td></td><td>mg/dL</td></tr></table></div>"
        },
        "status": "final",
        "subject": {
          "reference": "urn:uuid:647a0e12-7336-43f2-8d78-bb052a5adbf3",
          "display": "Victor Lagarde"
        },
        "effectiveDateTime": "2021-04-02T04:48:18Z",
        "specimen": {
          "reference": "urn:uuid:b7afc86e-a1f6-47fa-8865-886fda9c9b75"
        }
      }
    },
    {
      "fullUrl": "urn:uuid:8d792b02-d2d4-4164-aae2-627a2cde783c",
      "resource": {
        "resourceType": "Observation",
        "id": "8d792b02-d2d4-4164-aae2-627a2cde783c",
        "meta": {
          "profile": [
            "http://hl7.eu/fhir/laboratory/StructureDefinition/Observation-resultslab-eu-lab"
          ]
        },
        "performer": [
          {
            "display": "The Central European Lab"
          }
        ],
        "category": [
          {
            "coding": [
              {
                "system": "http://terminology.hl7.org/CodeSystem/observation-category",
                "code": "laboratory"
              }
            ]
          }
        ],
        "code": {
          "coding": [
            {
              "code": "3094-0",
              "system": "http://loinc.org",
              "display": "Urea nitrogen [Mass/volume] in Serum or Plasma"
            }
          ],
          "text": "Urea nitrogen [Mass/volume] in Serum or Plasma"
        },
        "valueQuantity": {
          "system": "http://unitsofmeasure.org",
          "value": 18,
          "unit": "mg/dL",
          "code": "mg/dL"
        },
        "referenceRange": [
          {
            "low": {
              "value": 7,
              "code": "mg/dL",
              "system": "http://unitsofmeasure.org"
            }
          },
          {
            "high": {
              "value": 20,
              "code": "mg/dL",
              "system": "http://unitsofmeasure.org"
            }
          }
        ],
        "text": {
          "status": "generated",
          "div": "<div xmlns=\"http://www.w3.org/1999/xhtml\"><table class=\"hl7__eu__lab__report\"><tr><th>Test</th><th>02-Apr-2021</th><th>Reference&#xA0;Range</th><th>Unit</th></tr><tr><td>Urea nitrogen [Mass/volume] in Serum or Plasma</td><td>18.0</td><td>7 - 20</td><td></td><td>mg/dL</td></tr></table></div>"
        },
        "status": "final",
        "subject": {
          "reference": "urn:uuid:647a0e12-7336-43f2-8d78-bb052a5adbf3",
          "display": "Victor Lagarde"
        },
        "effectiveDateTime": "2021-04-02T04:48:18Z",
        "specimen": {
          "reference": "urn:uuid:b7afc86e-a1f6-47fa-8865-886fda9c9b75"
        }
      }
    },
    {
      "fullUrl": "urn:uuid:79a289fd-bf25-4a1a-a84a-fc87bcfc9d0a",
      "resource": {
        "resourceType": "Observation",
        "id": "79a289fd-bf25-4a1a-a84a-fc87bcfc9d0a",
        "meta": {
          "profile": [
            "http://hl7.eu/fhir/laboratory/StructureDefinition/Observation-resultslab-eu-lab"
          ]
        },
        "performer": [
          {
            "display": "The Central European Lab"
          }
        ],
        "category": [
          {
            "coding": [
              {
                "system": "http://terminology.hl7.org/CodeSystem/observation-category",
                "code": "laboratory"
              }
            ]
          }
        ],
        "code": {
          "coding": [
            {
              "code": "2160-0",
              "system": "http://loinc.org",
              "display": "Creatinine [Mass/volume] in Serum or Plasma"
            }
          ],
          "text": "Creatinine [Mass/volume] in Serum or Plasma"
        },
        "valueQuantity": {
          "system": "http://unitsofmeasure.org",
          "value": 2,
          "unit": "mg/dL",
          "code": "mg/dL"
        },
        "referenceRange": [
          {
            "low": {
              "value": 0.9,
              "code": "mg/dL",
              "system": "http://unitsofmeasure.org"
            }
          },
          {
            "high": {
              "value": 1.3,
              "code": "mg/dL",
              "system": "http://unitsofmeasure.org"
            }
          }
        ],
        "interpretation": [
          {
            "coding": [
              {
                "code": "H",
                "system": "http://terminology.hl7.org/CodeSystem/v3-ObservationInterpretation",
                "display": "High"
              }
            ]
          }
        ],
        "text": {
          "status": "generated",
          "div": "<div xmlns=\"http://www.w3.org/1999/xhtml\"><table class=\"hl7__eu__lab__report\"><tr><th>Test</th><th>02-Apr-2021</th><th>Reference&#xA0;Range</th><th>Unit</th></tr><tr><td>Creatinine [Mass/volume] in Serum or Plasma</td><td>2.0</td><td>0.9 - 1.3</td><td>H</td><td>mg/dL</td></tr></table></div>"
        },
        "status": "final",
        "subject": {
          "reference": "urn:uuid:647a0e12-7336-43f2-8d78-bb052a5adbf3",
          "display": "Victor Lagarde"
        },
        "effectiveDateTime": "2021-04-02T04:48:18Z",
        "specimen": {
          "reference": "urn:uuid:b7afc86e-a1f6-47fa-8865-886fda9c9b75"
        }
      }
    },
    {
      "fullUrl": "urn:uuid:e77f5251-efcc-4877-afbb-03df6043addb",
      "resource": {
        "resourceType": "Observation",
        "id": "e77f5251-efcc-4877-afbb-03df6043addb",
        "meta": {
          "profile": [
            "http://hl7.eu/fhir/laboratory/StructureDefinition/Observation-resultslab-eu-lab"
          ]
        },
        "performer": [
          {
            "display": "The Central European Lab"
          }
        ],
        "category": [
          {
            "coding": [
              {
                "system": "http://terminology.hl7.org/CodeSystem/observation-category",
                "code": "laboratory"
              }
            ]
          }
        ],
        "code": {
          "coding": [
            {
              "code": "17861-6",
              "system": "http://loinc.org",
              "display": "Calcium [Mass/volume] in Serum or Plasma"
            }
          ],
          "text": "Calcium [Mass/volume] in Serum or Plasma"
        },
        "valueQuantity": {
          "system": "http://unitsofmeasure.org",
          "value": 9.3,
          "unit": "mg/dL",
          "code": "mg/dL"
        },
        "referenceRange": [
          {
            "low": {
              "value": 8.5,
              "code": "mg/dL",
              "system": "http://unitsofmeasure.org"
            }
          },
          {
            "high": {
              "value": 10.5,
              "code": "mg/dL",
              "system": "http://unitsofmeasure.org"
            }
          }
        ],
        "text": {
          "status": "generated",
          "div": "<div xmlns=\"http://www.w3.org/1999/xhtml\"><table class=\"hl7__eu__lab__report\"><tr><th>Test</th><th>02-Apr-2021</th><th>Reference&#xA0;Range</th><th>Unit</th></tr><tr><td>Calcium [Mass/volume] in Serum or Plasma</td><td>9.3</td><td>8.5 - 10.5</td><td></td><td>mg/dL</td></tr></table></div>"
        },
        "status": "final",
        "subject": {
          "reference": "urn:uuid:647a0e12-7336-43f2-8d78-bb052a5adbf3",
          "display": "Victor Lagarde"
        },
        "effectiveDateTime": "2021-04-02T04:48:18Z",
        "specimen": {
          "reference": "urn:uuid:b7afc86e-a1f6-47fa-8865-886fda9c9b75"
        }
      }
    },
    {
      "fullUrl": "urn:uuid:21512dfe-d8c3-400f-a535-032ea996c62c",
      "resource": {
        "resourceType": "Observation",
        "id": "21512dfe-d8c3-400f-a535-032ea996c62c",
        "meta": {
          "profile": [
            "http://hl7.eu/fhir/laboratory/StructureDefinition/Observation-resultslab-eu-lab"
          ]
        },
        "performer": [
          {
            "display": "The Central European Lab"
          }
        ],
        "category": [
          {
            "coding": [
              {
                "system": "http://terminology.hl7.org/CodeSystem/observation-category",
                "code": "laboratory"
              }
            ]
          }
        ],
        "code": {
          "coding": [
            {
              "code": "2951-2",
              "system": "http://loinc.org",
              "display": "Sodium [Moles/volume] in Serum or Plasma"
            }
          ],
          "text": "Sodium [Moles/volume] in Serum or Plasma"
        },
        "valueQuantity": {
          "system": "http://unitsofmeasure.org",
          "value": 141.1,
          "unit": "mmol/L",
          "code": "mmol/L"
        },
        "referenceRange": [
          {
            "low": {
              "value": 135,
              "code": "mmol/L",
              "system": "http://unitsofmeasure.org"
            }
          },
          {
            "high": {
              "value": 145,
              "code": "mmol/L",
              "system": "http://unitsofmeasure.org"
            }
          }
        ],
        "text": {
          "status": "generated",
          "div": "<div xmlns=\"http://www.w3.org/1999/xhtml\"><table class=\"hl7__eu__lab__report\"><tr><th>Test</th><th>02-Apr-2021</th><th>Reference&#xA0;Range</th><th>Unit</th></tr><tr><td>Sodium [Moles/volume] in Serum or Plasma</td><td>141.1</td><td>135 - 145</td><td></td><td>mmol/L</td></tr></table></div>"
        },
        "status": "final",
        "subject": {
          "reference": "urn:uuid:647a0e12-7336-43f2-8d78-bb052a5adbf3",
          "display": "Victor Lagarde"
        },
        "effectiveDateTime": "2021-04-02T04:48:18Z",
        "specimen": {
          "reference": "urn:uuid:b7afc86e-a1f6-47fa-8865-886fda9c9b75"
        }
      }
    },
    {
      "fullUrl": "urn:uuid:c03d392d-85fb-40d9-b762-43cbfd37efae",
      "resource": {
        "resourceType": "Observation",
        "id": "c03d392d-85fb-40d9-b762-43cbfd37efae",
        "meta": {
          "profile": [
            "http://hl7.eu/fhir/laboratory/StructureDefinition/Observation-resultslab-eu-lab"
          ]
        },
        "performer": [
          {
            "display": "The Central European Lab"
          }
        ],
        "category": [
          {
            "coding": [
              {
                "system": "http://terminology.hl7.org/CodeSystem/observation-category",
                "code": "laboratory"
              }
            ]
          }
        ],
        "code": {
          "coding": [
            {
              "code": "2823-3",
              "system": "http://loinc.org",
              "display": "Potassium [Moles/volume] in Serum or Plasma"
            }
          ],
          "text": "Potassium [Moles/volume] in Serum or Plasma"
        },
        "valueQuantity": {
          "system": "http://unitsofmeasure.org",
          "value": 4.8,
          "unit": "mmol/L",
          "code": "mmol/L"
        },
        "referenceRange": [
          {
            "low": {
              "value": 3.5,
              "code": "mmol/L",
              "system": "http://unitsofmeasure.org"
            }
          },
          {
            "high": {
              "value": 5.3,
              "code": "mmol/L",
              "system": "http://unitsofmeasure.org"
            }
          }
        ],
        "text": {
          "status": "generated",
          "div": "<div xmlns=\"http://www.w3.org/1999/xhtml\"><table class=\"hl7__eu__lab__report\"><tr><th>Test</th><th>02-Apr-2021</th><th>Reference&#xA0;Range</th><th>Unit</th></tr><tr><td>Potassium [Moles/volume] in Serum or Plasma</td><td>4.8</td><td>3.5 - 5.3</td><td></td><td>mmol/L</td></tr></table></div>"
        },
        "status": "final",
        "subject": {
          "reference": "urn:uuid:647a0e12-7336-43f2-8d78-bb052a5adbf3",
          "display": "Victor Lagarde"
        },
        "effectiveDateTime": "2021-04-02T04:48:18Z",
        "specimen": {
          "reference": "urn:uuid:b7afc86e-a1f6-47fa-8865-886fda9c9b75"
        }
      }
    },
    {
      "fullUrl": "urn:uuid:93565588-86f9-4966-8fb1-2ac6817b6a44",
      "resource": {
        "resourceType": "Observation",
        "id": "93565588-86f9-4966-8fb1-2ac6817b6a44",
        "meta": {
          "profile": [
            "http://hl7.eu/fhir/laboratory/StructureDefinition/Observation-resultslab-eu-lab"
          ]
        },
        "performer": [
          {
            "display": "The Central European Lab"
          }
        ],
        "category": [
          {
            "coding": [
              {
                "system": "http://terminology.hl7.org/CodeSystem/observation-category",
                "code": "laboratory"
              }
            ]
          }
        ],
        "code": {
          "coding": [
            {
              "code": "2075-0",
              "system": "http://loinc.org",
              "display": "Chloride [Moles/volume] in Serum or Plasma"
            }
          ],
          "text": "Chloride [Moles/volume] in Serum or Plasma"
        },
        "valueQuantity": {
          "system": "http://unitsofmeasure.org",
          "value": 106.9,
          "unit": "mmol/L",
          "code": "mmol/L"
        },
        "referenceRange": [
          {
            "low": {
              "value": 98,
              "code": "mmol/L",
              "system": "http://unitsofmeasure.org"
            }
          },
          {
            "high": {
              "value": 107,
              "code": "mmol/L",
              "system": "http://unitsofmeasure.org"
            }
          }
        ],
        "text": {
          "status": "generated",
          "div": "<div xmlns=\"http://www.w3.org/1999/xhtml\"><table class=\"hl7__eu__lab__report\"><tr><th>Test</th><th>02-Apr-2021</th><th>Reference&#xA0;Range</th><th>Unit</th></tr><tr><td>Chloride [Moles/volume] in Serum or Plasma</td><td>106.9</td><td>98 - 107</td><td></td><td>mmol/L</td></tr></table></div>"
        },
        "status": "final",
        "subject": {
          "reference": "urn:uuid:647a0e12-7336-43f2-8d78-bb052a5adbf3",
          "display": "Victor Lagarde"
        },
        "effectiveDateTime": "2021-04-02T04:48:18Z",
        "specimen": {
          "reference": "urn:uuid:b7afc86e-a1f6-47fa-8865-886fda9c9b75"
        }
      }
    },
    {
      "fullUrl": "urn:uuid:89a6d1e1-2c50-473f-915d-39e30acd9d20",
      "resource": {
        "resourceType": "Observation",
        "id": "89a6d1e1-2c50-473f-915d-39e30acd9d20",
        "meta": {
          "profile": [
            "http://hl7.eu/fhir/laboratory/StructureDefinition/Observation-resultslab-eu-lab"
          ]
        },
        "performer": [
          {
            "display": "The Central European Lab"
          }
        ],
        "category": [
          {
            "coding": [
              {
                "system": "http://terminology.hl7.org/CodeSystem/observation-category",
                "code": "laboratory"
              }
            ]
          }
        ],
        "code": {
          "coding": [
            {
              "code": "2028-9",
              "system": "http://loinc.org",
              "display": "Carbon dioxide, total [Moles/volume] in Serum or Plasma"
            }
          ],
          "text": "Carbon dioxide, total [Moles/volume] in Serum or Plasma"
        },
        "valueQuantity": {
          "system": "http://unitsofmeasure.org",
          "value": 28.2,
          "unit": "mmol/L",
          "code": "mmol/L"
        },
        "referenceRange": [
          {
            "low": {
              "value": 22,
              "code": "mmol/L",
              "system": "http://unitsofmeasure.org"
            }
          },
          {
            "high": {
              "value": 33,
              "code": "mmol/L",
              "system": "http://unitsofmeasure.org"
            }
          }
        ],
        "text": {
          "status": "generated",
          "div": "<div xmlns=\"http://www.w3.org/1999/xhtml\"><table class=\"hl7__eu__lab__report\"><tr><th>Test</th><th>02-Apr-2021</th><th>Reference&#xA0;Range</th><th>Unit</th></tr><tr><td>Carbon dioxide, total [Moles/volume] in Serum or Plasma</td><td>28.2</td><td>22 - 33</td><td></td><td>mmol/L</td></tr></table></div>"
        },
        "status": "final",
        "subject": {
          "reference": "urn:uuid:647a0e12-7336-43f2-8d78-bb052a5adbf3",
          "display": "Victor Lagarde"
        },
        "effectiveDateTime": "2021-04-02T04:48:18Z",
        "specimen": {
          "reference": "urn:uuid:b7afc86e-a1f6-47fa-8865-886fda9c9b75"
        }
      }
    },
    {
      "fullUrl": "urn:uuid:db955e86-1ff5-4a9c-a7e6-a7c7a37117e6",
      "resource": {
        "resourceType": "Observation",
        "id": "db955e86-1ff5-4a9c-a7e6-a7c7a37117e6",
        "meta": {
          "profile": [
            "http://hl7.eu/fhir/laboratory/StructureDefinition/Observation-resultslab-eu-lab"
          ]
        },
        "performer": [
          {
            "display": "The Central European Lab"
          }
        ],
        "category": [
          {
            "coding": [
              {
                "system": "http://terminology.hl7.org/CodeSystem/observation-category",
                "code": "laboratory"
              }
            ]
          }
        ],
        "code": {
          "coding": [
            {
              "code": "5767-9",
              "system": "http://loinc.org",
              "display": "Appearance of Urine"
            }
          ],
          "text": "Appearance of Urine"
        },
        "text": {
          "status": "generated",
          "div": "<div xmlns=\"http://www.w3.org/1999/xhtml\"><table class=\"hl7__eu__lab__report\"><tr><th>Test</th><th>02-Apr-2021</th><th>Reference&#xA0;Range</th><th>Unit</th></tr><tr><td>Appearance of Urine</td></tr></table></div>"
        },
        "status": "final",
        "subject": {
          "reference": "urn:uuid:647a0e12-7336-43f2-8d78-bb052a5adbf3",
          "display": "Victor Lagarde"
        },
        "effectiveDateTime": "2021-04-02T04:48:18Z",
        "specimen": {
          "reference": "urn:uuid:59b19a78-37c1-404e-8e06-1f4a8556bdb8"
        }
      }
    },
    {
      "fullUrl": "urn:uuid:a06bea0e-a398-4600-9413-662fd26bf851",
      "resource": {
        "resourceType": "Observation",
        "id": "a06bea0e-a398-4600-9413-662fd26bf851",
        "meta": {
          "profile": [
            "http://hl7.eu/fhir/laboratory/StructureDefinition/Observation-resultslab-eu-lab"
          ]
        },
        "performer": [
          {
            "display": "The Central European Lab"
          }
        ],
        "category": [
          {
            "coding": [
              {
                "system": "http://terminology.hl7.org/CodeSystem/observation-category",
                "code": "laboratory"
              }
            ]
          }
        ],
        "code": {
          "coding": [
            {
              "code": "34533-0",
              "system": "http://loinc.org",
              "display": "Odor of Urine"
            }
          ],
          "text": "Odor of Urine"
        },
        "text": {
          "status": "generated",
          "div": "<div xmlns=\"http://www.w3.org/1999/xhtml\"><table class=\"hl7__eu__lab__report\"><tr><th>Test</th><th>02-Apr-2021</th><th>Reference&#xA0;Range</th><th>Unit</th></tr><tr><td>Odor of Urine</td></tr></table></div>"
        },
        "status": "final",
        "subject": {
          "reference": "urn:uuid:647a0e12-7336-43f2-8d78-bb052a5adbf3",
          "display": "Victor Lagarde"
        },
        "effectiveDateTime": "2021-04-02T04:48:18Z",
        "specimen": {
          "reference": "urn:uuid:59b19a78-37c1-404e-8e06-1f4a8556bdb8"
        }
      }
    },
    {
      "fullUrl": "urn:uuid:cc1ea1d6-8774-4c99-b5aa-9bc966d1138f",
      "resource": {
        "resourceType": "Observation",
        "id": "cc1ea1d6-8774-4c99-b5aa-9bc966d1138f",
        "meta": {
          "profile": [
            "http://hl7.eu/fhir/laboratory/StructureDefinition/Observation-resultslab-eu-lab"
          ]
        },
        "performer": [
          {
            "display": "The Central European Lab"
          }
        ],
        "category": [
          {
            "coding": [
              {
                "system": "http://terminology.hl7.org/CodeSystem/observation-category",
                "code": "laboratory"
              }
            ]
          }
        ],
        "code": {
          "coding": [
            {
              "code": "32167-9",
              "system": "http://loinc.org",
              "display": "Clarity of Urine"
            }
          ],
          "text": "Clarity of Urine"
        },
        "text": {
          "status": "generated",
          "div": "<div xmlns=\"http://www.w3.org/1999/xhtml\"><table class=\"hl7__eu__lab__report\"><tr><th>Test</th><th>02-Apr-2021</th><th>Reference&#xA0;Range</th><th>Unit</th></tr><tr><td>Clarity of Urine</td></tr></table></div>"
        },
        "status": "final",
        "subject": {
          "reference": "urn:uuid:647a0e12-7336-43f2-8d78-bb052a5adbf3",
          "display": "Victor Lagarde"
        },
        "effectiveDateTime": "2021-04-02T04:48:18Z",
        "specimen": {
          "reference": "urn:uuid:59b19a78-37c1-404e-8e06-1f4a8556bdb8"
        }
      }
    },
    {
      "fullUrl": "urn:uuid:7eb0e620-745b-44a9-8206-ae4988046259",
      "resource": {
        "resourceType": "Observation",
        "id": "7eb0e620-745b-44a9-8206-ae4988046259",
        "meta": {
          "profile": [
            "http://hl7.eu/fhir/laboratory/StructureDefinition/Observation-resultslab-eu-lab"
          ]
        },
        "performer": [
          {
            "display": "The Central European Lab"
          }
        ],
        "category": [
          {
            "coding": [
              {
                "system": "http://terminology.hl7.org/CodeSystem/observation-category",
                "code": "laboratory"
              }
            ]
          }
        ],
        "code": {
          "coding": [
            {
              "code": "5778-6",
              "system": "http://loinc.org",
              "display": "Color of Urine"
            }
          ],
          "text": "Color of Urine"
        },
        "text": {
          "status": "generated",
          "div": "<div xmlns=\"http://www.w3.org/1999/xhtml\"><table class=\"hl7__eu__lab__report\"><tr><th>Test</th><th>02-Apr-2021</th><th>Reference&#xA0;Range</th><th>Unit</th></tr><tr><td>Color of Urine</td></tr></table></div>"
        },
        "status": "final",
        "subject": {
          "reference": "urn:uuid:647a0e12-7336-43f2-8d78-bb052a5adbf3",
          "display": "Victor Lagarde"
        },
        "effectiveDateTime": "2021-04-02T04:48:18Z",
        "specimen": {
          "reference": "urn:uuid:59b19a78-37c1-404e-8e06-1f4a8556bdb8"
        }
      }
    },
    {
      "fullUrl": "urn:uuid:55315bfd-5064-4251-8b6b-005d981eee5d",
      "resource": {
        "resourceType": "Observation",
        "id": "55315bfd-5064-4251-8b6b-005d981eee5d",
        "meta": {
          "profile": [
            "http://hl7.eu/fhir/laboratory/StructureDefinition/Observation-resultslab-eu-lab"
          ]
        },
        "performer": [
          {
            "display": "The Central European Lab"
          }
        ],
        "category": [
          {
            "coding": [
              {
                "system": "http://terminology.hl7.org/CodeSystem/observation-category",
                "code": "laboratory"
              }
            ]
          }
        ],
        "code": {
          "coding": [
            {
              "code": "5792-7",
              "system": "http://loinc.org",
              "display": "Glucose [Mass/volume] in Urine by Test strip"
            }
          ],
          "text": "Glucose [Mass/volume] in Urine by Test strip"
        },
        "valueQuantity": {
          "system": "http://unitsofmeasure.org",
          "value": 0.8,
          "unit": "mg/dL",
          "code": "mg/dL"
        },
        "referenceRange": [
          {
            "low": {
              "value": 0,
              "code": "mg/dL",
              "system": "http://unitsofmeasure.org"
            }
          },
          {
            "high": {
              "value": 0.8,
              "code": "mg/dL",
              "system": "http://unitsofmeasure.org"
            }
          }
        ],
        "text": {
          "status": "generated",
          "div": "<div xmlns=\"http://www.w3.org/1999/xhtml\"><table class=\"hl7__eu__lab__report\"><tr><th>Test</th><th>02-Apr-2021</th><th>Reference&#xA0;Range</th><th>Unit</th></tr><tr><td>Glucose [Mass/volume] in Urine by Test strip</td><td>0.8</td><td>0 - 0.8</td><td></td><td>mg/dL</td></tr></table></div>"
        },
        "status": "final",
        "subject": {
          "reference": "urn:uuid:647a0e12-7336-43f2-8d78-bb052a5adbf3",
          "display": "Victor Lagarde"
        },
        "effectiveDateTime": "2021-04-02T04:48:18Z",
        "specimen": {
          "reference": "urn:uuid:59b19a78-37c1-404e-8e06-1f4a8556bdb8"
        }
      }
    },
    {
      "fullUrl": "urn:uuid:e0ae3138-805d-4492-93bf-4f9b1bcbb81b",
      "resource": {
        "resourceType": "Observation",
        "id": "e0ae3138-805d-4492-93bf-4f9b1bcbb81b",
        "meta": {
          "profile": [
            "http://hl7.eu/fhir/laboratory/StructureDefinition/Observation-resultslab-eu-lab"
          ]
        },
        "performer": [
          {
            "display": "The Central European Lab"
          }
        ],
        "category": [
          {
            "coding": [
              {
                "system": "http://terminology.hl7.org/CodeSystem/observation-category",
                "code": "laboratory"
              }
            ]
          }
        ],
        "code": {
          "coding": [
            {
              "code": "25428-4",
              "system": "http://loinc.org",
              "display": "Glucose [Presence] in Urine by Test strip"
            }
          ],
          "text": "Glucose [Presence] in Urine by Test strip"
        },
        "text": {
          "status": "generated",
          "div": "<div xmlns=\"http://www.w3.org/1999/xhtml\"><table class=\"hl7__eu__lab__report\"><tr><th>Test</th><th>02-Apr-2021</th><th>Reference&#xA0;Range</th><th>Unit</th></tr><tr><td>Glucose [Presence] in Urine by Test strip</td></tr></table></div>"
        },
        "status": "final",
        "subject": {
          "reference": "urn:uuid:647a0e12-7336-43f2-8d78-bb052a5adbf3",
          "display": "Victor Lagarde"
        },
        "effectiveDateTime": "2021-04-02T04:48:18Z",
        "specimen": {
          "reference": "urn:uuid:59b19a78-37c1-404e-8e06-1f4a8556bdb8"
        }
      }
    },
    {
      "fullUrl": "urn:uuid:3072a4cd-6c42-477c-8f8a-1e7fcf5b5bbe",
      "resource": {
        "resourceType": "Observation",
        "id": "3072a4cd-6c42-477c-8f8a-1e7fcf5b5bbe",
        "meta": {
          "profile": [
            "http://hl7.eu/fhir/laboratory/StructureDefinition/Observation-resultslab-eu-lab"
          ]
        },
        "performer": [
          {
            "display": "The Central European Lab"
          }
        ],
        "category": [
          {
            "coding": [
              {
                "system": "http://terminology.hl7.org/CodeSystem/observation-category",
                "code": "laboratory"
              }
            ]
          }
        ],
        "code": {
          "coding": [
            {
              "code": "20505-4",
              "system": "http://loinc.org",
              "display": "Bilirubin.total [Mass/volume] in Urine by Test strip"
            }
          ],
          "text": "Bilirubin.total [Mass/volume] in Urine by Test strip"
        },
        "valueQuantity": {
          "system": "http://unitsofmeasure.org",
          "value": 0.3,
          "unit": "mg/dL",
          "code": "mg/dL"
        },
        "referenceRange": [
          {
            "low": {
              "value": 0,
              "code": "mg/dL",
              "system": "http://unitsofmeasure.org"
            }
          },
          {
            "high": {
              "value": 1.9,
              "code": "mg/dL",
              "system": "http://unitsofmeasure.org"
            }
          }
        ],
        "text": {
          "status": "generated",
          "div": "<div xmlns=\"http://www.w3.org/1999/xhtml\"><table class=\"hl7__eu__lab__report\"><tr><th>Test</th><th>02-Apr-2021</th><th>Reference&#xA0;Range</th><th>Unit</th></tr><tr><td>Bilirubin.total [Mass/volume] in Urine by Test strip</td><td>0.3</td><td>0 - 1.9</td><td></td><td>mg/dL</td></tr></table></div>"
        },
        "status": "final",
        "subject": {
          "reference": "urn:uuid:647a0e12-7336-43f2-8d78-bb052a5adbf3",
          "display": "Victor Lagarde"
        },
        "effectiveDateTime": "2021-04-02T04:48:18Z",
        "specimen": {
          "reference": "urn:uuid:59b19a78-37c1-404e-8e06-1f4a8556bdb8"
        }
      }
    },
    {
      "fullUrl": "urn:uuid:a93f5c46-32ef-4e66-bfe0-6aad91ddc4e9",
      "resource": {
        "resourceType": "Observation",
        "id": "a93f5c46-32ef-4e66-bfe0-6aad91ddc4e9",
        "meta": {
          "profile": [
            "http://hl7.eu/fhir/laboratory/StructureDefinition/Observation-resultslab-eu-lab"
          ]
        },
        "performer": [
          {
            "display": "The Central European Lab"
          }
        ],
        "category": [
          {
            "coding": [
              {
                "system": "http://terminology.hl7.org/CodeSystem/observation-category",
                "code": "laboratory"
              }
            ]
          }
        ],
        "code": {
          "coding": [
            {
              "code": "5770-3",
              "system": "http://loinc.org",
              "display": "Bilirubin.total [Presence] in Urine by Test strip"
            }
          ],
          "text": "Bilirubin.total [Presence] in Urine by Test strip"
        },
        "text": {
          "status": "generated",
          "div": "<div xmlns=\"http://www.w3.org/1999/xhtml\"><table class=\"hl7__eu__lab__report\"><tr><th>Test</th><th>02-Apr-2021</th><th>Reference&#xA0;Range</th><th>Unit</th></tr><tr><td>Bilirubin.total [Presence] in Urine by Test strip</td></tr></table></div>"
        },
        "status": "final",
        "subject": {
          "reference": "urn:uuid:647a0e12-7336-43f2-8d78-bb052a5adbf3",
          "display": "Victor Lagarde"
        },
        "effectiveDateTime": "2021-04-02T04:48:18Z",
        "specimen": {
          "reference": "urn:uuid:59b19a78-37c1-404e-8e06-1f4a8556bdb8"
        }
      }
    },
    {
      "fullUrl": "urn:uuid:b74e9152-200c-4aaa-9bef-6e2b3cdef9d4",
      "resource": {
        "resourceType": "Observation",
        "id": "b74e9152-200c-4aaa-9bef-6e2b3cdef9d4",
        "meta": {
          "profile": [
            "http://hl7.eu/fhir/laboratory/StructureDefinition/Observation-resultslab-eu-lab"
          ]
        },
        "performer": [
          {
            "display": "The Central European Lab"
          }
        ],
        "category": [
          {
            "coding": [
              {
                "system": "http://terminology.hl7.org/CodeSystem/observation-category",
                "code": "laboratory"
              }
            ]
          }
        ],
        "code": {
          "coding": [
            {
              "code": "5797-6",
              "system": "http://loinc.org",
              "display": "Ketones [Mass/volume] in Urine by Test strip"
            }
          ],
          "text": "Ketones [Mass/volume] in Urine by Test strip"
        },
        "valueQuantity": {
          "system": "http://unitsofmeasure.org",
          "value": 14.4,
          "unit": "mg/dL",
          "code": "mg/dL"
        },
        "referenceRange": [
          {
            "low": {
              "value": 0,
              "code": "mg/dL",
              "system": "http://unitsofmeasure.org"
            }
          },
          {
            "high": {
              "value": 3,
              "code": "mg/dL",
              "system": "http://unitsofmeasure.org"
            }
          }
        ],
        "interpretation": [
          {
            "coding": [
              {
                "code": "H",
                "system": "http://terminology.hl7.org/CodeSystem/v3-ObservationInterpretation",
                "display": "High"
              }
            ]
          }
        ],
        "text": {
          "status": "generated",
          "div": "<div xmlns=\"http://www.w3.org/1999/xhtml\"><table class=\"hl7__eu__lab__report\"><tr><th>Test</th><th>02-Apr-2021</th><th>Reference&#xA0;Range</th><th>Unit</th></tr><tr><td>Ketones [Mass/volume] in Urine by Test strip</td><td>14.4</td><td>0 - 3</td><td>H</td><td>mg/dL</td></tr></table></div>"
        },
        "status": "final",
        "subject": {
          "reference": "urn:uuid:647a0e12-7336-43f2-8d78-bb052a5adbf3",
          "display": "Victor Lagarde"
        },
        "effectiveDateTime": "2021-04-02T04:48:18Z",
        "specimen": {
          "reference": "urn:uuid:59b19a78-37c1-404e-8e06-1f4a8556bdb8"
        }
      }
    },
    {
      "fullUrl": "urn:uuid:8214e6a7-5d64-4654-9638-2e28e34e47e1",
      "resource": {
        "resourceType": "Observation",
        "id": "8214e6a7-5d64-4654-9638-2e28e34e47e1",
        "meta": {
          "profile": [
            "http://hl7.eu/fhir/laboratory/StructureDefinition/Observation-resultslab-eu-lab"
          ]
        },
        "performer": [
          {
            "display": "The Central European Lab"
          }
        ],
        "category": [
          {
            "coding": [
              {
                "system": "http://terminology.hl7.org/CodeSystem/observation-category",
                "code": "laboratory"
              }
            ]
          }
        ],
        "code": {
          "coding": [
            {
              "code": "2514-8",
              "system": "http://loinc.org",
              "display": "Ketones [Presence] in Urine by Test strip"
            }
          ],
          "text": "Ketones [Presence] in Urine by Test strip"
        },
        "text": {
          "status": "generated",
          "div": "<div xmlns=\"http://www.w3.org/1999/xhtml\"><table class=\"hl7__eu__lab__report\"><tr><th>Test</th><th>02-Apr-2021</th><th>Reference&#xA0;Range</th><th>Unit</th></tr><tr><td>Ketones [Presence] in Urine by Test strip</td></tr></table></div>"
        },
        "status": "final",
        "subject": {
          "reference": "urn:uuid:647a0e12-7336-43f2-8d78-bb052a5adbf3",
          "display": "Victor Lagarde"
        },
        "effectiveDateTime": "2021-04-02T04:48:18Z",
        "specimen": {
          "reference": "urn:uuid:59b19a78-37c1-404e-8e06-1f4a8556bdb8"
        }
      }
    },
    {
      "fullUrl": "urn:uuid:99d6f9a6-0813-46cd-8856-8c9b5764b794",
      "resource": {
        "resourceType": "Observation",
        "id": "99d6f9a6-0813-46cd-8856-8c9b5764b794",
        "meta": {
          "profile": [
            "http://hl7.eu/fhir/laboratory/StructureDefinition/Observation-resultslab-eu-lab"
          ]
        },
        "performer": [
          {
            "display": "The Central European Lab"
          }
        ],
        "category": [
          {
            "coding": [
              {
                "system": "http://terminology.hl7.org/CodeSystem/observation-category",
                "code": "laboratory"
              }
            ]
          }
        ],
        "code": {
          "coding": [
            {
              "code": "5811-5",
              "system": "http://loinc.org",
              "display": "Specific gravity of Urine by Test strip"
            }
          ],
          "text": "Specific gravity of Urine by Test strip"
        },
        "valueQuantity": {
          "system": "http://unitsofmeasure.org",
          "value": 1,
          "unit": "{nominal}",
          "code": "{nominal}"
        },
        "referenceRange": [
          {
            "low": {
              "value": 1.01,
              "code": "g/mL",
              "system": "http://unitsofmeasure.org"
            }
          },
          {
            "high": {
              "value": 1.03,
              "code": "g/mL",
              "system": "http://unitsofmeasure.org"
            }
          }
        ],
        "interpretation": [
          {
            "coding": [
              {
                "code": "L",
                "system": "http://terminology.hl7.org/CodeSystem/v3-ObservationInterpretation",
                "display": "Low"
              }
            ]
          }
        ],
        "text": {
          "status": "generated",
          "div": "<div xmlns=\"http://www.w3.org/1999/xhtml\"><table class=\"hl7__eu__lab__report\"><tr><th>Test</th><th>02-Apr-2021</th><th>Reference&#xA0;Range</th><th>Unit</th></tr><tr><td>Specific gravity of Urine by Test strip</td><td>1.0</td><td>1.01 - 1.03</td><td>L</td><td>{nominal}</td></tr></table></div>"
        },
        "status": "final",
        "subject": {
          "reference": "urn:uuid:647a0e12-7336-43f2-8d78-bb052a5adbf3",
          "display": "Victor Lagarde"
        },
        "effectiveDateTime": "2021-04-02T04:48:18Z",
        "specimen": {
          "reference": "urn:uuid:59b19a78-37c1-404e-8e06-1f4a8556bdb8"
        }
      }
    },
    {
      "fullUrl": "urn:uuid:a890180e-48be-4544-80fd-7e3ac6d85d13",
      "resource": {
        "resourceType": "Observation",
        "id": "a890180e-48be-4544-80fd-7e3ac6d85d13",
        "meta": {
          "profile": [
            "http://hl7.eu/fhir/laboratory/StructureDefinition/Observation-resultslab-eu-lab"
          ]
        },
        "performer": [
          {
            "display": "The Central European Lab"
          }
        ],
        "category": [
          {
            "coding": [
              {
                "system": "http://terminology.hl7.org/CodeSystem/observation-category",
                "code": "laboratory"
              }
            ]
          }
        ],
        "code": {
          "coding": [
            {
              "code": "5803-2",
              "system": "http://loinc.org",
              "display": "pH of Urine by Test strip"
            }
          ],
          "text": "pH of Urine by Test strip"
        },
        "valueQuantity": {
          "system": "http://unitsofmeasure.org",
          "value": 6,
          "unit": "pH",
          "code": "pH"
        },
        "referenceRange": [
          {
            "low": {
              "value": 4.5,
              "code": "pH",
              "system": "http://unitsofmeasure.org"
            }
          },
          {
            "high": {
              "value": 7.5,
              "code": "pH",
              "system": "http://unitsofmeasure.org"
            }
          }
        ],
        "text": {
          "status": "generated",
          "div": "<div xmlns=\"http://www.w3.org/1999/xhtml\"><table class=\"hl7__eu__lab__report\"><tr><th>Test</th><th>02-Apr-2021</th><th>Reference&#xA0;Range</th><th>Unit</th></tr><tr><td>pH of Urine by Test strip</td><td>6.0</td><td>4.5 - 7.5</td><td></td><td>pH</td></tr></table></div>"
        },
        "status": "final",
        "subject": {
          "reference": "urn:uuid:647a0e12-7336-43f2-8d78-bb052a5adbf3",
          "display": "Victor Lagarde"
        },
        "effectiveDateTime": "2021-04-02T04:48:18Z",
        "specimen": {
          "reference": "urn:uuid:59b19a78-37c1-404e-8e06-1f4a8556bdb8"
        }
      }
    },
    {
      "fullUrl": "urn:uuid:280a9044-5737-48b1-807b-a4261e871608",
      "resource": {
        "resourceType": "Observation",
        "id": "280a9044-5737-48b1-807b-a4261e871608",
        "meta": {
          "profile": [
            "http://hl7.eu/fhir/laboratory/StructureDefinition/Observation-resultslab-eu-lab"
          ]
        },
        "performer": [
          {
            "display": "The Central European Lab"
          }
        ],
        "category": [
          {
            "coding": [
              {
                "system": "http://terminology.hl7.org/CodeSystem/observation-category",
                "code": "laboratory"
              }
            ]
          }
        ],
        "code": {
          "coding": [
            {
              "code": "5804-0",
              "system": "http://loinc.org",
              "display": "Protein [Mass/volume] in Urine by Test strip"
            }
          ],
          "text": "Protein [Mass/volume] in Urine by Test strip"
        },
        "valueQuantity": {
          "system": "http://unitsofmeasure.org",
          "value": 291.1,
          "unit": "mg/dL",
          "code": "mg/dL"
        },
        "referenceRange": [
          {
            "low": {
              "value": 0,
              "code": "mg/dL",
              "system": "http://unitsofmeasure.org"
            }
          },
          {
            "high": {
              "value": 149,
              "code": "mg/dL",
              "system": "http://unitsofmeasure.org"
            }
          }
        ],
        "interpretation": [
          {
            "coding": [
              {
                "code": "H",
                "system": "http://terminology.hl7.org/CodeSystem/v3-ObservationInterpretation",
                "display": "High"
              }
            ]
          }
        ],
        "text": {
          "status": "generated",
          "div": "<div xmlns=\"http://www.w3.org/1999/xhtml\"><table class=\"hl7__eu__lab__report\"><tr><th>Test</th><th>02-Apr-2021</th><th>Reference&#xA0;Range</th><th>Unit</th></tr><tr><td>Protein [Mass/volume] in Urine by Test strip</td><td>291.1</td><td>0 - 149</td><td>H</td><td>mg/dL</td></tr></table></div>"
        },
        "status": "final",
        "subject": {
          "reference": "urn:uuid:647a0e12-7336-43f2-8d78-bb052a5adbf3",
          "display": "Victor Lagarde"
        },
        "effectiveDateTime": "2021-04-02T04:48:18Z",
        "specimen": {
          "reference": "urn:uuid:59b19a78-37c1-404e-8e06-1f4a8556bdb8"
        }
      }
    },
    {
      "fullUrl": "urn:uuid:a24993ac-5512-46c5-90b3-fd2aa5fea214",
      "resource": {
        "resourceType": "Observation",
        "id": "a24993ac-5512-46c5-90b3-fd2aa5fea214",
        "meta": {
          "profile": [
            "http://hl7.eu/fhir/laboratory/StructureDefinition/Observation-resultslab-eu-lab"
          ]
        },
        "performer": [
          {
            "display": "The Central European Lab"
          }
        ],
        "category": [
          {
            "coding": [
              {
                "system": "http://terminology.hl7.org/CodeSystem/observation-category",
                "code": "laboratory"
              }
            ]
          }
        ],
        "code": {
          "coding": [
            {
              "code": "20454-5",
              "system": "http://loinc.org",
              "display": "Protein [Presence] in Urine by Test strip"
            }
          ],
          "text": "Protein [Presence] in Urine by Test strip"
        },
        "text": {
          "status": "generated",
          "div": "<div xmlns=\"http://www.w3.org/1999/xhtml\"><table class=\"hl7__eu__lab__report\"><tr><th>Test</th><th>02-Apr-2021</th><th>Reference&#xA0;Range</th><th>Unit</th></tr><tr><td>Protein [Presence] in Urine by Test strip</td></tr></table></div>"
        },
        "status": "final",
        "subject": {
          "reference": "urn:uuid:647a0e12-7336-43f2-8d78-bb052a5adbf3",
          "display": "Victor Lagarde"
        },
        "effectiveDateTime": "2021-04-02T04:48:18Z",
        "specimen": {
          "reference": "urn:uuid:59b19a78-37c1-404e-8e06-1f4a8556bdb8"
        }
      }
    },
    {
      "fullUrl": "urn:uuid:714b5719-b38f-4243-83bd-0df845ae014d",
      "resource": {
        "resourceType": "Observation",
        "id": "714b5719-b38f-4243-83bd-0df845ae014d",
        "meta": {
          "profile": [
            "http://hl7.eu/fhir/laboratory/StructureDefinition/Observation-resultslab-eu-lab"
          ]
        },
        "performer": [
          {
            "display": "The Central European Lab"
          }
        ],
        "category": [
          {
            "coding": [
              {
                "system": "http://terminology.hl7.org/CodeSystem/observation-category",
                "code": "laboratory"
              }
            ]
          }
        ],
        "code": {
          "coding": [
            {
              "code": "5802-4",
              "system": "http://loinc.org",
              "display": "Nitrite [Presence] in Urine by Test strip"
            }
          ],
          "text": "Nitrite [Presence] in Urine by Test strip"
        },
        "text": {
          "status": "generated",
          "div": "<div xmlns=\"http://www.w3.org/1999/xhtml\"><table class=\"hl7__eu__lab__report\"><tr><th>Test</th><th>02-Apr-2021</th><th>Reference&#xA0;Range</th><th>Unit</th></tr><tr><td>Nitrite [Presence] in Urine by Test strip</td></tr></table></div>"
        },
        "status": "final",
        "subject": {
          "reference": "urn:uuid:647a0e12-7336-43f2-8d78-bb052a5adbf3",
          "display": "Victor Lagarde"
        },
        "effectiveDateTime": "2021-04-02T04:48:18Z",
        "specimen": {
          "reference": "urn:uuid:59b19a78-37c1-404e-8e06-1f4a8556bdb8"
        }
      }
    },
    {
      "fullUrl": "urn:uuid:cc8a1b39-e92f-4520-b80b-006e2c1d27bc",
      "resource": {
        "resourceType": "Observation",
        "id": "cc8a1b39-e92f-4520-b80b-006e2c1d27bc",
        "meta": {
          "profile": [
            "http://hl7.eu/fhir/laboratory/StructureDefinition/Observation-resultslab-eu-lab"
          ]
        },
        "performer": [
          {
            "display": "The Central European Lab"
          }
        ],
        "category": [
          {
            "coding": [
              {
                "system": "http://terminology.hl7.org/CodeSystem/observation-category",
                "code": "laboratory"
              }
            ]
          }
        ],
        "code": {
          "coding": [
            {
              "code": "5794-3",
              "system": "http://loinc.org",
              "display": "Hemoglobin [Presence] in Urine by Test strip"
            }
          ],
          "text": "Hemoglobin [Presence] in Urine by Test strip"
        },
        "text": {
          "status": "generated",
          "div": "<div xmlns=\"http://www.w3.org/1999/xhtml\"><table class=\"hl7__eu__lab__report\"><tr><th>Test</th><th>02-Apr-2021</th><th>Reference&#xA0;Range</th><th>Unit</th></tr><tr><td>Hemoglobin [Presence] in Urine by Test strip</td></tr></table></div>"
        },
        "status": "final",
        "subject": {
          "reference": "urn:uuid:647a0e12-7336-43f2-8d78-bb052a5adbf3",
          "display": "Victor Lagarde"
        },
        "effectiveDateTime": "2021-04-02T04:48:18Z",
        "specimen": {
          "reference": "urn:uuid:59b19a78-37c1-404e-8e06-1f4a8556bdb8"
        }
      }
    },
    {
      "fullUrl": "urn:uuid:9cb06bfe-7391-461e-bcfa-9f5343736692",
      "resource": {
        "resourceType": "Observation",
        "id": "9cb06bfe-7391-461e-bcfa-9f5343736692",
        "meta": {
          "profile": [
            "http://hl7.eu/fhir/laboratory/StructureDefinition/Observation-resultslab-eu-lab"
          ]
        },
        "performer": [
          {
            "display": "The Central European Lab"
          }
        ],
        "category": [
          {
            "coding": [
              {
                "system": "http://terminology.hl7.org/CodeSystem/observation-category",
                "code": "laboratory"
              }
            ]
          }
        ],
        "code": {
          "coding": [
            {
              "code": "5799-2",
              "system": "http://loinc.org",
              "display": "Leukocyte esterase [Presence] in Urine by Test strip"
            }
          ],
          "text": "Leukocyte esterase [Presence] in Urine by Test strip"
        },
        "text": {
          "status": "generated",
          "div": "<div xmlns=\"http://www.w3.org/1999/xhtml\"><table class=\"hl7__eu__lab__report\"><tr><th>Test</th><th>02-Apr-2021</th><th>Reference&#xA0;Range</th><th>Unit</th></tr><tr><td>Leukocyte esterase [Presence] in Urine by Test strip</td></tr></table></div>"
        },
        "status": "final",
        "subject": {
          "reference": "urn:uuid:647a0e12-7336-43f2-8d78-bb052a5adbf3",
          "display": "Victor Lagarde"
        },
        "effectiveDateTime": "2021-04-02T04:48:18Z",
        "specimen": {
          "reference": "urn:uuid:59b19a78-37c1-404e-8e06-1f4a8556bdb8"
        }
      }
    },
    {
      "fullUrl": "urn:uuid:ad92be5e-b152-4530-b395-a54a4ce545d7",
      "resource": {
        "resourceType": "Observation",
        "id": "ad92be5e-b152-4530-b395-a54a4ce545d7",
        "meta": {
          "profile": [
            "http://hl7.eu/fhir/laboratory/StructureDefinition/Observation-resultslab-eu-lab"
          ]
        },
        "performer": [
          {
            "display": "The Central European Lab"
          }
        ],
        "category": [
          {
            "coding": [
              {
                "system": "http://terminology.hl7.org/CodeSystem/observation-category",
                "code": "laboratory"
              }
            ]
          }
        ],
        "code": {
          "coding": [
            {
              "code": "4548-4",
              "system": "http://loinc.org",
              "display": "Hemoglobin A1c/Hemoglobin.total in Blood"
            }
          ],
          "text": "Hemoglobin A1c/Hemoglobin.total in Blood"
        },
        "valueQuantity": {
          "system": "http://unitsofmeasure.org",
          "value": 3.2,
          "unit": "%",
          "code": "%"
        },
        "referenceRange": [
          {
            "low": {
              "value": 4.3,
              "code": "%",
              "system": "http://unitsofmeasure.org"
            }
          },
          {
            "high": {
              "value": 6,
              "code": "%",
              "system": "http://unitsofmeasure.org"
            }
          }
        ],
        "interpretation": [
          {
            "coding": [
              {
                "code": "L",
                "system": "http://terminology.hl7.org/CodeSystem/v3-ObservationInterpretation",
                "display": "Low"
              }
            ]
          }
        ],
        "text": {
          "status": "generated",
          "div": "<div xmlns=\"http://www.w3.org/1999/xhtml\"><table class=\"hl7__eu__lab__report\"><tr><th>Test</th><th>02-Apr-2021</th><th>Reference&#xA0;Range</th><th>Unit</th></tr><tr><td>Hemoglobin A1c/Hemoglobin.total in Blood</td><td>3.2</td><td>4.3 - 6</td><td>L</td><td>%</td></tr></table></div>"
        },
        "status": "final",
        "subject": {
          "reference": "urn:uuid:647a0e12-7336-43f2-8d78-bb052a5adbf3",
          "display": "Victor Lagarde"
        },
        "effectiveDateTime": "2021-04-02T04:48:18Z",
        "specimen": {
          "reference": "urn:uuid:30cdb27a-0a07-4f60-9eda-6a953ea92556"
        }
      }
    },
    {
      "fullUrl": "urn:uuid:a90dbbb1-0c09-4346-9927-9014595aad52",
      "resource": {
        "resourceType": "Observation",
        "id": "a90dbbb1-0c09-4346-9927-9014595aad52",
        "meta": {
          "profile": [
            "http://hl7.eu/fhir/laboratory/StructureDefinition/Observation-resultslab-eu-lab"
          ]
        },
        "performer": [
          {
            "display": "The Central European Lab"
          }
        ],
        "category": [
          {
            "coding": [
              {
                "system": "http://terminology.hl7.org/CodeSystem/observation-category",
                "code": "laboratory"
              }
            ]
          }
        ],
        "code": {
          "coding": [
            {
              "code": "2339-0",
              "system": "http://loinc.org",
              "display": "Glucose [Mass/volume] in Blood"
            }
          ],
          "text": "Glucose [Mass/volume] in Blood"
        },
        "valueQuantity": {
          "system": "http://unitsofmeasure.org",
          "value": 76.4,
          "unit": "mg/dL",
          "code": "mg/dL"
        },
        "referenceRange": [
          {
            "low": {
              "value": 70,
              "code": "mg/dL",
              "system": "http://unitsofmeasure.org"
            }
          },
          {
            "high": {
              "value": 140,
              "code": "mg/dL",
              "system": "http://unitsofmeasure.org"
            }
          }
        ],
        "text": {
          "status": "generated",
          "div": "<div xmlns=\"http://www.w3.org/1999/xhtml\"><table class=\"hl7__eu__lab__report\"><tr><th>Test</th><th>02-Apr-2021</th><th>Reference&#xA0;Range</th><th>Unit</th></tr><tr><td>Glucose [Mass/volume] in Blood</td><td>76.4</td><td>70 - 140</td><td></td><td>mg/dL</td></tr></table></div>"
        },
        "status": "final",
        "subject": {
          "reference": "urn:uuid:647a0e12-7336-43f2-8d78-bb052a5adbf3",
          "display": "Victor Lagarde"
        },
        "effectiveDateTime": "2021-04-02T04:48:18Z",
        "specimen": {
          "reference": "urn:uuid:30cdb27a-0a07-4f60-9eda-6a953ea92556"
        }
      }
    },
    {
      "fullUrl": "urn:uuid:08d8ee0d-b08e-41e8-9831-19c00a05bda2",
      "resource": {
        "resourceType": "Observation",
        "id": "08d8ee0d-b08e-41e8-9831-19c00a05bda2",
        "meta": {
          "profile": [
            "http://hl7.eu/fhir/laboratory/StructureDefinition/Observation-resultslab-eu-lab"
          ]
        },
        "performer": [
          {
            "display": "The Central European Lab"
          }
        ],
        "category": [
          {
            "coding": [
              {
                "system": "http://terminology.hl7.org/CodeSystem/observation-category",
                "code": "laboratory"
              }
            ]
          }
        ],
        "code": {
          "coding": [
            {
              "code": "6299-2",
              "system": "http://loinc.org",
              "display": "Urea nitrogen [Mass/volume] in Blood"
            }
          ],
          "text": "Urea nitrogen [Mass/volume] in Blood"
        },
        "valueQuantity": {
          "system": "http://unitsofmeasure.org",
          "value": 18,
          "unit": "mg/dL",
          "code": "mg/dL"
        },
        "referenceRange": [
          {
            "low": {
              "value": 7,
              "code": "mg/dL",
              "system": "http://unitsofmeasure.org"
            }
          },
          {
            "high": {
              "value": 20,
              "code": "mg/dL",
              "system": "http://unitsofmeasure.org"
            }
          }
        ],
        "text": {
          "status": "generated",
          "div": "<div xmlns=\"http://www.w3.org/1999/xhtml\"><table class=\"hl7__eu__lab__report\"><tr><th>Test</th><th>02-Apr-2021</th><th>Reference&#xA0;Range</th><th>Unit</th></tr><tr><td>Urea nitrogen [Mass/volume] in Blood</td><td>18.0</td><td>7 - 20</td><td></td><td>mg/dL</td></tr></table></div>"
        },
        "status": "final",
        "subject": {
          "reference": "urn:uuid:647a0e12-7336-43f2-8d78-bb052a5adbf3",
          "display": "Victor Lagarde"
        },
        "effectiveDateTime": "2021-04-02T04:48:18Z",
        "specimen": {
          "reference": "urn:uuid:30cdb27a-0a07-4f60-9eda-6a953ea92556"
        }
      }
    },
    {
      "fullUrl": "urn:uuid:7f3584bc-6202-471e-b20a-f4d1c5251ee1",
      "resource": {
        "resourceType": "Observation",
        "id": "7f3584bc-6202-471e-b20a-f4d1c5251ee1",
        "meta": {
          "profile": [
            "http://hl7.eu/fhir/laboratory/StructureDefinition/Observation-resultslab-eu-lab"
          ]
        },
        "performer": [
          {
            "display": "The Central European Lab"
          }
        ],
        "category": [
          {
            "coding": [
              {
                "system": "http://terminology.hl7.org/CodeSystem/observation-category",
                "code": "laboratory"
              }
            ]
          }
        ],
        "code": {
          "coding": [
            {
              "code": "38483-4",
              "system": "http://loinc.org",
              "display": "Creatinine [Mass/volume] in Blood"
            }
          ],
          "text": "Creatinine [Mass/volume] in Blood"
        },
        "valueQuantity": {
          "system": "http://unitsofmeasure.org",
          "value": 2.8,
          "unit": "mg/dL",
          "code": "mg/dL"
        },
        "referenceRange": [
          {
            "low": {
              "value": 0.9,
              "code": "mg/dL",
              "system": "http://unitsofmeasure.org"
            }
          },
          {
            "high": {
              "value": 1.3,
              "code": "mg/dL",
              "system": "http://unitsofmeasure.org"
            }
          }
        ],
        "interpretation": [
          {
            "coding": [
              {
                "code": "H",
                "system": "http://terminology.hl7.org/CodeSystem/v3-ObservationInterpretation",
                "display": "High"
              }
            ]
          }
        ],
        "text": {
          "status": "generated",
          "div": "<div xmlns=\"http://www.w3.org/1999/xhtml\"><table class=\"hl7__eu__lab__report\"><tr><th>Test</th><th>02-Apr-2021</th><th>Reference&#xA0;Range</th><th>Unit</th></tr><tr><td>Creatinine [Mass/volume] in Blood</td><td>2.8</td><td>0.9 - 1.3</td><td>H</td><td>mg/dL</td></tr></table></div>"
        },
        "status": "final",
        "subject": {
          "reference": "urn:uuid:647a0e12-7336-43f2-8d78-bb052a5adbf3",
          "display": "Victor Lagarde"
        },
        "effectiveDateTime": "2021-04-02T04:48:18Z",
        "specimen": {
          "reference": "urn:uuid:30cdb27a-0a07-4f60-9eda-6a953ea92556"
        }
      }
    },
    {
      "fullUrl": "urn:uuid:c184f5d7-afae-46b9-a163-5c6a1c745b7c",
      "resource": {
        "resourceType": "Observation",
        "id": "c184f5d7-afae-46b9-a163-5c6a1c745b7c",
        "meta": {
          "profile": [
            "http://hl7.eu/fhir/laboratory/StructureDefinition/Observation-resultslab-eu-lab"
          ]
        },
        "performer": [
          {
            "display": "The Central European Lab"
          }
        ],
        "category": [
          {
            "coding": [
              {
                "system": "http://terminology.hl7.org/CodeSystem/observation-category",
                "code": "laboratory"
              }
            ]
          }
        ],
        "code": {
          "coding": [
            {
              "code": "49765-1",
              "system": "http://loinc.org",
              "display": "Calcium [Mass/volume] in Blood"
            }
          ],
          "text": "Calcium [Mass/volume] in Blood"
        },
        "valueQuantity": {
          "system": "http://unitsofmeasure.org",
          "value": 9.3,
          "unit": "mg/dL",
          "code": "mg/dL"
        },
        "referenceRange": [
          {
            "low": {
              "value": 8.5,
              "code": "mg/dL",
              "system": "http://unitsofmeasure.org"
            }
          },
          {
            "high": {
              "value": 10.5,
              "code": "mg/dL",
              "system": "http://unitsofmeasure.org"
            }
          }
        ],
        "text": {
          "status": "generated",
          "div": "<div xmlns=\"http://www.w3.org/1999/xhtml\"><table class=\"hl7__eu__lab__report\"><tr><th>Test</th><th>02-Apr-2021</th><th>Reference&#xA0;Range</th><th>Unit</th></tr><tr><td>Calcium [Mass/volume] in Blood</td><td>9.3</td><td>8.5 - 10.5</td><td></td><td>mg/dL</td></tr></table></div>"
        },
        "status": "final",
        "subject": {
          "reference": "urn:uuid:647a0e12-7336-43f2-8d78-bb052a5adbf3",
          "display": "Victor Lagarde"
        },
        "effectiveDateTime": "2021-04-02T04:48:18Z",
        "specimen": {
          "reference": "urn:uuid:30cdb27a-0a07-4f60-9eda-6a953ea92556"
        }
      }
    },
    {
      "fullUrl": "urn:uuid:48417fb1-0099-4d2f-9006-3442eef4e007",
      "resource": {
        "resourceType": "Observation",
        "id": "48417fb1-0099-4d2f-9006-3442eef4e007",
        "meta": {
          "profile": [
            "http://hl7.eu/fhir/laboratory/StructureDefinition/Observation-resultslab-eu-lab"
          ]
        },
        "performer": [
          {
            "display": "The Central European Lab"
          }
        ],
        "category": [
          {
            "coding": [
              {
                "system": "http://terminology.hl7.org/CodeSystem/observation-category",
                "code": "laboratory"
              }
            ]
          }
        ],
        "code": {
          "coding": [
            {
              "code": "2947-0",
              "system": "http://loinc.org",
              "display": "Sodium [Moles/volume] in Blood"
            }
          ],
          "text": "Sodium [Moles/volume] in Blood"
        },
        "valueQuantity": {
          "system": "http://unitsofmeasure.org",
          "value": 141.1,
          "unit": "mmol/L",
          "code": "mmol/L"
        },
        "referenceRange": [
          {
            "low": {
              "value": 135,
              "code": "mmol/L",
              "system": "http://unitsofmeasure.org"
            }
          },
          {
            "high": {
              "value": 145,
              "code": "mmol/L",
              "system": "http://unitsofmeasure.org"
            }
          }
        ],
        "text": {
          "status": "generated",
          "div": "<div xmlns=\"http://www.w3.org/1999/xhtml\"><table class=\"hl7__eu__lab__report\"><tr><th>Test</th><th>02-Apr-2021</th><th>Reference&#xA0;Range</th><th>Unit</th></tr><tr><td>Sodium [Moles/volume] in Blood</td><td>141.1</td><td>135 - 145</td><td></td><td>mmol/L</td></tr></table></div>"
        },
        "status": "final",
        "subject": {
          "reference": "urn:uuid:647a0e12-7336-43f2-8d78-bb052a5adbf3",
          "display": "Victor Lagarde"
        },
        "effectiveDateTime": "2021-04-02T04:48:18Z",
        "specimen": {
          "reference": "urn:uuid:30cdb27a-0a07-4f60-9eda-6a953ea92556"
        }
      }
    },
    {
      "fullUrl": "urn:uuid:0b232f89-7e12-41f3-9360-86fce986e12a",
      "resource": {
        "resourceType": "Observation",
        "id": "0b232f89-7e12-41f3-9360-86fce986e12a",
        "meta": {
          "profile": [
            "http://hl7.eu/fhir/laboratory/StructureDefinition/Observation-resultslab-eu-lab"
          ]
        },
        "performer": [
          {
            "display": "The Central European Lab"
          }
        ],
        "category": [
          {
            "coding": [
              {
                "system": "http://terminology.hl7.org/CodeSystem/observation-category",
                "code": "laboratory"
              }
            ]
          }
        ],
        "code": {
          "coding": [
            {
              "code": "6298-4",
              "system": "http://loinc.org",
              "display": "Potassium [Moles/volume] in Blood"
            }
          ],
          "text": "Potassium [Moles/volume] in Blood"
        },
        "valueQuantity": {
          "system": "http://unitsofmeasure.org",
          "value": 4.8,
          "unit": "mmol/L",
          "code": "mmol/L"
        },
        "referenceRange": [
          {
            "low": {
              "value": 3.5,
              "code": "mmol/L",
              "system": "http://unitsofmeasure.org"
            }
          },
          {
            "high": {
              "value": 5.1,
              "code": "mmol/L",
              "system": "http://unitsofmeasure.org"
            }
          }
        ],
        "text": {
          "status": "generated",
          "div": "<div xmlns=\"http://www.w3.org/1999/xhtml\"><table class=\"hl7__eu__lab__report\"><tr><th>Test</th><th>02-Apr-2021</th><th>Reference&#xA0;Range</th><th>Unit</th></tr><tr><td>Potassium [Moles/volume] in Blood</td><td>4.8</td><td>3.5 - 5.1</td><td></td><td>mmol/L</td></tr></table></div>"
        },
        "status": "final",
        "subject": {
          "reference": "urn:uuid:647a0e12-7336-43f2-8d78-bb052a5adbf3",
          "display": "Victor Lagarde"
        },
        "effectiveDateTime": "2021-04-02T04:48:18Z",
        "specimen": {
          "reference": "urn:uuid:30cdb27a-0a07-4f60-9eda-6a953ea92556"
        }
      }
    },
    {
      "fullUrl": "urn:uuid:9a8bf210-c652-476c-a3db-004ecc677c71",
      "resource": {
        "resourceType": "Observation",
        "id": "9a8bf210-c652-476c-a3db-004ecc677c71",
        "meta": {
          "profile": [
            "http://hl7.eu/fhir/laboratory/StructureDefinition/Observation-resultslab-eu-lab"
          ]
        },
        "performer": [
          {
            "display": "The Central European Lab"
          }
        ],
        "category": [
          {
            "coding": [
              {
                "system": "http://terminology.hl7.org/CodeSystem/observation-category",
                "code": "laboratory"
              }
            ]
          }
        ],
        "code": {
          "coding": [
            {
              "code": "2069-3",
              "system": "http://loinc.org",
              "display": "Chloride [Moles/volume] in Blood"
            }
          ],
          "text": "Chloride [Moles/volume] in Blood"
        },
        "valueQuantity": {
          "system": "http://unitsofmeasure.org",
          "value": 106.9,
          "unit": "mmol/L",
          "code": "mmol/L"
        },
        "referenceRange": [
          {
            "low": {
              "value": 98,
              "code": "mmol/L",
              "system": "http://unitsofmeasure.org"
            }
          },
          {
            "high": {
              "value": 108,
              "code": "mmol/L",
              "system": "http://unitsofmeasure.org"
            }
          }
        ],
        "text": {
          "status": "generated",
          "div": "<div xmlns=\"http://www.w3.org/1999/xhtml\"><table class=\"hl7__eu__lab__report\"><tr><th>Test</th><th>02-Apr-2021</th><th>Reference&#xA0;Range</th><th>Unit</th></tr><tr><td>Chloride [Moles/volume] in Blood</td><td>106.9</td><td>98 - 108</td><td></td><td>mmol/L</td></tr></table></div>"
        },
        "status": "final",
        "subject": {
          "reference": "urn:uuid:647a0e12-7336-43f2-8d78-bb052a5adbf3",
          "display": "Victor Lagarde"
        },
        "effectiveDateTime": "2021-04-02T04:48:18Z",
        "specimen": {
          "reference": "urn:uuid:30cdb27a-0a07-4f60-9eda-6a953ea92556"
        }
      }
    },
    {
      "fullUrl": "urn:uuid:7679ac5b-2dcc-4e0e-905e-41b0e7ecffa4",
      "resource": {
        "resourceType": "Observation",
        "id": "7679ac5b-2dcc-4e0e-905e-41b0e7ecffa4",
        "meta": {
          "profile": [
            "http://hl7.eu/fhir/laboratory/StructureDefinition/Observation-resultslab-eu-lab"
          ]
        },
        "performer": [
          {
            "display": "The Central European Lab"
          }
        ],
        "category": [
          {
            "coding": [
              {
                "system": "http://terminology.hl7.org/CodeSystem/observation-category",
                "code": "laboratory"
              }
            ]
          }
        ],
        "code": {
          "coding": [
            {
              "code": "20565-8",
              "system": "http://loinc.org",
              "display": "Carbon dioxide, total [Moles/volume] in Blood"
            }
          ],
          "text": "Carbon dioxide, total [Moles/volume] in Blood"
        },
        "valueQuantity": {
          "system": "http://unitsofmeasure.org",
          "value": 28.2,
          "unit": "mmol/L",
          "code": "mmol/L"
        },
        "referenceRange": [
          {
            "low": {
              "value": 22,
              "code": "mmol/L",
              "system": "http://unitsofmeasure.org"
            }
          },
          {
            "high": {
              "value": 29,
              "code": "mmol/L",
              "system": "http://unitsofmeasure.org"
            }
          }
        ],
        "text": {
          "status": "generated",
          "div": "<div xmlns=\"http://www.w3.org/1999/xhtml\"><table class=\"hl7__eu__lab__report\"><tr><th>Test</th><th>02-Apr-2021</th><th>Reference&#xA0;Range</th><th>Unit</th></tr><tr><td>Carbon dioxide, total [Moles/volume] in Blood</td><td>28.2</td><td>22 - 29</td><td></td><td>mmol/L</td></tr></table></div>"
        },
        "status": "final",
        "subject": {
          "reference": "urn:uuid:647a0e12-7336-43f2-8d78-bb052a5adbf3",
          "display": "Victor Lagarde"
        },
        "effectiveDateTime": "2021-04-02T04:48:18Z",
        "specimen": {
          "reference": "urn:uuid:30cdb27a-0a07-4f60-9eda-6a953ea92556"
        }
      }
    },
    {
      "fullUrl": "urn:uuid:1d1e1eb1-ec30-4097-a64a-9c369ca25f02",
      "resource": {
        "resourceType": "Device",
        "id": "1d1e1eb1-ec30-4097-a64a-9c369ca25f02",
        "deviceName": [
          {
            "name": "SYNDERAI Synthetic Generator",
            "type": "manufacturer-name"
          }
        ],
        "version": [
          {
            "value": "5.0"
          }
        ],
        "text": {
          "status": "generated",
          "div": "<div xmlns=\"http://www.w3.org/1999/xhtml\">SYNDERAI Synthetic Generator v5.0</div>"
        },
        "status": "active\"",
        "distinctIdentifier": "synderai-generator-50",
        "manufacturer": "SYNDERAI Project"
      }
    },
    {
      "fullUrl": "urn:uuid:253bface-72c9-4a76-a325-f2275dc88e8c",
      "resource": {
        "resourceType": "Provenance",
        "id": "253bface-72c9-4a76-a325-f2275dc88e8c",
        "target": [
          {
            "reference": "Patient/647a0e12-7336-43f2-8d78-bb052a5adbf3"
          },
          {
            "reference": "Bundle/4304bd2a-62e7-4852-b8e0-877854f68a87"
          },
          {
            "reference": "Composition/5982f8fb-2782-4b73-8559-82e880195b7c"
          },
          {
            "reference": "PractitionerRole/d5e2a246-720f-4867-8b34-bfac3a725bd3"
          },
          {
            "reference": "Practitioner/9ad37b80-3682-452e-bc48-17722bc259fe"
          },
          {
            "reference": "PractitionerRole/5180ad88-c16a-4267-9a64-f34f18a7b410"
          },
          {
            "reference": "Organization/1cc24d28-9854-435f-bcb9-caf6c3f229e8"
          }
        ],
        "activity": {
          "text": "Synthetic Example Data Generation"
        },
        "policy": [
          "https://synderai.net/synderai-synthetic-data-policy"
        ],
        "agent": [
          {
            "type": {
              "text": "author"
            },
            "who": {
              "reference": "Device/1d1e1eb1-ec30-4097-a64a-9c369ca25f02"
            }
          }
        ],
        "reason": [
          {
            "text": "Interoperability Testing and Training (non-clinical use)"
          }
        ],
        "text": {
          "status": "generated",
          "div": "<div xmlns=\"http://www.w3.org/1999/xhtml\">Provenance for SYNDERAI Synthetic Example Data Resource</div>"
        },
        "recorded": "2021-04-02T06:48:18Z"
      }
    },
    {
      "fullUrl": "urn:uuid:d5e2a246-720f-4867-8b34-bfac3a725bd3",
      "resource": {
        "resourceType": "PractitionerRole",
        "id": "d5e2a246-720f-4867-8b34-bfac3a725bd3",
        "meta": {
          "profile": [
            "http://hl7.eu/fhir/base/StructureDefinition/practitionerRole-eu"
          ]
        },
        "text": {
          "status": "generated",
          "div": "<div xmlns=\"http://www.w3.org/1999/xhtml\">Laboratory Role Id: d5e2a246-720f-4867-8b34-bfac3a725bd3</div>"
        },
        "practitioner": {
          "reference": "urn:uuid:9ad37b80-3682-452e-bc48-17722bc259fe"
        }
      }
    },
    {
      "fullUrl": "urn:uuid:9ad37b80-3682-452e-bc48-17722bc259fe",
      "resource": {
        "resourceType": "Practitioner",
        "id": "9ad37b80-3682-452e-bc48-17722bc259fe",
        "meta": {
          "profile": [
            "http://hl7.eu/fhir/base/StructureDefinition/practitioner-eu"
          ]
        },
        "identifier": [
          {
            "assigner": {
              "display": "HL7 Europe"
            },
            "system": "urn:oid:2.16.840.1.113883.2.51.999",
            "value": "ff9b49c0-c94b-4d93-a414-cd45e9a9e326"
          }
        ],
        "name": [
          {
            "prefix": [
              "dr"
            ],
            "given": [
              "Ex"
            ],
            "family": "Ample"
          }
        ],
        "address": [
          {
            "line": [
              "Laboratoire Central Européenne",
              "Boulevard du Jardin Botanique 32"
            ],
            "postalCode": "1000",
            "city": "Brussels",
            "country": "Belgium"
          }
        ],
        "text": {
          "status": "generated",
          "div": "<div xmlns=\"http://www.w3.org/1999/xhtml\">Laboratory: Laboratoire Central Européenne, 1000 Brussels, Belgium</div>"
        }
      }
    }
  ],
  "type": "document",
  "timestamp": "2021-04-02T06:48:18Z"
}
