{
  "resourceType": "Bundle",
  "id": "8a9484d3-536f-4f7f-b5b2-ffbe585104b2",
  "meta": {
    "profile": [
      "http://hl7.eu/fhir/laboratory/StructureDefinition/Bundle-eu-lab"
    ]
  },
  "identifier": {
    "assigner": {
      "display": "HL7 Europe"
    },
    "system": "urn:oid:2.16.840.1.113883.2.51.999",
    "value": "241a2a3b-4c5b-4624-9f2a-bc4219c8bde8"
  },
  "entry": [
    {
      "fullUrl": "urn:uuid:54f5ffdd-ddf5-445c-af97-61e66152c1ed",
      "resource": {
        "resourceType": "Composition",
        "id": "54f5ffdd-ddf5-445c-af97-61e66152c1ed",
        "meta": {
          "profile": [
            "http://hl7.eu/fhir/laboratory/StructureDefinition/Composition-eu-lab"
          ]
        },
        "identifier": {
          "assigner": {
            "display": "HL7 Europe"
          },
          "system": "urn:oid:2.16.840.1.113883.2.51.999",
          "value": "54c5e79c-0ffd-4a9a-8dbb-23ace806e56a"
        },
        "author": [
          {
            "reference": "urn:uuid:0ee18b95-f5f2-42b9-af99-549cb1101e0f"
          }
        ],
        "category": [
          {
            "coding": [
              {
                "code": "26436-6",
                "system": "http://loinc.org",
                "display": "Laboratory studies (set)"
              }
            ]
          }
        ],
        "type": {
          "coding": [
            {
              "code": "11502-2",
              "system": "http://loinc.org",
              "display": "Laboratory report"
            }
          ],
          "text": "Laboratory Report"
        },
        "section": [
          {
            "code": {
              "coding": [
                {
                  "code": "26436-6",
                  "system": "http://loinc.org",
                  "display": "Laboratory studies (set)"
                }
              ],
              "text": "Laboratory studies"
            },
            "section": [
              {
                "code": {
                  "coding": [
                    {
                      "code": "$18719-5",
                      "system": "http://loinc.org",
                      "display": "Chemistry studies (set)"
                    }
                  ],
                  "text": "Chemistry"
                },
                "entry": [
                  {
                    "reference": "urn:uuid:2e019b37-2e55-4633-a3ee-981b63f99571"
                  },
                  {
                    "reference": "urn:uuid:35410e9f-a75a-4d86-97ff-7cf755d549f3"
                  },
                  {
                    "reference": "urn:uuid:f2983bea-93b5-4185-b7f7-565fa41c9a75"
                  },
                  {
                    "reference": "urn:uuid:ee09e65d-a472-45c5-bae1-4805fbcf5a75"
                  },
                  {
                    "reference": "urn:uuid:89ecf3f0-e827-4005-a1ad-7312459b40db"
                  },
                  {
                    "reference": "urn:uuid:38b414d4-f8d3-4884-8132-8bdb8e9b5be1"
                  },
                  {
                    "reference": "urn:uuid:b7dc93f0-cdbe-4830-8631-9cbd8e1d888d"
                  },
                  {
                    "reference": "urn:uuid:4822b5ed-c7f4-44e9-bb5c-7733daeedf11"
                  },
                  {
                    "reference": "urn:uuid:f2d4f9e4-6c1d-485e-accf-a4a496084b5c"
                  }
                ],
                "text": {
                  "status": "generated",
                  "div": "<div xmlns=\"http://www.w3.org/1999/xhtml\"><h3>Chemistry</h3><table class=\"hl7__eu__lab__report\"><thead><tr><th>Test</th><th>10-MAY-2017</th><th>Reference&#xA0;Range</th><th>Unit</th></tr></thead><tbody><tr><td>Hemoglobin A1c/Hemoglobin.total in Blood</td><td>6.2</td><td>4.5 - 6.4</td><td>%</td></tr><tr><td>Glucose [Mass/volume] in Blood</td><td>90.3</td><td>70 - 140</td><td>mg/dL</td></tr><tr><td>Urea nitrogen [Mass/volume] in Blood</td><td>8.8</td><td>7 - 20</td><td>mg/dL</td></tr><tr><td>Creatinine [Mass/volume] in Blood</td><td>0.9</td><td>0.6 - 1.1</td><td>mg/dL</td></tr><tr><td>Calcium [Mass/volume] in Blood</td><td>9.1</td><td>8.5 - 10.4</td><td>mg/dL</td></tr><tr><td>Sodium [Moles/volume] in Blood</td><td>140.3</td><td>135 - 145</td><td>mmol/L</td></tr><tr><td>Potassium [Moles/volume] in Blood</td><td>4.0</td><td>3.5 - 5.1</td><td>mmol/L</td></tr><tr><td>Chloride [Moles/volume] in Blood</td><td>101.4</td><td>98 - 107</td><td>mmol/L</td></tr><tr><td>Carbon dioxide, total [Moles/volume] in Blood</td><td>25.7</td><td>22 - 29</td><td>mmol/L</td></tr></tbody></table></div>"
                },
                "title": "Chemistry"
              }
            ],
            "title": "Laboratory Report"
          },
          {
            "text": {
              "status": "generated",
              "div": "<div xmlns=\"http://www.w3.org/1999/xhtml\"><h3>Annotation</h3><table class=\"hl7__eu__lab__report\"><tr><th>Conclusion and Recommendations based on this report and previous findings known to us</th></tr><tr><td>All measured laboratory values are within normal limits for this patient, including renal function, electrolytes, and glucose metabolism. Hemoglobin A1c is at the upper end of normal, suggesting good but borderline glycemic control. No acute laboratory abnormalities detected. Continued monitoring is recommended.</td></tr></table></div>"
            },
            "code": {
              "coding": [
                {
                  "system": "http://loinc.org",
                  "code": "48767-8",
                  "display": "Annotation comment"
                }
              ]
            },
            "title": "Annotation comment"
          }
        ],
        "status": "final",
        "subject": {
          "reference": "urn:uuid:bb2d71d7-3b8a-4ad3-9945-ba0b3c713853",
          "display": "Magdolna Balog"
        },
        "date": "2017-05-10T15:34:16Z",
        "title": "Laboratory Report",
        "confidentiality": "N"
      }
    },
    {
      "fullUrl": "urn:uuid:4d6ba406-65d9-4118-b020-3daedeb28c37",
      "resource": {
        "resourceType": "DiagnosticReport",
        "id": "4d6ba406-65d9-4118-b020-3daedeb28c37",
        "meta": {
          "profile": [
            "http://hl7.eu/fhir/laboratory/StructureDefinition/DiagnosticReport-eu-lab"
          ]
        },
        "identifier": [
          {
            "assigner": {
              "display": "HL7 Europe"
            },
            "system": "urn:oid:2.16.840.1.113883.2.51.999",
            "value": "b1fe990e-56d8-46cc-b964-53361ca2b9e2"
          }
        ],
        "extension": [
          {
            "url": "http://hl7.org/fhir/5.0/StructureDefinition/extension-DiagnosticReport.composition",
            "valueReference": {
              "reference": "urn:uuid:54c5e79c-0ffd-4a9a-8dbb-23ace806e56a"
            }
          }
        ],
        "category": [
          {
            "coding": [
              {
                "code": "26436-6",
                "system": "http://loinc.org",
                "display": "Laboratory studies (set)"
              }
            ]
          }
        ],
        "specimen": [
          {
            "reference": "urn:uuid:bef9a971-f0f7-4933-91d2-2f8cf998330e"
          }
        ],
        "result": [
          {
            "reference": "urn:uuid:2e019b37-2e55-4633-a3ee-981b63f99571"
          },
          {
            "reference": "urn:uuid:35410e9f-a75a-4d86-97ff-7cf755d549f3"
          },
          {
            "reference": "urn:uuid:f2983bea-93b5-4185-b7f7-565fa41c9a75"
          },
          {
            "reference": "urn:uuid:ee09e65d-a472-45c5-bae1-4805fbcf5a75"
          },
          {
            "reference": "urn:uuid:89ecf3f0-e827-4005-a1ad-7312459b40db"
          },
          {
            "reference": "urn:uuid:38b414d4-f8d3-4884-8132-8bdb8e9b5be1"
          },
          {
            "reference": "urn:uuid:b7dc93f0-cdbe-4830-8631-9cbd8e1d888d"
          },
          {
            "reference": "urn:uuid:4822b5ed-c7f4-44e9-bb5c-7733daeedf11"
          },
          {
            "reference": "urn:uuid:f2d4f9e4-6c1d-485e-accf-a4a496084b5c"
          }
        ],
        "status": "registered",
        "code": {
          "coding": [
            {
              "code": "11502-2",
              "system": "http://loinc.org",
              "display": "Laboratory report"
            }
          ]
        },
        "subject": {
          "reference": "urn:uuid:bb2d71d7-3b8a-4ad3-9945-ba0b3c713853",
          "display": "Magdolna Balog"
        }
      }
    },
    {
      "fullUrl": "urn:uuid:bb2d71d7-3b8a-4ad3-9945-ba0b3c713853",
      "resource": {
        "resourceType": "Patient",
        "id": "bb2d71d7-3b8a-4ad3-9945-ba0b3c713853",
        "meta": {
          "security": [
            {
              "system": "http://terminology.hl7.org/CodeSystem/v3-ActReason",
              "code": "HTEST"
            },
            {
              "system": "http://terminology.hl7.org/CodeSystem/v3-ActReason",
              "code": "TRAIN"
            }
          ],
          "tag": [
            {
              "system": "https://synderai.net/fhir/CodeSystem/tags",
              "code": "synthetic",
              "display": "SYNDERAI Synthetic data"
            }
          ],
          "profile": [
            "http://hl7.eu/fhir/base/StructureDefinition/patient-eu-core"
          ]
        },
        "identifier": [
          {
            "type": {
              "coding": [
                {
                  "code": "PT",
                  "system": "http://terminology.hl7.org/CodeSystem/v2-0203"
                }
              ]
            },
            "system": "http://ec.europa.eu/identifier/eci",
            "value": "2437-386280-4"
          },
          {
            "type": {
              "coding": [
                {
                  "code": "MR",
                  "system": "http://terminology.hl7.org/CodeSystem/v2-0203"
                }
              ]
            },
            "system": "http://local.setting.eu/identifier",
            "value": "1d8dc8c5-3a85-b1b5-4101-cca776d0be28"
          }
        ],
        "name": [
          {
            "family": "Balog"
          },
          {
            "given": [
              "Magdolna"
            ]
          },
          {
            "text": "Magdolna Balog"
          }
        ],
        "address": [
          {
            "line": [
              "Ady endre utca 160."
            ],
            "use": "home",
            "type": "physical",
            "postalCode": "3989",
            "city": "Némethídfa",
            "country": "Hungary"
          }
        ],
        "telecom": [
          {
            "system": "phone",
            "value": "+36 46 091-2914"
          }
        ],
        "extension": [
          {
            "url": "http://hl7.org/fhir/StructureDefinition/patient-nationality",
            "valueCodeableConcept": {
              "coding": [
                {
                  "code": "HU",
                  "system": "http://hl7.org/fhir/ValueSet/country"
                }
              ]
            }
          }
        ],
        "text": {
          "status": "generated",
          "div": "<div xmlns=\"http://www.w3.org/1999/xhtml\"><table class=\"hl7__ips\"><tr><td>Magdolna Balog</td><td>female</td><td>21-May-1946</td></tr></table></div>"
        },
        "gender": "female",
        "birthDate": "1946-05-21"
      }
    },
    {
      "fullUrl": "urn:uuid:36fc3756-760f-427b-9551-97de0cac0d89",
      "resource": {
        "resourceType": "ServiceRequest",
        "id": "36fc3756-760f-427b-9551-97de0cac0d89",
        "meta": {
          "profile": [
            "http://hl7.eu/fhir/laboratory/StructureDefinition/ServiceRequest-eu-lab"
          ]
        },
        "identifier": [
          {
            "system": "http://example.org",
            "value": "49410f6a-d548-4e51-aee4-ab442199a6e0"
          }
        ],
        "specimen": [
          {
            "reference": "urn:uuid:bef9a971-f0f7-4933-91d2-2f8cf998330e"
          }
        ],
        "reasonCode": [
          {
            "coding": [
              {
                "code": "26929004",
                "system": "http://snomed.info/sct",
                "display": "Alzheimer&#039;s disease"
              }
            ]
          },
          {
            "coding": [
              {
                "code": "414545008",
                "system": "http://snomed.info/sct",
                "display": "Ischemic heart disease"
              }
            ]
          },
          {
            "coding": [
              {
                "code": "49436004",
                "system": "http://snomed.info/sct",
                "display": "Atrial fibrillation"
              }
            ]
          },
          {
            "coding": [
              {
                "code": "64859006",
                "system": "http://snomed.info/sct",
                "display": "Osteoporosis"
              }
            ]
          },
          {
            "coding": [
              {
                "code": "15777000",
                "system": "http://snomed.info/sct",
                "display": "Prediabetes"
              }
            ]
          },
          {
            "coding": [
              {
                "code": "271737000",
                "system": "http://snomed.info/sct",
                "display": "Anemia"
              }
            ]
          }
        ],
        "status": "active",
        "intent": "order",
        "code": {
          "coding": [
            {
              "code": "108252007",
              "system": "http://snomed.info/sct",
              "display": "Laboratory procedure"
            }
          ]
        },
        "subject": {
          "reference": "urn:uuid:bb2d71d7-3b8a-4ad3-9945-ba0b3c713853",
          "display": "Magdolna Balog"
        },
        "requester": {
          "reference": "urn:uuid:e634c1a7-3763-4e62-9fb3-595b71e470b2"
        }
      }
    },
    {
      "fullUrl": "urn:uuid:e634c1a7-3763-4e62-9fb3-595b71e470b2",
      "resource": {
        "resourceType": "PractitionerRole",
        "id": "e634c1a7-3763-4e62-9fb3-595b71e470b2",
        "meta": {
          "profile": [
            "http://hl7.eu/fhir/base/StructureDefinition/practitionerRole-eu"
          ]
        },
        "text": {
          "status": "generated",
          "div": "<div xmlns=\"http://www.w3.org/1999/xhtml\">Provider Role Id: e634c1a7-3763-4e62-9fb3-595b71e470b2</div>"
        },
        "organization": {
          "reference": "urn:uuid:b400a832-6f22-4a44-9e89-8f82c04bfee6"
        }
      }
    },
    {
      "fullUrl": "urn:uuid:b400a832-6f22-4a44-9e89-8f82c04bfee6",
      "resource": {
        "resourceType": "Organization",
        "id": "b400a832-6f22-4a44-9e89-8f82c04bfee6",
        "meta": {
          "profile": [
            "http://hl7.eu/fhir/base/StructureDefinition/organization-eu"
          ]
        },
        "identifier": [
          {
            "assigner": {
              "display": "HL7 Europe"
            },
            "system": "urn:oid:2.16.840.1.113883.2.51.999",
            "value": "6b942ef0-dbce-4fa5-b227-0c678a6a1c2e"
          }
        ],
        "address": [
          {
            "line": [
              "Csabai kapu 9-11"
            ],
            "city": "Miskolc",
            "postalCode": "3529",
            "country": "Hungary"
          }
        ],
        "text": {
          "status": "generated",
          "div": "<div xmlns=\"http://www.w3.org/1999/xhtml\">Provider Organization: Semmelweis Ignác Egészségügyi Központ és Egyetemi Oktató Kórház</div>"
        },
        "name": "Semmelweis Ignác Egészségügyi Központ és Egyetemi Oktató Kórház"
      }
    },
    {
      "fullUrl": "urn:uuid:bef9a971-f0f7-4933-91d2-2f8cf998330e",
      "resource": {
        "resourceType": "Specimen",
        "id": "bef9a971-f0f7-4933-91d2-2f8cf998330e",
        "meta": {
          "profile": [
            "http://hl7.eu/fhir/laboratory/StructureDefinition/Specimen-eu-lab"
          ]
        },
        "collection": {
          "collectedDateTime": "2017-05-10"
        },
        "text": {
          "status": "generated",
          "div": "<div xmlns=\"http://www.w3.org/1999/xhtml\"><table class=\"hl7__eu__lab__report\"><tr><th>Specimen</th><th>Collection Date</th></tr><tr><td>Whole blood specimen (specimen)</td><td><span class=\"nb\">10-May-2017</span></td></tr></table></div>"
        },
        "type": {
          "coding": [
            {
              "code": "258580003",
              "system": "http://snomed.info/sct",
              "display": "Whole blood specimen (specimen)"
            }
          ]
        }
      }
    },
    {
      "fullUrl": "urn:uuid:2e019b37-2e55-4633-a3ee-981b63f99571",
      "resource": {
        "resourceType": "Observation",
        "id": "2e019b37-2e55-4633-a3ee-981b63f99571",
        "meta": {
          "profile": [
            "http://hl7.eu/fhir/laboratory/StructureDefinition/Observation-resultslab-eu-lab"
          ]
        },
        "performer": [
          {
            "display": "The Central European Lab"
          }
        ],
        "category": [
          {
            "coding": [
              {
                "system": "http://terminology.hl7.org/CodeSystem/observation-category",
                "code": "laboratory"
              }
            ]
          }
        ],
        "code": {
          "coding": [
            {
              "code": "4548-4",
              "system": "http://loinc.org",
              "display": "Hemoglobin A1c/Hemoglobin.total in Blood"
            }
          ],
          "text": "Hemoglobin A1c/Hemoglobin.total in Blood"
        },
        "valueQuantity": {
          "system": "http://unitsofmeasure.org",
          "value": 6.2,
          "unit": "%",
          "code": "%"
        },
        "referenceRange": [
          {
            "low": {
              "value": 4.5,
              "code": "%",
              "system": "http://unitsofmeasure.org"
            }
          },
          {
            "high": {
              "value": 6.4,
              "code": "%",
              "system": "http://unitsofmeasure.org"
            }
          }
        ],
        "text": {
          "status": "generated",
          "div": "<div xmlns=\"http://www.w3.org/1999/xhtml\"><table class=\"hl7__eu__lab__report\"><tr><th>Test</th><th>10-May-2017</th><th>Reference&#xA0;Range</th><th>Unit</th></tr><tr><td>Hemoglobin A1c/Hemoglobin.total in Blood</td><td>6.2</td><td>4.5 - 6.4</td><td></td><td>%</td></tr></table></div>"
        },
        "status": "final",
        "subject": {
          "reference": "urn:uuid:bb2d71d7-3b8a-4ad3-9945-ba0b3c713853",
          "display": "Magdolna Balog"
        },
        "effectiveDateTime": "2017-05-10T13:34:16Z",
        "specimen": {
          "reference": "urn:uuid:bef9a971-f0f7-4933-91d2-2f8cf998330e"
        }
      }
    },
    {
      "fullUrl": "urn:uuid:35410e9f-a75a-4d86-97ff-7cf755d549f3",
      "resource": {
        "resourceType": "Observation",
        "id": "35410e9f-a75a-4d86-97ff-7cf755d549f3",
        "meta": {
          "profile": [
            "http://hl7.eu/fhir/laboratory/StructureDefinition/Observation-resultslab-eu-lab"
          ]
        },
        "performer": [
          {
            "display": "The Central European Lab"
          }
        ],
        "category": [
          {
            "coding": [
              {
                "system": "http://terminology.hl7.org/CodeSystem/observation-category",
                "code": "laboratory"
              }
            ]
          }
        ],
        "code": {
          "coding": [
            {
              "code": "2339-0",
              "system": "http://loinc.org",
              "display": "Glucose [Mass/volume] in Blood"
            }
          ],
          "text": "Glucose [Mass/volume] in Blood"
        },
        "valueQuantity": {
          "system": "http://unitsofmeasure.org",
          "value": 90.3,
          "unit": "mg/dL",
          "code": "mg/dL"
        },
        "referenceRange": [
          {
            "low": {
              "value": 70,
              "code": "mg/dL",
              "system": "http://unitsofmeasure.org"
            }
          },
          {
            "high": {
              "value": 140,
              "code": "mg/dL",
              "system": "http://unitsofmeasure.org"
            }
          }
        ],
        "text": {
          "status": "generated",
          "div": "<div xmlns=\"http://www.w3.org/1999/xhtml\"><table class=\"hl7__eu__lab__report\"><tr><th>Test</th><th>10-May-2017</th><th>Reference&#xA0;Range</th><th>Unit</th></tr><tr><td>Glucose [Mass/volume] in Blood</td><td>90.3</td><td>70 - 140</td><td></td><td>mg/dL</td></tr></table></div>"
        },
        "status": "final",
        "subject": {
          "reference": "urn:uuid:bb2d71d7-3b8a-4ad3-9945-ba0b3c713853",
          "display": "Magdolna Balog"
        },
        "effectiveDateTime": "2017-05-10T13:34:16Z",
        "specimen": {
          "reference": "urn:uuid:bef9a971-f0f7-4933-91d2-2f8cf998330e"
        }
      }
    },
    {
      "fullUrl": "urn:uuid:f2983bea-93b5-4185-b7f7-565fa41c9a75",
      "resource": {
        "resourceType": "Observation",
        "id": "f2983bea-93b5-4185-b7f7-565fa41c9a75",
        "meta": {
          "profile": [
            "http://hl7.eu/fhir/laboratory/StructureDefinition/Observation-resultslab-eu-lab"
          ]
        },
        "performer": [
          {
            "display": "The Central European Lab"
          }
        ],
        "category": [
          {
            "coding": [
              {
                "system": "http://terminology.hl7.org/CodeSystem/observation-category",
                "code": "laboratory"
              }
            ]
          }
        ],
        "code": {
          "coding": [
            {
              "code": "6299-2",
              "system": "http://loinc.org",
              "display": "Urea nitrogen [Mass/volume] in Blood"
            }
          ],
          "text": "Urea nitrogen [Mass/volume] in Blood"
        },
        "valueQuantity": {
          "system": "http://unitsofmeasure.org",
          "value": 8.8,
          "unit": "mg/dL",
          "code": "mg/dL"
        },
        "referenceRange": [
          {
            "low": {
              "value": 7,
              "code": "mg/dL",
              "system": "http://unitsofmeasure.org"
            }
          },
          {
            "high": {
              "value": 20,
              "code": "mg/dL",
              "system": "http://unitsofmeasure.org"
            }
          }
        ],
        "text": {
          "status": "generated",
          "div": "<div xmlns=\"http://www.w3.org/1999/xhtml\"><table class=\"hl7__eu__lab__report\"><tr><th>Test</th><th>10-May-2017</th><th>Reference&#xA0;Range</th><th>Unit</th></tr><tr><td>Urea nitrogen [Mass/volume] in Blood</td><td>8.8</td><td>7 - 20</td><td></td><td>mg/dL</td></tr></table></div>"
        },
        "status": "final",
        "subject": {
          "reference": "urn:uuid:bb2d71d7-3b8a-4ad3-9945-ba0b3c713853",
          "display": "Magdolna Balog"
        },
        "effectiveDateTime": "2017-05-10T13:34:16Z",
        "specimen": {
          "reference": "urn:uuid:bef9a971-f0f7-4933-91d2-2f8cf998330e"
        }
      }
    },
    {
      "fullUrl": "urn:uuid:ee09e65d-a472-45c5-bae1-4805fbcf5a75",
      "resource": {
        "resourceType": "Observation",
        "id": "ee09e65d-a472-45c5-bae1-4805fbcf5a75",
        "meta": {
          "profile": [
            "http://hl7.eu/fhir/laboratory/StructureDefinition/Observation-resultslab-eu-lab"
          ]
        },
        "performer": [
          {
            "display": "The Central European Lab"
          }
        ],
        "category": [
          {
            "coding": [
              {
                "system": "http://terminology.hl7.org/CodeSystem/observation-category",
                "code": "laboratory"
              }
            ]
          }
        ],
        "code": {
          "coding": [
            {
              "code": "38483-4",
              "system": "http://loinc.org",
              "display": "Creatinine [Mass/volume] in Blood"
            }
          ],
          "text": "Creatinine [Mass/volume] in Blood"
        },
        "valueQuantity": {
          "system": "http://unitsofmeasure.org",
          "value": 0.9,
          "unit": "mg/dL",
          "code": "mg/dL"
        },
        "referenceRange": [
          {
            "low": {
              "value": 0.6,
              "code": "mg/dL",
              "system": "http://unitsofmeasure.org"
            }
          },
          {
            "high": {
              "value": 1.1,
              "code": "mg/dL",
              "system": "http://unitsofmeasure.org"
            }
          }
        ],
        "text": {
          "status": "generated",
          "div": "<div xmlns=\"http://www.w3.org/1999/xhtml\"><table class=\"hl7__eu__lab__report\"><tr><th>Test</th><th>10-May-2017</th><th>Reference&#xA0;Range</th><th>Unit</th></tr><tr><td>Creatinine [Mass/volume] in Blood</td><td>0.9</td><td>0.6 - 1.1</td><td></td><td>mg/dL</td></tr></table></div>"
        },
        "status": "final",
        "subject": {
          "reference": "urn:uuid:bb2d71d7-3b8a-4ad3-9945-ba0b3c713853",
          "display": "Magdolna Balog"
        },
        "effectiveDateTime": "2017-05-10T13:34:16Z",
        "specimen": {
          "reference": "urn:uuid:bef9a971-f0f7-4933-91d2-2f8cf998330e"
        }
      }
    },
    {
      "fullUrl": "urn:uuid:89ecf3f0-e827-4005-a1ad-7312459b40db",
      "resource": {
        "resourceType": "Observation",
        "id": "89ecf3f0-e827-4005-a1ad-7312459b40db",
        "meta": {
          "profile": [
            "http://hl7.eu/fhir/laboratory/StructureDefinition/Observation-resultslab-eu-lab"
          ]
        },
        "performer": [
          {
            "display": "The Central European Lab"
          }
        ],
        "category": [
          {
            "coding": [
              {
                "system": "http://terminology.hl7.org/CodeSystem/observation-category",
                "code": "laboratory"
              }
            ]
          }
        ],
        "code": {
          "coding": [
            {
              "code": "49765-1",
              "system": "http://loinc.org",
              "display": "Calcium [Mass/volume] in Blood"
            }
          ],
          "text": "Calcium [Mass/volume] in Blood"
        },
        "valueQuantity": {
          "system": "http://unitsofmeasure.org",
          "value": 9.1,
          "unit": "mg/dL",
          "code": "mg/dL"
        },
        "referenceRange": [
          {
            "low": {
              "value": 8.5,
              "code": "mg/dL",
              "system": "http://unitsofmeasure.org"
            }
          },
          {
            "high": {
              "value": 10.4,
              "code": "mg/dL",
              "system": "http://unitsofmeasure.org"
            }
          }
        ],
        "text": {
          "status": "generated",
          "div": "<div xmlns=\"http://www.w3.org/1999/xhtml\"><table class=\"hl7__eu__lab__report\"><tr><th>Test</th><th>10-May-2017</th><th>Reference&#xA0;Range</th><th>Unit</th></tr><tr><td>Calcium [Mass/volume] in Blood</td><td>9.1</td><td>8.5 - 10.4</td><td></td><td>mg/dL</td></tr></table></div>"
        },
        "status": "final",
        "subject": {
          "reference": "urn:uuid:bb2d71d7-3b8a-4ad3-9945-ba0b3c713853",
          "display": "Magdolna Balog"
        },
        "effectiveDateTime": "2017-05-10T13:34:16Z",
        "specimen": {
          "reference": "urn:uuid:bef9a971-f0f7-4933-91d2-2f8cf998330e"
        }
      }
    },
    {
      "fullUrl": "urn:uuid:38b414d4-f8d3-4884-8132-8bdb8e9b5be1",
      "resource": {
        "resourceType": "Observation",
        "id": "38b414d4-f8d3-4884-8132-8bdb8e9b5be1",
        "meta": {
          "profile": [
            "http://hl7.eu/fhir/laboratory/StructureDefinition/Observation-resultslab-eu-lab"
          ]
        },
        "performer": [
          {
            "display": "The Central European Lab"
          }
        ],
        "category": [
          {
            "coding": [
              {
                "system": "http://terminology.hl7.org/CodeSystem/observation-category",
                "code": "laboratory"
              }
            ]
          }
        ],
        "code": {
          "coding": [
            {
              "code": "2947-0",
              "system": "http://loinc.org",
              "display": "Sodium [Moles/volume] in Blood"
            }
          ],
          "text": "Sodium [Moles/volume] in Blood"
        },
        "valueQuantity": {
          "system": "http://unitsofmeasure.org",
          "value": 140.3,
          "unit": "mmol/L",
          "code": "mmol/L"
        },
        "referenceRange": [
          {
            "low": {
              "value": 135,
              "code": "mmol/L",
              "system": "http://unitsofmeasure.org"
            }
          },
          {
            "high": {
              "value": 145,
              "code": "mmol/L",
              "system": "http://unitsofmeasure.org"
            }
          }
        ],
        "text": {
          "status": "generated",
          "div": "<div xmlns=\"http://www.w3.org/1999/xhtml\"><table class=\"hl7__eu__lab__report\"><tr><th>Test</th><th>10-May-2017</th><th>Reference&#xA0;Range</th><th>Unit</th></tr><tr><td>Sodium [Moles/volume] in Blood</td><td>140.3</td><td>135 - 145</td><td></td><td>mmol/L</td></tr></table></div>"
        },
        "status": "final",
        "subject": {
          "reference": "urn:uuid:bb2d71d7-3b8a-4ad3-9945-ba0b3c713853",
          "display": "Magdolna Balog"
        },
        "effectiveDateTime": "2017-05-10T13:34:16Z",
        "specimen": {
          "reference": "urn:uuid:bef9a971-f0f7-4933-91d2-2f8cf998330e"
        }
      }
    },
    {
      "fullUrl": "urn:uuid:b7dc93f0-cdbe-4830-8631-9cbd8e1d888d",
      "resource": {
        "resourceType": "Observation",
        "id": "b7dc93f0-cdbe-4830-8631-9cbd8e1d888d",
        "meta": {
          "profile": [
            "http://hl7.eu/fhir/laboratory/StructureDefinition/Observation-resultslab-eu-lab"
          ]
        },
        "performer": [
          {
            "display": "The Central European Lab"
          }
        ],
        "category": [
          {
            "coding": [
              {
                "system": "http://terminology.hl7.org/CodeSystem/observation-category",
                "code": "laboratory"
              }
            ]
          }
        ],
        "code": {
          "coding": [
            {
              "code": "6298-4",
              "system": "http://loinc.org",
              "display": "Potassium [Moles/volume] in Blood"
            }
          ],
          "text": "Potassium [Moles/volume] in Blood"
        },
        "valueQuantity": {
          "system": "http://unitsofmeasure.org",
          "value": 4,
          "unit": "mmol/L",
          "code": "mmol/L"
        },
        "referenceRange": [
          {
            "low": {
              "value": 3.5,
              "code": "mmol/L",
              "system": "http://unitsofmeasure.org"
            }
          },
          {
            "high": {
              "value": 5.1,
              "code": "mmol/L",
              "system": "http://unitsofmeasure.org"
            }
          }
        ],
        "text": {
          "status": "generated",
          "div": "<div xmlns=\"http://www.w3.org/1999/xhtml\"><table class=\"hl7__eu__lab__report\"><tr><th>Test</th><th>10-May-2017</th><th>Reference&#xA0;Range</th><th>Unit</th></tr><tr><td>Potassium [Moles/volume] in Blood</td><td>4.0</td><td>3.5 - 5.1</td><td></td><td>mmol/L</td></tr></table></div>"
        },
        "status": "final",
        "subject": {
          "reference": "urn:uuid:bb2d71d7-3b8a-4ad3-9945-ba0b3c713853",
          "display": "Magdolna Balog"
        },
        "effectiveDateTime": "2017-05-10T13:34:16Z",
        "specimen": {
          "reference": "urn:uuid:bef9a971-f0f7-4933-91d2-2f8cf998330e"
        }
      }
    },
    {
      "fullUrl": "urn:uuid:4822b5ed-c7f4-44e9-bb5c-7733daeedf11",
      "resource": {
        "resourceType": "Observation",
        "id": "4822b5ed-c7f4-44e9-bb5c-7733daeedf11",
        "meta": {
          "profile": [
            "http://hl7.eu/fhir/laboratory/StructureDefinition/Observation-resultslab-eu-lab"
          ]
        },
        "performer": [
          {
            "display": "The Central European Lab"
          }
        ],
        "category": [
          {
            "coding": [
              {
                "system": "http://terminology.hl7.org/CodeSystem/observation-category",
                "code": "laboratory"
              }
            ]
          }
        ],
        "code": {
          "coding": [
            {
              "code": "2069-3",
              "system": "http://loinc.org",
              "display": "Chloride [Moles/volume] in Blood"
            }
          ],
          "text": "Chloride [Moles/volume] in Blood"
        },
        "valueQuantity": {
          "system": "http://unitsofmeasure.org",
          "value": 101.4,
          "unit": "mmol/L",
          "code": "mmol/L"
        },
        "referenceRange": [
          {
            "low": {
              "value": 98,
              "code": "mmol/L",
              "system": "http://unitsofmeasure.org"
            }
          },
          {
            "high": {
              "value": 107,
              "code": "mmol/L",
              "system": "http://unitsofmeasure.org"
            }
          }
        ],
        "text": {
          "status": "generated",
          "div": "<div xmlns=\"http://www.w3.org/1999/xhtml\"><table class=\"hl7__eu__lab__report\"><tr><th>Test</th><th>10-May-2017</th><th>Reference&#xA0;Range</th><th>Unit</th></tr><tr><td>Chloride [Moles/volume] in Blood</td><td>101.4</td><td>98 - 107</td><td></td><td>mmol/L</td></tr></table></div>"
        },
        "status": "final",
        "subject": {
          "reference": "urn:uuid:bb2d71d7-3b8a-4ad3-9945-ba0b3c713853",
          "display": "Magdolna Balog"
        },
        "effectiveDateTime": "2017-05-10T13:34:16Z",
        "specimen": {
          "reference": "urn:uuid:bef9a971-f0f7-4933-91d2-2f8cf998330e"
        }
      }
    },
    {
      "fullUrl": "urn:uuid:f2d4f9e4-6c1d-485e-accf-a4a496084b5c",
      "resource": {
        "resourceType": "Observation",
        "id": "f2d4f9e4-6c1d-485e-accf-a4a496084b5c",
        "meta": {
          "profile": [
            "http://hl7.eu/fhir/laboratory/StructureDefinition/Observation-resultslab-eu-lab"
          ]
        },
        "performer": [
          {
            "display": "The Central European Lab"
          }
        ],
        "category": [
          {
            "coding": [
              {
                "system": "http://terminology.hl7.org/CodeSystem/observation-category",
                "code": "laboratory"
              }
            ]
          }
        ],
        "code": {
          "coding": [
            {
              "code": "20565-8",
              "system": "http://loinc.org",
              "display": "Carbon dioxide, total [Moles/volume] in Blood"
            }
          ],
          "text": "Carbon dioxide, total [Moles/volume] in Blood"
        },
        "valueQuantity": {
          "system": "http://unitsofmeasure.org",
          "value": 25.7,
          "unit": "mmol/L",
          "code": "mmol/L"
        },
        "referenceRange": [
          {
            "low": {
              "value": 22,
              "code": "mmol/L",
              "system": "http://unitsofmeasure.org"
            }
          },
          {
            "high": {
              "value": 29,
              "code": "mmol/L",
              "system": "http://unitsofmeasure.org"
            }
          }
        ],
        "text": {
          "status": "generated",
          "div": "<div xmlns=\"http://www.w3.org/1999/xhtml\"><table class=\"hl7__eu__lab__report\"><tr><th>Test</th><th>10-May-2017</th><th>Reference&#xA0;Range</th><th>Unit</th></tr><tr><td>Carbon dioxide, total [Moles/volume] in Blood</td><td>25.7</td><td>22 - 29</td><td></td><td>mmol/L</td></tr></table></div>"
        },
        "status": "final",
        "subject": {
          "reference": "urn:uuid:bb2d71d7-3b8a-4ad3-9945-ba0b3c713853",
          "display": "Magdolna Balog"
        },
        "effectiveDateTime": "2017-05-10T13:34:16Z",
        "specimen": {
          "reference": "urn:uuid:bef9a971-f0f7-4933-91d2-2f8cf998330e"
        }
      }
    },
    {
      "fullUrl": "urn:uuid:c08e3607-d949-40f9-b44b-ab46657efa71",
      "resource": {
        "resourceType": "Device",
        "id": "c08e3607-d949-40f9-b44b-ab46657efa71",
        "deviceName": [
          {
            "name": "SYNDERAI Synthetic Generator",
            "type": "manufacturer-name"
          }
        ],
        "version": [
          {
            "value": "5.0"
          }
        ],
        "text": {
          "status": "generated",
          "div": "<div xmlns=\"http://www.w3.org/1999/xhtml\">SYNDERAI Synthetic Generator v5.0</div>"
        },
        "status": "active\"",
        "distinctIdentifier": "synderai-generator-50",
        "manufacturer": "SYNDERAI Project"
      }
    },
    {
      "fullUrl": "urn:uuid:f2d9f5e8-1e58-42d6-925b-39eda63afc99",
      "resource": {
        "resourceType": "Provenance",
        "id": "f2d9f5e8-1e58-42d6-925b-39eda63afc99",
        "target": [
          {
            "reference": "Patient/bb2d71d7-3b8a-4ad3-9945-ba0b3c713853"
          },
          {
            "reference": "Bundle/8a9484d3-536f-4f7f-b5b2-ffbe585104b2"
          },
          {
            "reference": "Composition/54f5ffdd-ddf5-445c-af97-61e66152c1ed"
          },
          {
            "reference": "PractitionerRole/0ee18b95-f5f2-42b9-af99-549cb1101e0f"
          },
          {
            "reference": "Practitioner/d9f9d9b3-4a2b-4a03-8d75-f68a570ad455"
          },
          {
            "reference": "PractitionerRole/e634c1a7-3763-4e62-9fb3-595b71e470b2"
          },
          {
            "reference": "Organization/b400a832-6f22-4a44-9e89-8f82c04bfee6"
          }
        ],
        "activity": {
          "text": "Synthetic Example Data Generation"
        },
        "policy": [
          "https://synderai.net/synderai-synthetic-data-policy"
        ],
        "agent": [
          {
            "type": {
              "text": "author"
            },
            "who": {
              "reference": "Device/c08e3607-d949-40f9-b44b-ab46657efa71"
            }
          }
        ],
        "reason": [
          {
            "text": "Interoperability Testing and Training (non-clinical use)"
          }
        ],
        "text": {
          "status": "generated",
          "div": "<div xmlns=\"http://www.w3.org/1999/xhtml\">Provenance for SYNDERAI Synthetic Example Data Resource</div>"
        },
        "recorded": "2017-05-10T15:34:16Z"
      }
    },
    {
      "fullUrl": "urn:uuid:0ee18b95-f5f2-42b9-af99-549cb1101e0f",
      "resource": {
        "resourceType": "PractitionerRole",
        "id": "0ee18b95-f5f2-42b9-af99-549cb1101e0f",
        "meta": {
          "profile": [
            "http://hl7.eu/fhir/base/StructureDefinition/practitionerRole-eu"
          ]
        },
        "text": {
          "status": "generated",
          "div": "<div xmlns=\"http://www.w3.org/1999/xhtml\">Laboratory Role Id: 0ee18b95-f5f2-42b9-af99-549cb1101e0f</div>"
        },
        "practitioner": {
          "reference": "urn:uuid:d9f9d9b3-4a2b-4a03-8d75-f68a570ad455"
        }
      }
    },
    {
      "fullUrl": "urn:uuid:d9f9d9b3-4a2b-4a03-8d75-f68a570ad455",
      "resource": {
        "resourceType": "Practitioner",
        "id": "d9f9d9b3-4a2b-4a03-8d75-f68a570ad455",
        "meta": {
          "profile": [
            "http://hl7.eu/fhir/base/StructureDefinition/practitioner-eu"
          ]
        },
        "identifier": [
          {
            "assigner": {
              "display": "HL7 Europe"
            },
            "system": "urn:oid:2.16.840.1.113883.2.51.999",
            "value": "feffd127-74c5-4af6-b67a-0623ba9afab8"
          }
        ],
        "name": [
          {
            "prefix": [
              "dr"
            ],
            "given": [
              "Ex"
            ],
            "family": "Ample"
          }
        ],
        "address": [
          {
            "line": [
              "Laboratoire Central Européenne",
              "Boulevard du Jardin Botanique 32"
            ],
            "postalCode": "1000",
            "city": "Brussels",
            "country": "Belgium"
          }
        ],
        "text": {
          "status": "generated",
          "div": "<div xmlns=\"http://www.w3.org/1999/xhtml\">Laboratory: Laboratoire Central Européenne, 1000 Brussels, Belgium</div>"
        }
      }
    }
  ],
  "type": "document",
  "timestamp": "2017-05-10T15:34:16Z"
}
