{
  "resourceType": "Bundle",
  "id": "938e73a9-3e2b-4e6b-b8cc-d880dd1dcfc1",
  "meta": {
    "profile": [
      "http://hl7.eu/fhir/laboratory/StructureDefinition/Bundle-eu-lab"
    ]
  },
  "identifier": {
    "assigner": {
      "display": "HL7 Europe"
    },
    "system": "urn:oid:2.16.840.1.113883.2.51.999",
    "value": "e1cc8881-189a-4c13-84ae-cde112277178"
  },
  "entry": [
    {
      "fullUrl": "urn:uuid:af3ec95b-cdc9-4294-922b-eb380b392b34",
      "resource": {
        "resourceType": "Composition",
        "id": "af3ec95b-cdc9-4294-922b-eb380b392b34",
        "meta": {
          "profile": [
            "http://hl7.eu/fhir/laboratory/StructureDefinition/Composition-eu-lab"
          ]
        },
        "identifier": {
          "assigner": {
            "display": "HL7 Europe"
          },
          "system": "urn:oid:2.16.840.1.113883.2.51.999",
          "value": "a8bd6243-4248-454b-bd52-7fcae82ce11c"
        },
        "author": [
          {
            "reference": "urn:uuid:08be4cfe-6582-42f1-8907-fe3b7d65196c"
          }
        ],
        "category": [
          {
            "coding": [
              {
                "code": "26436-6",
                "system": "http://loinc.org",
                "display": "Laboratory studies (set)"
              }
            ]
          }
        ],
        "type": {
          "coding": [
            {
              "code": "11502-2",
              "system": "http://loinc.org",
              "display": "Laboratory report"
            }
          ],
          "text": "Laboratory Report"
        },
        "section": [
          {
            "code": {
              "coding": [
                {
                  "code": "26436-6",
                  "system": "http://loinc.org",
                  "display": "Laboratory studies (set)"
                }
              ],
              "text": "Laboratory studies"
            },
            "section": [
              {
                "code": {
                  "coding": [
                    {
                      "code": "$18719-5",
                      "system": "http://loinc.org",
                      "display": "Chemistry studies (set)"
                    }
                  ],
                  "text": "Chemistry"
                },
                "entry": [
                  {
                    "reference": "urn:uuid:f1796633-31e6-46f9-b3cb-2f0c7bfc97ad"
                  },
                  {
                    "reference": "urn:uuid:413f29cd-17d5-4ba8-8211-9f381643413c"
                  },
                  {
                    "reference": "urn:uuid:f2350eae-d560-4757-a568-8418ee67c79b"
                  },
                  {
                    "reference": "urn:uuid:3436a7a8-c72b-47c4-8cfc-14321d408780"
                  },
                  {
                    "reference": "urn:uuid:e94e024c-9b24-4d3b-9aa1-2371c18ac3eb"
                  },
                  {
                    "reference": "urn:uuid:bf4858b9-001e-4b38-9e6c-4203076b8d3c"
                  },
                  {
                    "reference": "urn:uuid:67bdf101-d621-4ef5-9c28-fdcf7498a174"
                  },
                  {
                    "reference": "urn:uuid:64b94c20-e6b9-4bf7-b577-79c44668e83b"
                  },
                  {
                    "reference": "urn:uuid:4176e594-f3f0-4bf9-a5d7-acf1e698f825"
                  },
                  {
                    "reference": "urn:uuid:955185a1-36a6-4b8d-832e-6a6cb79d8e81"
                  },
                  {
                    "reference": "urn:uuid:5432f47d-1cd5-4e0f-84c1-ae796f015842"
                  },
                  {
                    "reference": "urn:uuid:d3142979-90f3-463c-98a9-e2803f0c1548"
                  },
                  {
                    "reference": "urn:uuid:5e972767-4e9f-4bbd-8a2b-b86ccf00fe5a"
                  },
                  {
                    "reference": "urn:uuid:c7a36048-8a99-4fd0-95f7-f812f62075dd"
                  },
                  {
                    "reference": "urn:uuid:d19e961a-1bc9-4827-867b-1ad80a5a07cf"
                  },
                  {
                    "reference": "urn:uuid:28c8aa3c-077e-4f49-bd37-3da714259d2e"
                  },
                  {
                    "reference": "urn:uuid:0ae9dded-fa96-41e9-92dc-8314bf0537a3"
                  },
                  {
                    "reference": "urn:uuid:3a830880-a390-4d62-ac2d-9f8b25832379"
                  }
                ],
                "text": {
                  "status": "generated",
                  "div": "<div xmlns=\"http://www.w3.org/1999/xhtml\"><h3>Chemistry</h3><table class=\"hl7__eu__lab__report\"><thead><tr><th>Test</th><th>29-JUN-2017</th><th>Reference&#xA0;Range</th><th>Unit</th></tr></thead><tbody><tr><td>Glucose [Mass/volume] in Serum or Plasma</td><td>82.2</td><td>70 - 139</td><td>mg/dL</td></tr><tr><td>Urea nitrogen [Mass/volume] in Serum or Plasma</td><td>14.5</td><td>7 - 20</td><td>mg/dL</td></tr><tr><td>Creatinine [Mass/volume] in Serum or Plasma</td><td><strong>1.9 H</strong></td><td>0.6 - 1.1</td><td>mg/dL</td></tr><tr><td>Calcium [Mass/volume] in Serum or Plasma</td><td>9.5</td><td>8.5 - 10.4</td><td>mg/dL</td></tr><tr><td>Sodium [Moles/volume] in Serum or Plasma</td><td>137.2</td><td>135 - 145</td><td>mmol/L</td></tr><tr><td>Potassium [Moles/volume] in Serum or Plasma</td><td>4.6</td><td>3.5 - 5.1</td><td>mmol/L</td></tr><tr><td>Chloride [Moles/volume] in Serum or Plasma</td><td><strong>110.3 H</strong></td><td>98 - 110</td><td>mmol/L</td></tr><tr><td>Carbon dioxide, total [Moles/volume] in Serum or Plasma</td><td>23.8</td><td>22 - 32</td><td>mmol/L</td></tr><tr><td>Ketones [Presence] in Urine by Test strip</td><td>Urine ketone test = +</td><td></td><td></td></tr><tr><td>Hemoglobin A1c/Hemoglobin.total in Blood</td><td><strong>3.3 L</strong></td><td>4 - 6</td><td>%</td></tr><tr><td>Glucose [Mass/volume] in Blood</td><td>82.2</td><td>70 - 100</td><td>mg/dL</td></tr><tr><td>Urea nitrogen [Mass/volume] in Blood</td><td>14.5</td><td>7 - 20</td><td>mg/dL</td></tr><tr><td>Creatinine [Mass/volume] in Blood</td><td>1.3</td><td>0.6 - 1.3</td><td>mg/dL</td></tr><tr><td>Calcium [Mass/volume] in Blood</td><td>9.5</td><td>8.6 - 10.4</td><td>mg/dL</td></tr><tr><td>Sodium [Moles/volume] in Blood</td><td>137.2</td><td>135 - 145</td><td>mmol/L</td></tr><tr><td>Potassium [Moles/volume] in Blood</td><td>4.6</td><td>3.5 - 5.1</td><td>mmol/L</td></tr><tr><td>Chloride [Moles/volume] in Blood</td><td><strong>110.3 H</strong></td><td>98 - 110</td><td>mmol/L</td></tr><tr><td>Carbon dioxide, total [Moles/volume] in Blood</td><td>23.8</td><td>22 - 29</td><td>mmol/L</td></tr></tbody></table></div>"
                },
                "title": "Chemistry"
              },
              {
                "code": {
                  "coding": [
                    {
                      "code": "$18729-4",
                      "system": "http://loinc.org",
                      "display": "Urinalysis studies (set)"
                    }
                  ],
                  "text": "Urinalysis"
                },
                "entry": [
                  {
                    "reference": "urn:uuid:d47e209b-2abd-43c7-b4bd-d9d3585407e5"
                  },
                  {
                    "reference": "urn:uuid:02047cdb-55bf-4f48-9f75-c908059f7831"
                  },
                  {
                    "reference": "urn:uuid:5d3a85be-7d9a-4d3e-9f81-3decf666d2e6"
                  },
                  {
                    "reference": "urn:uuid:a564aec3-dd1b-4240-8085-d0e5c9b56ad2"
                  },
                  {
                    "reference": "urn:uuid:095df643-10ca-4d01-b371-9d2278b2edc7"
                  },
                  {
                    "reference": "urn:uuid:129a2363-abe4-4033-a235-c739ec4789ff"
                  },
                  {
                    "reference": "urn:uuid:91d9f9b4-27a3-431d-b7de-f4efe28891a4"
                  },
                  {
                    "reference": "urn:uuid:387f9c75-40d1-4031-b931-3fd277d1d349"
                  },
                  {
                    "reference": "urn:uuid:782a2458-c917-46af-8973-1f1e7aae401c"
                  },
                  {
                    "reference": "urn:uuid:6d743c98-b218-4d52-b68e-81378bf2f64e"
                  },
                  {
                    "reference": "urn:uuid:fb3874ee-4ed9-4722-90f5-36d7e4b52b24"
                  },
                  {
                    "reference": "urn:uuid:e6158c26-4777-4af3-8286-af921ce7c4fa"
                  }
                ],
                "text": {
                  "status": "generated",
                  "div": "<div xmlns=\"http://www.w3.org/1999/xhtml\"><h3>Urinalysis</h3><table class=\"hl7__eu__lab__report\"><thead><tr><th>Test</th><th>29-JUN-2017</th><th>Reference&#xA0;Range</th><th>Unit</th></tr></thead><tbody><tr><td>Glucose [Mass/volume] in Urine by Test strip</td><td><strong>2.4 H</strong></td><td>0 - 0</td><td>mg/dL</td></tr><tr><td>Glucose [Presence] in Urine by Test strip</td><td>++</td><td></td><td></td></tr><tr><td>Bilirubin.total [Mass/volume] in Urine by Test strip</td><td>1.3</td><td>0 - 1.6</td><td>mg/dL</td></tr><tr><td>Bilirubin.total [Presence] in Urine by Test strip</td><td>Finding of bilirubin in urine</td><td></td><td></td></tr><tr><td>Ketones [Mass/volume] in Urine by Test strip</td><td><strong>10.8 H</strong></td><td>0 - 0.5</td><td>mg/dL</td></tr><tr><td>Specific gravity of Urine by Test strip</td><td><strong>1.0 L</strong></td><td>1.005 - 1.03</td><td>{nominal}</td></tr><tr><td>pH of Urine by Test strip</td><td>5.6</td><td>4.5 - 7.5</td><td>pH</td></tr><tr><td>Protein [Mass/volume] in Urine by Test strip</td><td><strong>274.5 H</strong></td><td>0 - 15</td><td>mg/dL</td></tr><tr><td>Protein [Presence] in Urine by Test strip</td><td>Urine protein test = ++</td><td></td><td></td></tr><tr><td>Nitrite [Presence] in Urine by Test strip</td><td>Urine nitrite negative</td><td></td><td></td></tr><tr><td>Hemoglobin [Presence] in Urine by Test strip</td><td>Urine blood test = negative</td><td></td><td></td></tr><tr><td>Leukocyte esterase [Presence] in Urine by Test strip</td><td>Urine leukocyte test negative</td><td></td><td></td></tr></tbody></table></div>"
                },
                "title": "Urinalysis"
              },
              {
                "code": {
                  "coding": [
                    {
                      "code": "$LP7846-1",
                      "system": "http://loinc.org",
                      "display": "Specimen information"
                    }
                  ],
                  "text": "Specimen information"
                },
                "entry": [
                  {
                    "reference": "urn:uuid:4dca30c7-001b-43af-abd5-6d7f2b0fe336"
                  },
                  {
                    "reference": "urn:uuid:8bbfa7d1-152f-4b5a-9a18-4f0b3937c9c1"
                  },
                  {
                    "reference": "urn:uuid:595e9da2-0a4e-462a-8cc2-abb3ec28c200"
                  },
                  {
                    "reference": "urn:uuid:2d7718e1-2cd8-419f-984a-4fa65c8d93f2"
                  }
                ],
                "text": {
                  "status": "generated",
                  "div": "<div xmlns=\"http://www.w3.org/1999/xhtml\"><h3>Specimen information</h3><table class=\"hl7__eu__lab__report\"><thead><tr><th>Test</th><th>29-JUN-2017</th><th>Specimen</th><th></th></tr></thead><tbody><tr><td>Appearance of Urine</td><td>Cloudy urine</td><td>Urine</td><td></td></tr><tr><td>Odor of Urine</td><td>Urine smell ammoniacal</td><td>Urine</td><td></td></tr><tr><td>Clarity of Urine</td><td>Translucent</td><td>Urine</td><td></td></tr><tr><td>Color of Urine</td><td>Brown color</td><td>Urine</td><td></td></tr></tbody></table></div>"
                },
                "title": "Specimen information"
              }
            ],
            "title": "Laboratory Report"
          },
          {
            "text": {
              "status": "generated",
              "div": "<div xmlns=\"http://www.w3.org/1999/xhtml\"><h3>Annotation</h3><table class=\"hl7__eu__lab__report\"><tr><th>Conclusion and Recommendations based on this report and previous findings known to us</th></tr><tr><td>The patient shows elevated serum creatinine, proteinuria, glucosuria, ketonuria, and low urine specific gravity, suggesting impaired renal function with possible nephrotic-range proteinuria and tubular dysfunction. The presence of glucose and ketones in urine with low HbA1c and normal blood glucose is unusual and may indicate a non-diabetic cause. Urine is cloudy and brown, but no evidence of infection. Further nephrological evaluation is recommended to clarify the underlying renal pathology.</td></tr></table></div>"
            },
            "code": {
              "coding": [
                {
                  "system": "http://loinc.org",
                  "code": "48767-8",
                  "display": "Annotation comment"
                }
              ]
            },
            "title": "Annotation comment"
          }
        ],
        "status": "final",
        "subject": {
          "reference": "urn:uuid:2ff1139a-ca21-4bec-849c-e4f8746555be",
          "display": "Molly Jenkins"
        },
        "date": "2017-06-29T16:42:11Z",
        "title": "Laboratory Report",
        "confidentiality": "N"
      }
    },
    {
      "fullUrl": "urn:uuid:bfab069a-b4c0-4671-8ae1-e2ccd6808033",
      "resource": {
        "resourceType": "DiagnosticReport",
        "id": "bfab069a-b4c0-4671-8ae1-e2ccd6808033",
        "meta": {
          "profile": [
            "http://hl7.eu/fhir/laboratory/StructureDefinition/DiagnosticReport-eu-lab"
          ]
        },
        "identifier": [
          {
            "assigner": {
              "display": "HL7 Europe"
            },
            "system": "urn:oid:2.16.840.1.113883.2.51.999",
            "value": "bfcf5bfa-0b64-4e56-b6db-7254a6631a2d"
          }
        ],
        "extension": [
          {
            "url": "http://hl7.org/fhir/5.0/StructureDefinition/extension-DiagnosticReport.composition",
            "valueReference": {
              "reference": "urn:uuid:a8bd6243-4248-454b-bd52-7fcae82ce11c"
            }
          }
        ],
        "category": [
          {
            "coding": [
              {
                "code": "26436-6",
                "system": "http://loinc.org",
                "display": "Laboratory studies (set)"
              }
            ]
          }
        ],
        "specimen": [
          {
            "reference": "urn:uuid:5cbcf0f5-3a6d-4045-ae45-76ff1c7f8509"
          },
          {
            "reference": "urn:uuid:75a714bc-09c6-4ddd-8e69-8d86f8630539"
          },
          {
            "reference": "urn:uuid:f9ab95b9-030d-4e32-bbc0-7a88c73fb510"
          }
        ],
        "result": [
          {
            "reference": "urn:uuid:f1796633-31e6-46f9-b3cb-2f0c7bfc97ad"
          },
          {
            "reference": "urn:uuid:413f29cd-17d5-4ba8-8211-9f381643413c"
          },
          {
            "reference": "urn:uuid:f2350eae-d560-4757-a568-8418ee67c79b"
          },
          {
            "reference": "urn:uuid:3436a7a8-c72b-47c4-8cfc-14321d408780"
          },
          {
            "reference": "urn:uuid:e94e024c-9b24-4d3b-9aa1-2371c18ac3eb"
          },
          {
            "reference": "urn:uuid:bf4858b9-001e-4b38-9e6c-4203076b8d3c"
          },
          {
            "reference": "urn:uuid:67bdf101-d621-4ef5-9c28-fdcf7498a174"
          },
          {
            "reference": "urn:uuid:64b94c20-e6b9-4bf7-b577-79c44668e83b"
          },
          {
            "reference": "urn:uuid:4dca30c7-001b-43af-abd5-6d7f2b0fe336"
          },
          {
            "reference": "urn:uuid:8bbfa7d1-152f-4b5a-9a18-4f0b3937c9c1"
          },
          {
            "reference": "urn:uuid:595e9da2-0a4e-462a-8cc2-abb3ec28c200"
          },
          {
            "reference": "urn:uuid:2d7718e1-2cd8-419f-984a-4fa65c8d93f2"
          },
          {
            "reference": "urn:uuid:d47e209b-2abd-43c7-b4bd-d9d3585407e5"
          },
          {
            "reference": "urn:uuid:02047cdb-55bf-4f48-9f75-c908059f7831"
          },
          {
            "reference": "urn:uuid:5d3a85be-7d9a-4d3e-9f81-3decf666d2e6"
          },
          {
            "reference": "urn:uuid:a564aec3-dd1b-4240-8085-d0e5c9b56ad2"
          },
          {
            "reference": "urn:uuid:095df643-10ca-4d01-b371-9d2278b2edc7"
          },
          {
            "reference": "urn:uuid:4176e594-f3f0-4bf9-a5d7-acf1e698f825"
          },
          {
            "reference": "urn:uuid:129a2363-abe4-4033-a235-c739ec4789ff"
          },
          {
            "reference": "urn:uuid:91d9f9b4-27a3-431d-b7de-f4efe28891a4"
          },
          {
            "reference": "urn:uuid:387f9c75-40d1-4031-b931-3fd277d1d349"
          },
          {
            "reference": "urn:uuid:782a2458-c917-46af-8973-1f1e7aae401c"
          },
          {
            "reference": "urn:uuid:6d743c98-b218-4d52-b68e-81378bf2f64e"
          },
          {
            "reference": "urn:uuid:fb3874ee-4ed9-4722-90f5-36d7e4b52b24"
          },
          {
            "reference": "urn:uuid:e6158c26-4777-4af3-8286-af921ce7c4fa"
          },
          {
            "reference": "urn:uuid:955185a1-36a6-4b8d-832e-6a6cb79d8e81"
          },
          {
            "reference": "urn:uuid:5432f47d-1cd5-4e0f-84c1-ae796f015842"
          },
          {
            "reference": "urn:uuid:d3142979-90f3-463c-98a9-e2803f0c1548"
          },
          {
            "reference": "urn:uuid:5e972767-4e9f-4bbd-8a2b-b86ccf00fe5a"
          },
          {
            "reference": "urn:uuid:c7a36048-8a99-4fd0-95f7-f812f62075dd"
          },
          {
            "reference": "urn:uuid:d19e961a-1bc9-4827-867b-1ad80a5a07cf"
          },
          {
            "reference": "urn:uuid:28c8aa3c-077e-4f49-bd37-3da714259d2e"
          },
          {
            "reference": "urn:uuid:0ae9dded-fa96-41e9-92dc-8314bf0537a3"
          },
          {
            "reference": "urn:uuid:3a830880-a390-4d62-ac2d-9f8b25832379"
          }
        ],
        "status": "registered",
        "code": {
          "coding": [
            {
              "code": "11502-2",
              "system": "http://loinc.org",
              "display": "Laboratory report"
            }
          ]
        },
        "subject": {
          "reference": "urn:uuid:2ff1139a-ca21-4bec-849c-e4f8746555be",
          "display": "Molly Jenkins"
        }
      }
    },
    {
      "fullUrl": "urn:uuid:2ff1139a-ca21-4bec-849c-e4f8746555be",
      "resource": {
        "resourceType": "Patient",
        "id": "2ff1139a-ca21-4bec-849c-e4f8746555be",
        "meta": {
          "security": [
            {
              "system": "http://terminology.hl7.org/CodeSystem/v3-ActReason",
              "code": "HTEST"
            },
            {
              "system": "http://terminology.hl7.org/CodeSystem/v3-ActReason",
              "code": "TRAIN"
            }
          ],
          "tag": [
            {
              "system": "https://synderai.net/fhir/CodeSystem/tags",
              "code": "synthetic",
              "display": "SYNDERAI Synthetic data"
            }
          ],
          "profile": [
            "http://hl7.eu/fhir/base/StructureDefinition/patient-eu-core"
          ]
        },
        "identifier": [
          {
            "type": {
              "coding": [
                {
                  "code": "PT",
                  "system": "http://terminology.hl7.org/CodeSystem/v2-0203"
                }
              ]
            },
            "system": "http://ec.europa.eu/identifier/eci",
            "value": "7634-012682-0"
          },
          {
            "type": {
              "coding": [
                {
                  "code": "MR",
                  "system": "http://terminology.hl7.org/CodeSystem/v2-0203"
                }
              ]
            },
            "system": "http://local.setting.eu/identifier",
            "value": "9934a8eb-b6e1-34e1-edf5-57a0262d1bea"
          }
        ],
        "name": [
          {
            "family": "Jenkins"
          },
          {
            "given": [
              "Molly"
            ]
          },
          {
            "text": "Molly Jenkins"
          }
        ],
        "address": [
          {
            "line": [
              "98 Ali field"
            ],
            "use": "home",
            "type": "physical",
            "postalCode": "AB42",
            "city": "Port Jennamouth",
            "country": "United Kingdom"
          }
        ],
        "telecom": [
          {
            "system": "phone",
            "value": "(0118) 496 0334"
          }
        ],
        "extension": [
          {
            "url": "http://hl7.org/fhir/StructureDefinition/patient-nationality",
            "valueCodeableConcept": {
              "coding": [
                {
                  "code": "GB",
                  "system": "http://hl7.org/fhir/ValueSet/country"
                }
              ]
            }
          }
        ],
        "text": {
          "status": "generated",
          "div": "<div xmlns=\"http://www.w3.org/1999/xhtml\"><table class=\"hl7__ips\"><tr><td>Molly Jenkins</td><td>female</td><td>14-Aug-1967</td></tr></table></div>"
        },
        "gender": "female",
        "birthDate": "1967-08-14"
      }
    },
    {
      "fullUrl": "urn:uuid:fb09c72c-d9e0-408d-a02b-e1ad2ac68e38",
      "resource": {
        "resourceType": "ServiceRequest",
        "id": "fb09c72c-d9e0-408d-a02b-e1ad2ac68e38",
        "meta": {
          "profile": [
            "http://hl7.eu/fhir/laboratory/StructureDefinition/ServiceRequest-eu-lab"
          ]
        },
        "identifier": [
          {
            "system": "http://example.org",
            "value": "eb1f84ed-426f-4c0d-9794-dea98223c943"
          }
        ],
        "specimen": [
          {
            "reference": "urn:uuid:5cbcf0f5-3a6d-4045-ae45-76ff1c7f8509"
          },
          {
            "reference": "urn:uuid:75a714bc-09c6-4ddd-8e69-8d86f8630539"
          },
          {
            "reference": "urn:uuid:f9ab95b9-030d-4e32-bbc0-7a88c73fb510"
          }
        ],
        "reasonCode": [
          {
            "coding": [
              {
                "code": "431856006",
                "system": "http://snomed.info/sct",
                "display": "Chronic kidney disease stage 2"
              }
            ]
          },
          {
            "coding": [
              {
                "code": "90781000119102",
                "system": "http://snomed.info/sct",
                "display": "Microalbuminuria due to type 2 diabetes mellitus"
              }
            ]
          },
          {
            "coding": [
              {
                "code": "127013003",
                "system": "http://snomed.info/sct",
                "display": "Disorder of kidney due to diabetes mellitus"
              }
            ]
          },
          {
            "coding": [
              {
                "code": "431855005",
                "system": "http://snomed.info/sct",
                "display": "Chronic kidney disease stage 1"
              }
            ]
          },
          {
            "coding": [
              {
                "code": "15777000",
                "system": "http://snomed.info/sct",
                "display": "Prediabetes"
              }
            ]
          },
          {
            "coding": [
              {
                "code": "59621000",
                "system": "http://snomed.info/sct",
                "display": "Essential hypertension"
              }
            ]
          },
          {
            "coding": [
              {
                "code": "53827007",
                "system": "http://snomed.info/sct",
                "display": "Excessive salivation"
              }
            ]
          },
          {
            "coding": [
              {
                "code": "64859006",
                "system": "http://snomed.info/sct",
                "display": "Osteoporosis"
              }
            ]
          },
          {
            "coding": [
              {
                "code": "128188000",
                "system": "http://snomed.info/sct",
                "display": "Cerebral palsy"
              }
            ]
          },
          {
            "coding": [
              {
                "code": "235595009",
                "system": "http://snomed.info/sct",
                "display": "Gastroesophageal reflux disease"
              }
            ]
          }
        ],
        "status": "active",
        "intent": "order",
        "code": {
          "coding": [
            {
              "code": "108252007",
              "system": "http://snomed.info/sct",
              "display": "Laboratory procedure"
            }
          ]
        },
        "subject": {
          "reference": "urn:uuid:2ff1139a-ca21-4bec-849c-e4f8746555be",
          "display": "Molly Jenkins"
        },
        "requester": {
          "reference": "urn:uuid:0af07335-f060-445b-91a9-3b27eb85e9c2"
        }
      }
    },
    {
      "fullUrl": "urn:uuid:0af07335-f060-445b-91a9-3b27eb85e9c2",
      "resource": {
        "resourceType": "PractitionerRole",
        "id": "0af07335-f060-445b-91a9-3b27eb85e9c2",
        "meta": {
          "profile": [
            "http://hl7.eu/fhir/base/StructureDefinition/practitionerRole-eu"
          ]
        },
        "text": {
          "status": "generated",
          "div": "<div xmlns=\"http://www.w3.org/1999/xhtml\">Provider Role Id: 0af07335-f060-445b-91a9-3b27eb85e9c2</div>"
        },
        "organization": {
          "reference": "urn:uuid:f75e156e-f38e-439c-aaa7-d2f879fdf688"
        }
      }
    },
    {
      "fullUrl": "urn:uuid:f75e156e-f38e-439c-aaa7-d2f879fdf688",
      "resource": {
        "resourceType": "Organization",
        "id": "f75e156e-f38e-439c-aaa7-d2f879fdf688",
        "meta": {
          "profile": [
            "http://hl7.eu/fhir/base/StructureDefinition/organization-eu"
          ]
        },
        "identifier": [
          {
            "assigner": {
              "display": "HL7 Europe"
            },
            "system": "urn:oid:2.16.840.1.113883.2.51.999",
            "value": "3681e9d9-3471-4246-a701-ed53e19800e0"
          }
        ],
        "address": [
          {
            "city": "Aberdeen",
            "postalCode": "AB11 6",
            "country": "United Kingdom"
          }
        ],
        "text": {
          "status": "generated",
          "div": "<div xmlns=\"http://www.w3.org/1999/xhtml\">Provider Organization: Aberdeen Community Health and Care Village</div>"
        },
        "name": "Aberdeen Community Health and Care Village"
      }
    },
    {
      "fullUrl": "urn:uuid:5cbcf0f5-3a6d-4045-ae45-76ff1c7f8509",
      "resource": {
        "resourceType": "Specimen",
        "id": "5cbcf0f5-3a6d-4045-ae45-76ff1c7f8509",
        "meta": {
          "profile": [
            "http://hl7.eu/fhir/laboratory/StructureDefinition/Specimen-eu-lab"
          ]
        },
        "collection": {
          "collectedDateTime": "2017-06-29"
        },
        "text": {
          "status": "generated",
          "div": "<div xmlns=\"http://www.w3.org/1999/xhtml\"><table class=\"hl7__eu__lab__report\"><tr><th>Specimen</th><th>Collection Date</th></tr><tr><td>Acellular blood (serum or plasma) specimen</td><td><span class=\"nb\">29-Jun-2017</span></td></tr></table></div>"
        },
        "type": {
          "coding": [
            {
              "code": "122592007",
              "system": "http://snomed.info/sct",
              "display": "Acellular blood (serum or plasma) specimen"
            }
          ]
        }
      }
    },
    {
      "fullUrl": "urn:uuid:75a714bc-09c6-4ddd-8e69-8d86f8630539",
      "resource": {
        "resourceType": "Specimen",
        "id": "75a714bc-09c6-4ddd-8e69-8d86f8630539",
        "meta": {
          "profile": [
            "http://hl7.eu/fhir/laboratory/StructureDefinition/Specimen-eu-lab"
          ]
        },
        "collection": {
          "collectedDateTime": "2017-06-29"
        },
        "text": {
          "status": "generated",
          "div": "<div xmlns=\"http://www.w3.org/1999/xhtml\"><table class=\"hl7__eu__lab__report\"><tr><th>Specimen</th><th>Collection Date</th></tr><tr><td>Urine specimen</td><td><span class=\"nb\">29-Jun-2017</span></td></tr></table></div>"
        },
        "type": {
          "coding": [
            {
              "code": "122575003",
              "system": "http://snomed.info/sct",
              "display": "Urine specimen"
            }
          ]
        }
      }
    },
    {
      "fullUrl": "urn:uuid:f9ab95b9-030d-4e32-bbc0-7a88c73fb510",
      "resource": {
        "resourceType": "Specimen",
        "id": "f9ab95b9-030d-4e32-bbc0-7a88c73fb510",
        "meta": {
          "profile": [
            "http://hl7.eu/fhir/laboratory/StructureDefinition/Specimen-eu-lab"
          ]
        },
        "collection": {
          "collectedDateTime": "2017-06-29"
        },
        "text": {
          "status": "generated",
          "div": "<div xmlns=\"http://www.w3.org/1999/xhtml\"><table class=\"hl7__eu__lab__report\"><tr><th>Specimen</th><th>Collection Date</th></tr><tr><td>Whole blood specimen (specimen)</td><td><span class=\"nb\">29-Jun-2017</span></td></tr></table></div>"
        },
        "type": {
          "coding": [
            {
              "code": "258580003",
              "system": "http://snomed.info/sct",
              "display": "Whole blood specimen (specimen)"
            }
          ]
        }
      }
    },
    {
      "fullUrl": "urn:uuid:f1796633-31e6-46f9-b3cb-2f0c7bfc97ad",
      "resource": {
        "resourceType": "Observation",
        "id": "f1796633-31e6-46f9-b3cb-2f0c7bfc97ad",
        "meta": {
          "profile": [
            "http://hl7.eu/fhir/laboratory/StructureDefinition/Observation-resultslab-eu-lab"
          ]
        },
        "performer": [
          {
            "display": "The Central European Lab"
          }
        ],
        "category": [
          {
            "coding": [
              {
                "system": "http://terminology.hl7.org/CodeSystem/observation-category",
                "code": "laboratory"
              }
            ]
          }
        ],
        "code": {
          "coding": [
            {
              "code": "2345-7",
              "system": "http://loinc.org",
              "display": "Glucose [Mass/volume] in Serum or Plasma"
            }
          ],
          "text": "Glucose [Mass/volume] in Serum or Plasma"
        },
        "valueQuantity": {
          "system": "http://unitsofmeasure.org",
          "value": 82.2,
          "unit": "mg/dL",
          "code": "mg/dL"
        },
        "referenceRange": [
          {
            "low": {
              "value": 70,
              "code": "mg/dL",
              "system": "http://unitsofmeasure.org"
            }
          },
          {
            "high": {
              "value": 139,
              "code": "mg/dL",
              "system": "http://unitsofmeasure.org"
            }
          }
        ],
        "text": {
          "status": "generated",
          "div": "<div xmlns=\"http://www.w3.org/1999/xhtml\"><table class=\"hl7__eu__lab__report\"><tr><th>Test</th><th>29-Jun-2017</th><th>Reference&#xA0;Range</th><th>Unit</th></tr><tr><td>Glucose [Mass/volume] in Serum or Plasma</td><td>82.2</td><td>70 - 139</td><td></td><td>mg/dL</td></tr></table></div>"
        },
        "status": "final",
        "subject": {
          "reference": "urn:uuid:2ff1139a-ca21-4bec-849c-e4f8746555be",
          "display": "Molly Jenkins"
        },
        "effectiveDateTime": "2017-06-29T14:42:11Z",
        "specimen": {
          "reference": "urn:uuid:5cbcf0f5-3a6d-4045-ae45-76ff1c7f8509"
        }
      }
    },
    {
      "fullUrl": "urn:uuid:413f29cd-17d5-4ba8-8211-9f381643413c",
      "resource": {
        "resourceType": "Observation",
        "id": "413f29cd-17d5-4ba8-8211-9f381643413c",
        "meta": {
          "profile": [
            "http://hl7.eu/fhir/laboratory/StructureDefinition/Observation-resultslab-eu-lab"
          ]
        },
        "performer": [
          {
            "display": "The Central European Lab"
          }
        ],
        "category": [
          {
            "coding": [
              {
                "system": "http://terminology.hl7.org/CodeSystem/observation-category",
                "code": "laboratory"
              }
            ]
          }
        ],
        "code": {
          "coding": [
            {
              "code": "3094-0",
              "system": "http://loinc.org",
              "display": "Urea nitrogen [Mass/volume] in Serum or Plasma"
            }
          ],
          "text": "Urea nitrogen [Mass/volume] in Serum or Plasma"
        },
        "valueQuantity": {
          "system": "http://unitsofmeasure.org",
          "value": 14.5,
          "unit": "mg/dL",
          "code": "mg/dL"
        },
        "referenceRange": [
          {
            "low": {
              "value": 7,
              "code": "mg/dL",
              "system": "http://unitsofmeasure.org"
            }
          },
          {
            "high": {
              "value": 20,
              "code": "mg/dL",
              "system": "http://unitsofmeasure.org"
            }
          }
        ],
        "text": {
          "status": "generated",
          "div": "<div xmlns=\"http://www.w3.org/1999/xhtml\"><table class=\"hl7__eu__lab__report\"><tr><th>Test</th><th>29-Jun-2017</th><th>Reference&#xA0;Range</th><th>Unit</th></tr><tr><td>Urea nitrogen [Mass/volume] in Serum or Plasma</td><td>14.5</td><td>7 - 20</td><td></td><td>mg/dL</td></tr></table></div>"
        },
        "status": "final",
        "subject": {
          "reference": "urn:uuid:2ff1139a-ca21-4bec-849c-e4f8746555be",
          "display": "Molly Jenkins"
        },
        "effectiveDateTime": "2017-06-29T14:42:11Z",
        "specimen": {
          "reference": "urn:uuid:5cbcf0f5-3a6d-4045-ae45-76ff1c7f8509"
        }
      }
    },
    {
      "fullUrl": "urn:uuid:f2350eae-d560-4757-a568-8418ee67c79b",
      "resource": {
        "resourceType": "Observation",
        "id": "f2350eae-d560-4757-a568-8418ee67c79b",
        "meta": {
          "profile": [
            "http://hl7.eu/fhir/laboratory/StructureDefinition/Observation-resultslab-eu-lab"
          ]
        },
        "performer": [
          {
            "display": "The Central European Lab"
          }
        ],
        "category": [
          {
            "coding": [
              {
                "system": "http://terminology.hl7.org/CodeSystem/observation-category",
                "code": "laboratory"
              }
            ]
          }
        ],
        "code": {
          "coding": [
            {
              "code": "2160-0",
              "system": "http://loinc.org",
              "display": "Creatinine [Mass/volume] in Serum or Plasma"
            }
          ],
          "text": "Creatinine [Mass/volume] in Serum or Plasma"
        },
        "valueQuantity": {
          "system": "http://unitsofmeasure.org",
          "value": 1.9,
          "unit": "mg/dL",
          "code": "mg/dL"
        },
        "referenceRange": [
          {
            "low": {
              "value": 0.6,
              "code": "mg/dL",
              "system": "http://unitsofmeasure.org"
            }
          },
          {
            "high": {
              "value": 1.1,
              "code": "mg/dL",
              "system": "http://unitsofmeasure.org"
            }
          }
        ],
        "interpretation": [
          {
            "coding": [
              {
                "code": "H",
                "system": "http://terminology.hl7.org/CodeSystem/v3-ObservationInterpretation",
                "display": "High"
              }
            ]
          }
        ],
        "text": {
          "status": "generated",
          "div": "<div xmlns=\"http://www.w3.org/1999/xhtml\"><table class=\"hl7__eu__lab__report\"><tr><th>Test</th><th>29-Jun-2017</th><th>Reference&#xA0;Range</th><th>Unit</th></tr><tr><td>Creatinine [Mass/volume] in Serum or Plasma</td><td>1.9</td><td>0.6 - 1.1</td><td>H</td><td>mg/dL</td></tr></table></div>"
        },
        "status": "final",
        "subject": {
          "reference": "urn:uuid:2ff1139a-ca21-4bec-849c-e4f8746555be",
          "display": "Molly Jenkins"
        },
        "effectiveDateTime": "2017-06-29T14:42:11Z",
        "specimen": {
          "reference": "urn:uuid:5cbcf0f5-3a6d-4045-ae45-76ff1c7f8509"
        }
      }
    },
    {
      "fullUrl": "urn:uuid:3436a7a8-c72b-47c4-8cfc-14321d408780",
      "resource": {
        "resourceType": "Observation",
        "id": "3436a7a8-c72b-47c4-8cfc-14321d408780",
        "meta": {
          "profile": [
            "http://hl7.eu/fhir/laboratory/StructureDefinition/Observation-resultslab-eu-lab"
          ]
        },
        "performer": [
          {
            "display": "The Central European Lab"
          }
        ],
        "category": [
          {
            "coding": [
              {
                "system": "http://terminology.hl7.org/CodeSystem/observation-category",
                "code": "laboratory"
              }
            ]
          }
        ],
        "code": {
          "coding": [
            {
              "code": "17861-6",
              "system": "http://loinc.org",
              "display": "Calcium [Mass/volume] in Serum or Plasma"
            }
          ],
          "text": "Calcium [Mass/volume] in Serum or Plasma"
        },
        "valueQuantity": {
          "system": "http://unitsofmeasure.org",
          "value": 9.5,
          "unit": "mg/dL",
          "code": "mg/dL"
        },
        "referenceRange": [
          {
            "low": {
              "value": 8.5,
              "code": "mg/dL",
              "system": "http://unitsofmeasure.org"
            }
          },
          {
            "high": {
              "value": 10.4,
              "code": "mg/dL",
              "system": "http://unitsofmeasure.org"
            }
          }
        ],
        "text": {
          "status": "generated",
          "div": "<div xmlns=\"http://www.w3.org/1999/xhtml\"><table class=\"hl7__eu__lab__report\"><tr><th>Test</th><th>29-Jun-2017</th><th>Reference&#xA0;Range</th><th>Unit</th></tr><tr><td>Calcium [Mass/volume] in Serum or Plasma</td><td>9.5</td><td>8.5 - 10.4</td><td></td><td>mg/dL</td></tr></table></div>"
        },
        "status": "final",
        "subject": {
          "reference": "urn:uuid:2ff1139a-ca21-4bec-849c-e4f8746555be",
          "display": "Molly Jenkins"
        },
        "effectiveDateTime": "2017-06-29T14:42:11Z",
        "specimen": {
          "reference": "urn:uuid:5cbcf0f5-3a6d-4045-ae45-76ff1c7f8509"
        }
      }
    },
    {
      "fullUrl": "urn:uuid:e94e024c-9b24-4d3b-9aa1-2371c18ac3eb",
      "resource": {
        "resourceType": "Observation",
        "id": "e94e024c-9b24-4d3b-9aa1-2371c18ac3eb",
        "meta": {
          "profile": [
            "http://hl7.eu/fhir/laboratory/StructureDefinition/Observation-resultslab-eu-lab"
          ]
        },
        "performer": [
          {
            "display": "The Central European Lab"
          }
        ],
        "category": [
          {
            "coding": [
              {
                "system": "http://terminology.hl7.org/CodeSystem/observation-category",
                "code": "laboratory"
              }
            ]
          }
        ],
        "code": {
          "coding": [
            {
              "code": "2951-2",
              "system": "http://loinc.org",
              "display": "Sodium [Moles/volume] in Serum or Plasma"
            }
          ],
          "text": "Sodium [Moles/volume] in Serum or Plasma"
        },
        "valueQuantity": {
          "system": "http://unitsofmeasure.org",
          "value": 137.2,
          "unit": "mmol/L",
          "code": "mmol/L"
        },
        "referenceRange": [
          {
            "low": {
              "value": 135,
              "code": "mmol/L",
              "system": "http://unitsofmeasure.org"
            }
          },
          {
            "high": {
              "value": 145,
              "code": "mmol/L",
              "system": "http://unitsofmeasure.org"
            }
          }
        ],
        "text": {
          "status": "generated",
          "div": "<div xmlns=\"http://www.w3.org/1999/xhtml\"><table class=\"hl7__eu__lab__report\"><tr><th>Test</th><th>29-Jun-2017</th><th>Reference&#xA0;Range</th><th>Unit</th></tr><tr><td>Sodium [Moles/volume] in Serum or Plasma</td><td>137.2</td><td>135 - 145</td><td></td><td>mmol/L</td></tr></table></div>"
        },
        "status": "final",
        "subject": {
          "reference": "urn:uuid:2ff1139a-ca21-4bec-849c-e4f8746555be",
          "display": "Molly Jenkins"
        },
        "effectiveDateTime": "2017-06-29T14:42:11Z",
        "specimen": {
          "reference": "urn:uuid:5cbcf0f5-3a6d-4045-ae45-76ff1c7f8509"
        }
      }
    },
    {
      "fullUrl": "urn:uuid:bf4858b9-001e-4b38-9e6c-4203076b8d3c",
      "resource": {
        "resourceType": "Observation",
        "id": "bf4858b9-001e-4b38-9e6c-4203076b8d3c",
        "meta": {
          "profile": [
            "http://hl7.eu/fhir/laboratory/StructureDefinition/Observation-resultslab-eu-lab"
          ]
        },
        "performer": [
          {
            "display": "The Central European Lab"
          }
        ],
        "category": [
          {
            "coding": [
              {
                "system": "http://terminology.hl7.org/CodeSystem/observation-category",
                "code": "laboratory"
              }
            ]
          }
        ],
        "code": {
          "coding": [
            {
              "code": "2823-3",
              "system": "http://loinc.org",
              "display": "Potassium [Moles/volume] in Serum or Plasma"
            }
          ],
          "text": "Potassium [Moles/volume] in Serum or Plasma"
        },
        "valueQuantity": {
          "system": "http://unitsofmeasure.org",
          "value": 4.6,
          "unit": "mmol/L",
          "code": "mmol/L"
        },
        "referenceRange": [
          {
            "low": {
              "value": 3.5,
              "code": "mmol/L",
              "system": "http://unitsofmeasure.org"
            }
          },
          {
            "high": {
              "value": 5.1,
              "code": "mmol/L",
              "system": "http://unitsofmeasure.org"
            }
          }
        ],
        "text": {
          "status": "generated",
          "div": "<div xmlns=\"http://www.w3.org/1999/xhtml\"><table class=\"hl7__eu__lab__report\"><tr><th>Test</th><th>29-Jun-2017</th><th>Reference&#xA0;Range</th><th>Unit</th></tr><tr><td>Potassium [Moles/volume] in Serum or Plasma</td><td>4.6</td><td>3.5 - 5.1</td><td></td><td>mmol/L</td></tr></table></div>"
        },
        "status": "final",
        "subject": {
          "reference": "urn:uuid:2ff1139a-ca21-4bec-849c-e4f8746555be",
          "display": "Molly Jenkins"
        },
        "effectiveDateTime": "2017-06-29T14:42:11Z",
        "specimen": {
          "reference": "urn:uuid:5cbcf0f5-3a6d-4045-ae45-76ff1c7f8509"
        }
      }
    },
    {
      "fullUrl": "urn:uuid:67bdf101-d621-4ef5-9c28-fdcf7498a174",
      "resource": {
        "resourceType": "Observation",
        "id": "67bdf101-d621-4ef5-9c28-fdcf7498a174",
        "meta": {
          "profile": [
            "http://hl7.eu/fhir/laboratory/StructureDefinition/Observation-resultslab-eu-lab"
          ]
        },
        "performer": [
          {
            "display": "The Central European Lab"
          }
        ],
        "category": [
          {
            "coding": [
              {
                "system": "http://terminology.hl7.org/CodeSystem/observation-category",
                "code": "laboratory"
              }
            ]
          }
        ],
        "code": {
          "coding": [
            {
              "code": "2075-0",
              "system": "http://loinc.org",
              "display": "Chloride [Moles/volume] in Serum or Plasma"
            }
          ],
          "text": "Chloride [Moles/volume] in Serum or Plasma"
        },
        "valueQuantity": {
          "system": "http://unitsofmeasure.org",
          "value": 110.3,
          "unit": "mmol/L",
          "code": "mmol/L"
        },
        "referenceRange": [
          {
            "low": {
              "value": 98,
              "code": "mmol/L",
              "system": "http://unitsofmeasure.org"
            }
          },
          {
            "high": {
              "value": 110,
              "code": "mmol/L",
              "system": "http://unitsofmeasure.org"
            }
          }
        ],
        "interpretation": [
          {
            "coding": [
              {
                "code": "H",
                "system": "http://terminology.hl7.org/CodeSystem/v3-ObservationInterpretation",
                "display": "High"
              }
            ]
          }
        ],
        "text": {
          "status": "generated",
          "div": "<div xmlns=\"http://www.w3.org/1999/xhtml\"><table class=\"hl7__eu__lab__report\"><tr><th>Test</th><th>29-Jun-2017</th><th>Reference&#xA0;Range</th><th>Unit</th></tr><tr><td>Chloride [Moles/volume] in Serum or Plasma</td><td>110.3</td><td>98 - 110</td><td>H</td><td>mmol/L</td></tr></table></div>"
        },
        "status": "final",
        "subject": {
          "reference": "urn:uuid:2ff1139a-ca21-4bec-849c-e4f8746555be",
          "display": "Molly Jenkins"
        },
        "effectiveDateTime": "2017-06-29T14:42:11Z",
        "specimen": {
          "reference": "urn:uuid:5cbcf0f5-3a6d-4045-ae45-76ff1c7f8509"
        }
      }
    },
    {
      "fullUrl": "urn:uuid:64b94c20-e6b9-4bf7-b577-79c44668e83b",
      "resource": {
        "resourceType": "Observation",
        "id": "64b94c20-e6b9-4bf7-b577-79c44668e83b",
        "meta": {
          "profile": [
            "http://hl7.eu/fhir/laboratory/StructureDefinition/Observation-resultslab-eu-lab"
          ]
        },
        "performer": [
          {
            "display": "The Central European Lab"
          }
        ],
        "category": [
          {
            "coding": [
              {
                "system": "http://terminology.hl7.org/CodeSystem/observation-category",
                "code": "laboratory"
              }
            ]
          }
        ],
        "code": {
          "coding": [
            {
              "code": "2028-9",
              "system": "http://loinc.org",
              "display": "Carbon dioxide, total [Moles/volume] in Serum or Plasma"
            }
          ],
          "text": "Carbon dioxide, total [Moles/volume] in Serum or Plasma"
        },
        "valueQuantity": {
          "system": "http://unitsofmeasure.org",
          "value": 23.8,
          "unit": "mmol/L",
          "code": "mmol/L"
        },
        "referenceRange": [
          {
            "low": {
              "value": 22,
              "code": "mmol/L",
              "system": "http://unitsofmeasure.org"
            }
          },
          {
            "high": {
              "value": 32,
              "code": "mmol/L",
              "system": "http://unitsofmeasure.org"
            }
          }
        ],
        "text": {
          "status": "generated",
          "div": "<div xmlns=\"http://www.w3.org/1999/xhtml\"><table class=\"hl7__eu__lab__report\"><tr><th>Test</th><th>29-Jun-2017</th><th>Reference&#xA0;Range</th><th>Unit</th></tr><tr><td>Carbon dioxide, total [Moles/volume] in Serum or Plasma</td><td>23.8</td><td>22 - 32</td><td></td><td>mmol/L</td></tr></table></div>"
        },
        "status": "final",
        "subject": {
          "reference": "urn:uuid:2ff1139a-ca21-4bec-849c-e4f8746555be",
          "display": "Molly Jenkins"
        },
        "effectiveDateTime": "2017-06-29T14:42:11Z",
        "specimen": {
          "reference": "urn:uuid:5cbcf0f5-3a6d-4045-ae45-76ff1c7f8509"
        }
      }
    },
    {
      "fullUrl": "urn:uuid:4dca30c7-001b-43af-abd5-6d7f2b0fe336",
      "resource": {
        "resourceType": "Observation",
        "id": "4dca30c7-001b-43af-abd5-6d7f2b0fe336",
        "meta": {
          "profile": [
            "http://hl7.eu/fhir/laboratory/StructureDefinition/Observation-resultslab-eu-lab"
          ]
        },
        "performer": [
          {
            "display": "The Central European Lab"
          }
        ],
        "category": [
          {
            "coding": [
              {
                "system": "http://terminology.hl7.org/CodeSystem/observation-category",
                "code": "laboratory"
              }
            ]
          }
        ],
        "code": {
          "coding": [
            {
              "code": "5767-9",
              "system": "http://loinc.org",
              "display": "Appearance of Urine"
            }
          ],
          "text": "Appearance of Urine"
        },
        "text": {
          "status": "generated",
          "div": "<div xmlns=\"http://www.w3.org/1999/xhtml\"><table class=\"hl7__eu__lab__report\"><tr><th>Test</th><th>29-Jun-2017</th><th>Reference&#xA0;Range</th><th>Unit</th></tr><tr><td>Appearance of Urine</td></tr></table></div>"
        },
        "status": "final",
        "subject": {
          "reference": "urn:uuid:2ff1139a-ca21-4bec-849c-e4f8746555be",
          "display": "Molly Jenkins"
        },
        "effectiveDateTime": "2017-06-29T14:42:11Z",
        "specimen": {
          "reference": "urn:uuid:75a714bc-09c6-4ddd-8e69-8d86f8630539"
        }
      }
    },
    {
      "fullUrl": "urn:uuid:8bbfa7d1-152f-4b5a-9a18-4f0b3937c9c1",
      "resource": {
        "resourceType": "Observation",
        "id": "8bbfa7d1-152f-4b5a-9a18-4f0b3937c9c1",
        "meta": {
          "profile": [
            "http://hl7.eu/fhir/laboratory/StructureDefinition/Observation-resultslab-eu-lab"
          ]
        },
        "performer": [
          {
            "display": "The Central European Lab"
          }
        ],
        "category": [
          {
            "coding": [
              {
                "system": "http://terminology.hl7.org/CodeSystem/observation-category",
                "code": "laboratory"
              }
            ]
          }
        ],
        "code": {
          "coding": [
            {
              "code": "34533-0",
              "system": "http://loinc.org",
              "display": "Odor of Urine"
            }
          ],
          "text": "Odor of Urine"
        },
        "text": {
          "status": "generated",
          "div": "<div xmlns=\"http://www.w3.org/1999/xhtml\"><table class=\"hl7__eu__lab__report\"><tr><th>Test</th><th>29-Jun-2017</th><th>Reference&#xA0;Range</th><th>Unit</th></tr><tr><td>Odor of Urine</td></tr></table></div>"
        },
        "status": "final",
        "subject": {
          "reference": "urn:uuid:2ff1139a-ca21-4bec-849c-e4f8746555be",
          "display": "Molly Jenkins"
        },
        "effectiveDateTime": "2017-06-29T14:42:11Z",
        "specimen": {
          "reference": "urn:uuid:75a714bc-09c6-4ddd-8e69-8d86f8630539"
        }
      }
    },
    {
      "fullUrl": "urn:uuid:595e9da2-0a4e-462a-8cc2-abb3ec28c200",
      "resource": {
        "resourceType": "Observation",
        "id": "595e9da2-0a4e-462a-8cc2-abb3ec28c200",
        "meta": {
          "profile": [
            "http://hl7.eu/fhir/laboratory/StructureDefinition/Observation-resultslab-eu-lab"
          ]
        },
        "performer": [
          {
            "display": "The Central European Lab"
          }
        ],
        "category": [
          {
            "coding": [
              {
                "system": "http://terminology.hl7.org/CodeSystem/observation-category",
                "code": "laboratory"
              }
            ]
          }
        ],
        "code": {
          "coding": [
            {
              "code": "32167-9",
              "system": "http://loinc.org",
              "display": "Clarity of Urine"
            }
          ],
          "text": "Clarity of Urine"
        },
        "text": {
          "status": "generated",
          "div": "<div xmlns=\"http://www.w3.org/1999/xhtml\"><table class=\"hl7__eu__lab__report\"><tr><th>Test</th><th>29-Jun-2017</th><th>Reference&#xA0;Range</th><th>Unit</th></tr><tr><td>Clarity of Urine</td></tr></table></div>"
        },
        "status": "final",
        "subject": {
          "reference": "urn:uuid:2ff1139a-ca21-4bec-849c-e4f8746555be",
          "display": "Molly Jenkins"
        },
        "effectiveDateTime": "2017-06-29T14:42:11Z",
        "specimen": {
          "reference": "urn:uuid:75a714bc-09c6-4ddd-8e69-8d86f8630539"
        }
      }
    },
    {
      "fullUrl": "urn:uuid:2d7718e1-2cd8-419f-984a-4fa65c8d93f2",
      "resource": {
        "resourceType": "Observation",
        "id": "2d7718e1-2cd8-419f-984a-4fa65c8d93f2",
        "meta": {
          "profile": [
            "http://hl7.eu/fhir/laboratory/StructureDefinition/Observation-resultslab-eu-lab"
          ]
        },
        "performer": [
          {
            "display": "The Central European Lab"
          }
        ],
        "category": [
          {
            "coding": [
              {
                "system": "http://terminology.hl7.org/CodeSystem/observation-category",
                "code": "laboratory"
              }
            ]
          }
        ],
        "code": {
          "coding": [
            {
              "code": "5778-6",
              "system": "http://loinc.org",
              "display": "Color of Urine"
            }
          ],
          "text": "Color of Urine"
        },
        "text": {
          "status": "generated",
          "div": "<div xmlns=\"http://www.w3.org/1999/xhtml\"><table class=\"hl7__eu__lab__report\"><tr><th>Test</th><th>29-Jun-2017</th><th>Reference&#xA0;Range</th><th>Unit</th></tr><tr><td>Color of Urine</td></tr></table></div>"
        },
        "status": "final",
        "subject": {
          "reference": "urn:uuid:2ff1139a-ca21-4bec-849c-e4f8746555be",
          "display": "Molly Jenkins"
        },
        "effectiveDateTime": "2017-06-29T14:42:11Z",
        "specimen": {
          "reference": "urn:uuid:75a714bc-09c6-4ddd-8e69-8d86f8630539"
        }
      }
    },
    {
      "fullUrl": "urn:uuid:d47e209b-2abd-43c7-b4bd-d9d3585407e5",
      "resource": {
        "resourceType": "Observation",
        "id": "d47e209b-2abd-43c7-b4bd-d9d3585407e5",
        "meta": {
          "profile": [
            "http://hl7.eu/fhir/laboratory/StructureDefinition/Observation-resultslab-eu-lab"
          ]
        },
        "performer": [
          {
            "display": "The Central European Lab"
          }
        ],
        "category": [
          {
            "coding": [
              {
                "system": "http://terminology.hl7.org/CodeSystem/observation-category",
                "code": "laboratory"
              }
            ]
          }
        ],
        "code": {
          "coding": [
            {
              "code": "5792-7",
              "system": "http://loinc.org",
              "display": "Glucose [Mass/volume] in Urine by Test strip"
            }
          ],
          "text": "Glucose [Mass/volume] in Urine by Test strip"
        },
        "valueQuantity": {
          "system": "http://unitsofmeasure.org",
          "value": 2.4,
          "unit": "mg/dL",
          "code": "mg/dL"
        },
        "referenceRange": [
          {
            "low": {
              "value": 0,
              "code": "mg/dL",
              "system": "http://unitsofmeasure.org"
            }
          },
          {
            "high": {
              "value": 0,
              "code": "mg/dL",
              "system": "http://unitsofmeasure.org"
            }
          }
        ],
        "interpretation": [
          {
            "coding": [
              {
                "code": "H",
                "system": "http://terminology.hl7.org/CodeSystem/v3-ObservationInterpretation",
                "display": "High"
              }
            ]
          }
        ],
        "text": {
          "status": "generated",
          "div": "<div xmlns=\"http://www.w3.org/1999/xhtml\"><table class=\"hl7__eu__lab__report\"><tr><th>Test</th><th>29-Jun-2017</th><th>Reference&#xA0;Range</th><th>Unit</th></tr><tr><td>Glucose [Mass/volume] in Urine by Test strip</td><td>2.4</td><td>0 - 0</td><td>H</td><td>mg/dL</td></tr></table></div>"
        },
        "status": "final",
        "subject": {
          "reference": "urn:uuid:2ff1139a-ca21-4bec-849c-e4f8746555be",
          "display": "Molly Jenkins"
        },
        "effectiveDateTime": "2017-06-29T14:42:11Z",
        "specimen": {
          "reference": "urn:uuid:75a714bc-09c6-4ddd-8e69-8d86f8630539"
        }
      }
    },
    {
      "fullUrl": "urn:uuid:02047cdb-55bf-4f48-9f75-c908059f7831",
      "resource": {
        "resourceType": "Observation",
        "id": "02047cdb-55bf-4f48-9f75-c908059f7831",
        "meta": {
          "profile": [
            "http://hl7.eu/fhir/laboratory/StructureDefinition/Observation-resultslab-eu-lab"
          ]
        },
        "performer": [
          {
            "display": "The Central European Lab"
          }
        ],
        "category": [
          {
            "coding": [
              {
                "system": "http://terminology.hl7.org/CodeSystem/observation-category",
                "code": "laboratory"
              }
            ]
          }
        ],
        "code": {
          "coding": [
            {
              "code": "25428-4",
              "system": "http://loinc.org",
              "display": "Glucose [Presence] in Urine by Test strip"
            }
          ],
          "text": "Glucose [Presence] in Urine by Test strip"
        },
        "text": {
          "status": "generated",
          "div": "<div xmlns=\"http://www.w3.org/1999/xhtml\"><table class=\"hl7__eu__lab__report\"><tr><th>Test</th><th>29-Jun-2017</th><th>Reference&#xA0;Range</th><th>Unit</th></tr><tr><td>Glucose [Presence] in Urine by Test strip</td></tr></table></div>"
        },
        "status": "final",
        "subject": {
          "reference": "urn:uuid:2ff1139a-ca21-4bec-849c-e4f8746555be",
          "display": "Molly Jenkins"
        },
        "effectiveDateTime": "2017-06-29T14:42:11Z",
        "specimen": {
          "reference": "urn:uuid:75a714bc-09c6-4ddd-8e69-8d86f8630539"
        }
      }
    },
    {
      "fullUrl": "urn:uuid:5d3a85be-7d9a-4d3e-9f81-3decf666d2e6",
      "resource": {
        "resourceType": "Observation",
        "id": "5d3a85be-7d9a-4d3e-9f81-3decf666d2e6",
        "meta": {
          "profile": [
            "http://hl7.eu/fhir/laboratory/StructureDefinition/Observation-resultslab-eu-lab"
          ]
        },
        "performer": [
          {
            "display": "The Central European Lab"
          }
        ],
        "category": [
          {
            "coding": [
              {
                "system": "http://terminology.hl7.org/CodeSystem/observation-category",
                "code": "laboratory"
              }
            ]
          }
        ],
        "code": {
          "coding": [
            {
              "code": "20505-4",
              "system": "http://loinc.org",
              "display": "Bilirubin.total [Mass/volume] in Urine by Test strip"
            }
          ],
          "text": "Bilirubin.total [Mass/volume] in Urine by Test strip"
        },
        "valueQuantity": {
          "system": "http://unitsofmeasure.org",
          "value": 1.3,
          "unit": "mg/dL",
          "code": "mg/dL"
        },
        "referenceRange": [
          {
            "low": {
              "value": 0,
              "code": "mg/dL",
              "system": "http://unitsofmeasure.org"
            }
          },
          {
            "high": {
              "value": 1.6,
              "code": "mg/dL",
              "system": "http://unitsofmeasure.org"
            }
          }
        ],
        "text": {
          "status": "generated",
          "div": "<div xmlns=\"http://www.w3.org/1999/xhtml\"><table class=\"hl7__eu__lab__report\"><tr><th>Test</th><th>29-Jun-2017</th><th>Reference&#xA0;Range</th><th>Unit</th></tr><tr><td>Bilirubin.total [Mass/volume] in Urine by Test strip</td><td>1.3</td><td>0 - 1.6</td><td></td><td>mg/dL</td></tr></table></div>"
        },
        "status": "final",
        "subject": {
          "reference": "urn:uuid:2ff1139a-ca21-4bec-849c-e4f8746555be",
          "display": "Molly Jenkins"
        },
        "effectiveDateTime": "2017-06-29T14:42:11Z",
        "specimen": {
          "reference": "urn:uuid:75a714bc-09c6-4ddd-8e69-8d86f8630539"
        }
      }
    },
    {
      "fullUrl": "urn:uuid:a564aec3-dd1b-4240-8085-d0e5c9b56ad2",
      "resource": {
        "resourceType": "Observation",
        "id": "a564aec3-dd1b-4240-8085-d0e5c9b56ad2",
        "meta": {
          "profile": [
            "http://hl7.eu/fhir/laboratory/StructureDefinition/Observation-resultslab-eu-lab"
          ]
        },
        "performer": [
          {
            "display": "The Central European Lab"
          }
        ],
        "category": [
          {
            "coding": [
              {
                "system": "http://terminology.hl7.org/CodeSystem/observation-category",
                "code": "laboratory"
              }
            ]
          }
        ],
        "code": {
          "coding": [
            {
              "code": "5770-3",
              "system": "http://loinc.org",
              "display": "Bilirubin.total [Presence] in Urine by Test strip"
            }
          ],
          "text": "Bilirubin.total [Presence] in Urine by Test strip"
        },
        "text": {
          "status": "generated",
          "div": "<div xmlns=\"http://www.w3.org/1999/xhtml\"><table class=\"hl7__eu__lab__report\"><tr><th>Test</th><th>29-Jun-2017</th><th>Reference&#xA0;Range</th><th>Unit</th></tr><tr><td>Bilirubin.total [Presence] in Urine by Test strip</td></tr></table></div>"
        },
        "status": "final",
        "subject": {
          "reference": "urn:uuid:2ff1139a-ca21-4bec-849c-e4f8746555be",
          "display": "Molly Jenkins"
        },
        "effectiveDateTime": "2017-06-29T14:42:11Z",
        "specimen": {
          "reference": "urn:uuid:75a714bc-09c6-4ddd-8e69-8d86f8630539"
        }
      }
    },
    {
      "fullUrl": "urn:uuid:095df643-10ca-4d01-b371-9d2278b2edc7",
      "resource": {
        "resourceType": "Observation",
        "id": "095df643-10ca-4d01-b371-9d2278b2edc7",
        "meta": {
          "profile": [
            "http://hl7.eu/fhir/laboratory/StructureDefinition/Observation-resultslab-eu-lab"
          ]
        },
        "performer": [
          {
            "display": "The Central European Lab"
          }
        ],
        "category": [
          {
            "coding": [
              {
                "system": "http://terminology.hl7.org/CodeSystem/observation-category",
                "code": "laboratory"
              }
            ]
          }
        ],
        "code": {
          "coding": [
            {
              "code": "5797-6",
              "system": "http://loinc.org",
              "display": "Ketones [Mass/volume] in Urine by Test strip"
            }
          ],
          "text": "Ketones [Mass/volume] in Urine by Test strip"
        },
        "valueQuantity": {
          "system": "http://unitsofmeasure.org",
          "value": 10.8,
          "unit": "mg/dL",
          "code": "mg/dL"
        },
        "referenceRange": [
          {
            "low": {
              "value": 0,
              "code": "mg/dL",
              "system": "http://unitsofmeasure.org"
            }
          },
          {
            "high": {
              "value": 0.5,
              "code": "mg/dL",
              "system": "http://unitsofmeasure.org"
            }
          }
        ],
        "interpretation": [
          {
            "coding": [
              {
                "code": "H",
                "system": "http://terminology.hl7.org/CodeSystem/v3-ObservationInterpretation",
                "display": "High"
              }
            ]
          }
        ],
        "text": {
          "status": "generated",
          "div": "<div xmlns=\"http://www.w3.org/1999/xhtml\"><table class=\"hl7__eu__lab__report\"><tr><th>Test</th><th>29-Jun-2017</th><th>Reference&#xA0;Range</th><th>Unit</th></tr><tr><td>Ketones [Mass/volume] in Urine by Test strip</td><td>10.8</td><td>0 - 0.5</td><td>H</td><td>mg/dL</td></tr></table></div>"
        },
        "status": "final",
        "subject": {
          "reference": "urn:uuid:2ff1139a-ca21-4bec-849c-e4f8746555be",
          "display": "Molly Jenkins"
        },
        "effectiveDateTime": "2017-06-29T14:42:11Z",
        "specimen": {
          "reference": "urn:uuid:75a714bc-09c6-4ddd-8e69-8d86f8630539"
        }
      }
    },
    {
      "fullUrl": "urn:uuid:4176e594-f3f0-4bf9-a5d7-acf1e698f825",
      "resource": {
        "resourceType": "Observation",
        "id": "4176e594-f3f0-4bf9-a5d7-acf1e698f825",
        "meta": {
          "profile": [
            "http://hl7.eu/fhir/laboratory/StructureDefinition/Observation-resultslab-eu-lab"
          ]
        },
        "performer": [
          {
            "display": "The Central European Lab"
          }
        ],
        "category": [
          {
            "coding": [
              {
                "system": "http://terminology.hl7.org/CodeSystem/observation-category",
                "code": "laboratory"
              }
            ]
          }
        ],
        "code": {
          "coding": [
            {
              "code": "2514-8",
              "system": "http://loinc.org",
              "display": "Ketones [Presence] in Urine by Test strip"
            }
          ],
          "text": "Ketones [Presence] in Urine by Test strip"
        },
        "text": {
          "status": "generated",
          "div": "<div xmlns=\"http://www.w3.org/1999/xhtml\"><table class=\"hl7__eu__lab__report\"><tr><th>Test</th><th>29-Jun-2017</th><th>Reference&#xA0;Range</th><th>Unit</th></tr><tr><td>Ketones [Presence] in Urine by Test strip</td></tr></table></div>"
        },
        "status": "final",
        "subject": {
          "reference": "urn:uuid:2ff1139a-ca21-4bec-849c-e4f8746555be",
          "display": "Molly Jenkins"
        },
        "effectiveDateTime": "2017-06-29T14:42:11Z",
        "specimen": {
          "reference": "urn:uuid:75a714bc-09c6-4ddd-8e69-8d86f8630539"
        }
      }
    },
    {
      "fullUrl": "urn:uuid:129a2363-abe4-4033-a235-c739ec4789ff",
      "resource": {
        "resourceType": "Observation",
        "id": "129a2363-abe4-4033-a235-c739ec4789ff",
        "meta": {
          "profile": [
            "http://hl7.eu/fhir/laboratory/StructureDefinition/Observation-resultslab-eu-lab"
          ]
        },
        "performer": [
          {
            "display": "The Central European Lab"
          }
        ],
        "category": [
          {
            "coding": [
              {
                "system": "http://terminology.hl7.org/CodeSystem/observation-category",
                "code": "laboratory"
              }
            ]
          }
        ],
        "code": {
          "coding": [
            {
              "code": "5811-5",
              "system": "http://loinc.org",
              "display": "Specific gravity of Urine by Test strip"
            }
          ],
          "text": "Specific gravity of Urine by Test strip"
        },
        "valueQuantity": {
          "system": "http://unitsofmeasure.org",
          "value": 1,
          "unit": "{nominal}",
          "code": "{nominal}"
        },
        "referenceRange": [
          {
            "low": {
              "value": 1.005,
              "code": "g/mL",
              "system": "http://unitsofmeasure.org"
            }
          },
          {
            "high": {
              "value": 1.03,
              "code": "g/mL",
              "system": "http://unitsofmeasure.org"
            }
          }
        ],
        "interpretation": [
          {
            "coding": [
              {
                "code": "L",
                "system": "http://terminology.hl7.org/CodeSystem/v3-ObservationInterpretation",
                "display": "Low"
              }
            ]
          }
        ],
        "text": {
          "status": "generated",
          "div": "<div xmlns=\"http://www.w3.org/1999/xhtml\"><table class=\"hl7__eu__lab__report\"><tr><th>Test</th><th>29-Jun-2017</th><th>Reference&#xA0;Range</th><th>Unit</th></tr><tr><td>Specific gravity of Urine by Test strip</td><td>1.0</td><td>1.005 - 1.03</td><td>L</td><td>{nominal}</td></tr></table></div>"
        },
        "status": "final",
        "subject": {
          "reference": "urn:uuid:2ff1139a-ca21-4bec-849c-e4f8746555be",
          "display": "Molly Jenkins"
        },
        "effectiveDateTime": "2017-06-29T14:42:11Z",
        "specimen": {
          "reference": "urn:uuid:75a714bc-09c6-4ddd-8e69-8d86f8630539"
        }
      }
    },
    {
      "fullUrl": "urn:uuid:91d9f9b4-27a3-431d-b7de-f4efe28891a4",
      "resource": {
        "resourceType": "Observation",
        "id": "91d9f9b4-27a3-431d-b7de-f4efe28891a4",
        "meta": {
          "profile": [
            "http://hl7.eu/fhir/laboratory/StructureDefinition/Observation-resultslab-eu-lab"
          ]
        },
        "performer": [
          {
            "display": "The Central European Lab"
          }
        ],
        "category": [
          {
            "coding": [
              {
                "system": "http://terminology.hl7.org/CodeSystem/observation-category",
                "code": "laboratory"
              }
            ]
          }
        ],
        "code": {
          "coding": [
            {
              "code": "5803-2",
              "system": "http://loinc.org",
              "display": "pH of Urine by Test strip"
            }
          ],
          "text": "pH of Urine by Test strip"
        },
        "valueQuantity": {
          "system": "http://unitsofmeasure.org",
          "value": 5.6,
          "unit": "pH",
          "code": "pH"
        },
        "referenceRange": [
          {
            "low": {
              "value": 4.5,
              "code": "pH",
              "system": "http://unitsofmeasure.org"
            }
          },
          {
            "high": {
              "value": 7.5,
              "code": "pH",
              "system": "http://unitsofmeasure.org"
            }
          }
        ],
        "text": {
          "status": "generated",
          "div": "<div xmlns=\"http://www.w3.org/1999/xhtml\"><table class=\"hl7__eu__lab__report\"><tr><th>Test</th><th>29-Jun-2017</th><th>Reference&#xA0;Range</th><th>Unit</th></tr><tr><td>pH of Urine by Test strip</td><td>5.6</td><td>4.5 - 7.5</td><td></td><td>pH</td></tr></table></div>"
        },
        "status": "final",
        "subject": {
          "reference": "urn:uuid:2ff1139a-ca21-4bec-849c-e4f8746555be",
          "display": "Molly Jenkins"
        },
        "effectiveDateTime": "2017-06-29T14:42:11Z",
        "specimen": {
          "reference": "urn:uuid:75a714bc-09c6-4ddd-8e69-8d86f8630539"
        }
      }
    },
    {
      "fullUrl": "urn:uuid:387f9c75-40d1-4031-b931-3fd277d1d349",
      "resource": {
        "resourceType": "Observation",
        "id": "387f9c75-40d1-4031-b931-3fd277d1d349",
        "meta": {
          "profile": [
            "http://hl7.eu/fhir/laboratory/StructureDefinition/Observation-resultslab-eu-lab"
          ]
        },
        "performer": [
          {
            "display": "The Central European Lab"
          }
        ],
        "category": [
          {
            "coding": [
              {
                "system": "http://terminology.hl7.org/CodeSystem/observation-category",
                "code": "laboratory"
              }
            ]
          }
        ],
        "code": {
          "coding": [
            {
              "code": "5804-0",
              "system": "http://loinc.org",
              "display": "Protein [Mass/volume] in Urine by Test strip"
            }
          ],
          "text": "Protein [Mass/volume] in Urine by Test strip"
        },
        "valueQuantity": {
          "system": "http://unitsofmeasure.org",
          "value": 274.5,
          "unit": "mg/dL",
          "code": "mg/dL"
        },
        "referenceRange": [
          {
            "low": {
              "value": 0,
              "code": "mg/dL",
              "system": "http://unitsofmeasure.org"
            }
          },
          {
            "high": {
              "value": 15,
              "code": "mg/dL",
              "system": "http://unitsofmeasure.org"
            }
          }
        ],
        "interpretation": [
          {
            "coding": [
              {
                "code": "H",
                "system": "http://terminology.hl7.org/CodeSystem/v3-ObservationInterpretation",
                "display": "High"
              }
            ]
          }
        ],
        "text": {
          "status": "generated",
          "div": "<div xmlns=\"http://www.w3.org/1999/xhtml\"><table class=\"hl7__eu__lab__report\"><tr><th>Test</th><th>29-Jun-2017</th><th>Reference&#xA0;Range</th><th>Unit</th></tr><tr><td>Protein [Mass/volume] in Urine by Test strip</td><td>274.5</td><td>0 - 15</td><td>H</td><td>mg/dL</td></tr></table></div>"
        },
        "status": "final",
        "subject": {
          "reference": "urn:uuid:2ff1139a-ca21-4bec-849c-e4f8746555be",
          "display": "Molly Jenkins"
        },
        "effectiveDateTime": "2017-06-29T14:42:11Z",
        "specimen": {
          "reference": "urn:uuid:75a714bc-09c6-4ddd-8e69-8d86f8630539"
        }
      }
    },
    {
      "fullUrl": "urn:uuid:782a2458-c917-46af-8973-1f1e7aae401c",
      "resource": {
        "resourceType": "Observation",
        "id": "782a2458-c917-46af-8973-1f1e7aae401c",
        "meta": {
          "profile": [
            "http://hl7.eu/fhir/laboratory/StructureDefinition/Observation-resultslab-eu-lab"
          ]
        },
        "performer": [
          {
            "display": "The Central European Lab"
          }
        ],
        "category": [
          {
            "coding": [
              {
                "system": "http://terminology.hl7.org/CodeSystem/observation-category",
                "code": "laboratory"
              }
            ]
          }
        ],
        "code": {
          "coding": [
            {
              "code": "20454-5",
              "system": "http://loinc.org",
              "display": "Protein [Presence] in Urine by Test strip"
            }
          ],
          "text": "Protein [Presence] in Urine by Test strip"
        },
        "text": {
          "status": "generated",
          "div": "<div xmlns=\"http://www.w3.org/1999/xhtml\"><table class=\"hl7__eu__lab__report\"><tr><th>Test</th><th>29-Jun-2017</th><th>Reference&#xA0;Range</th><th>Unit</th></tr><tr><td>Protein [Presence] in Urine by Test strip</td></tr></table></div>"
        },
        "status": "final",
        "subject": {
          "reference": "urn:uuid:2ff1139a-ca21-4bec-849c-e4f8746555be",
          "display": "Molly Jenkins"
        },
        "effectiveDateTime": "2017-06-29T14:42:11Z",
        "specimen": {
          "reference": "urn:uuid:75a714bc-09c6-4ddd-8e69-8d86f8630539"
        }
      }
    },
    {
      "fullUrl": "urn:uuid:6d743c98-b218-4d52-b68e-81378bf2f64e",
      "resource": {
        "resourceType": "Observation",
        "id": "6d743c98-b218-4d52-b68e-81378bf2f64e",
        "meta": {
          "profile": [
            "http://hl7.eu/fhir/laboratory/StructureDefinition/Observation-resultslab-eu-lab"
          ]
        },
        "performer": [
          {
            "display": "The Central European Lab"
          }
        ],
        "category": [
          {
            "coding": [
              {
                "system": "http://terminology.hl7.org/CodeSystem/observation-category",
                "code": "laboratory"
              }
            ]
          }
        ],
        "code": {
          "coding": [
            {
              "code": "5802-4",
              "system": "http://loinc.org",
              "display": "Nitrite [Presence] in Urine by Test strip"
            }
          ],
          "text": "Nitrite [Presence] in Urine by Test strip"
        },
        "text": {
          "status": "generated",
          "div": "<div xmlns=\"http://www.w3.org/1999/xhtml\"><table class=\"hl7__eu__lab__report\"><tr><th>Test</th><th>29-Jun-2017</th><th>Reference&#xA0;Range</th><th>Unit</th></tr><tr><td>Nitrite [Presence] in Urine by Test strip</td></tr></table></div>"
        },
        "status": "final",
        "subject": {
          "reference": "urn:uuid:2ff1139a-ca21-4bec-849c-e4f8746555be",
          "display": "Molly Jenkins"
        },
        "effectiveDateTime": "2017-06-29T14:42:11Z",
        "specimen": {
          "reference": "urn:uuid:75a714bc-09c6-4ddd-8e69-8d86f8630539"
        }
      }
    },
    {
      "fullUrl": "urn:uuid:fb3874ee-4ed9-4722-90f5-36d7e4b52b24",
      "resource": {
        "resourceType": "Observation",
        "id": "fb3874ee-4ed9-4722-90f5-36d7e4b52b24",
        "meta": {
          "profile": [
            "http://hl7.eu/fhir/laboratory/StructureDefinition/Observation-resultslab-eu-lab"
          ]
        },
        "performer": [
          {
            "display": "The Central European Lab"
          }
        ],
        "category": [
          {
            "coding": [
              {
                "system": "http://terminology.hl7.org/CodeSystem/observation-category",
                "code": "laboratory"
              }
            ]
          }
        ],
        "code": {
          "coding": [
            {
              "code": "5794-3",
              "system": "http://loinc.org",
              "display": "Hemoglobin [Presence] in Urine by Test strip"
            }
          ],
          "text": "Hemoglobin [Presence] in Urine by Test strip"
        },
        "text": {
          "status": "generated",
          "div": "<div xmlns=\"http://www.w3.org/1999/xhtml\"><table class=\"hl7__eu__lab__report\"><tr><th>Test</th><th>29-Jun-2017</th><th>Reference&#xA0;Range</th><th>Unit</th></tr><tr><td>Hemoglobin [Presence] in Urine by Test strip</td></tr></table></div>"
        },
        "status": "final",
        "subject": {
          "reference": "urn:uuid:2ff1139a-ca21-4bec-849c-e4f8746555be",
          "display": "Molly Jenkins"
        },
        "effectiveDateTime": "2017-06-29T14:42:11Z",
        "specimen": {
          "reference": "urn:uuid:75a714bc-09c6-4ddd-8e69-8d86f8630539"
        }
      }
    },
    {
      "fullUrl": "urn:uuid:e6158c26-4777-4af3-8286-af921ce7c4fa",
      "resource": {
        "resourceType": "Observation",
        "id": "e6158c26-4777-4af3-8286-af921ce7c4fa",
        "meta": {
          "profile": [
            "http://hl7.eu/fhir/laboratory/StructureDefinition/Observation-resultslab-eu-lab"
          ]
        },
        "performer": [
          {
            "display": "The Central European Lab"
          }
        ],
        "category": [
          {
            "coding": [
              {
                "system": "http://terminology.hl7.org/CodeSystem/observation-category",
                "code": "laboratory"
              }
            ]
          }
        ],
        "code": {
          "coding": [
            {
              "code": "5799-2",
              "system": "http://loinc.org",
              "display": "Leukocyte esterase [Presence] in Urine by Test strip"
            }
          ],
          "text": "Leukocyte esterase [Presence] in Urine by Test strip"
        },
        "text": {
          "status": "generated",
          "div": "<div xmlns=\"http://www.w3.org/1999/xhtml\"><table class=\"hl7__eu__lab__report\"><tr><th>Test</th><th>29-Jun-2017</th><th>Reference&#xA0;Range</th><th>Unit</th></tr><tr><td>Leukocyte esterase [Presence] in Urine by Test strip</td></tr></table></div>"
        },
        "status": "final",
        "subject": {
          "reference": "urn:uuid:2ff1139a-ca21-4bec-849c-e4f8746555be",
          "display": "Molly Jenkins"
        },
        "effectiveDateTime": "2017-06-29T14:42:11Z",
        "specimen": {
          "reference": "urn:uuid:75a714bc-09c6-4ddd-8e69-8d86f8630539"
        }
      }
    },
    {
      "fullUrl": "urn:uuid:955185a1-36a6-4b8d-832e-6a6cb79d8e81",
      "resource": {
        "resourceType": "Observation",
        "id": "955185a1-36a6-4b8d-832e-6a6cb79d8e81",
        "meta": {
          "profile": [
            "http://hl7.eu/fhir/laboratory/StructureDefinition/Observation-resultslab-eu-lab"
          ]
        },
        "performer": [
          {
            "display": "The Central European Lab"
          }
        ],
        "category": [
          {
            "coding": [
              {
                "system": "http://terminology.hl7.org/CodeSystem/observation-category",
                "code": "laboratory"
              }
            ]
          }
        ],
        "code": {
          "coding": [
            {
              "code": "4548-4",
              "system": "http://loinc.org",
              "display": "Hemoglobin A1c/Hemoglobin.total in Blood"
            }
          ],
          "text": "Hemoglobin A1c/Hemoglobin.total in Blood"
        },
        "valueQuantity": {
          "system": "http://unitsofmeasure.org",
          "value": 3.3,
          "unit": "%",
          "code": "%"
        },
        "referenceRange": [
          {
            "low": {
              "value": 4,
              "code": "%",
              "system": "http://unitsofmeasure.org"
            }
          },
          {
            "high": {
              "value": 6,
              "code": "%",
              "system": "http://unitsofmeasure.org"
            }
          }
        ],
        "interpretation": [
          {
            "coding": [
              {
                "code": "L",
                "system": "http://terminology.hl7.org/CodeSystem/v3-ObservationInterpretation",
                "display": "Low"
              }
            ]
          }
        ],
        "text": {
          "status": "generated",
          "div": "<div xmlns=\"http://www.w3.org/1999/xhtml\"><table class=\"hl7__eu__lab__report\"><tr><th>Test</th><th>29-Jun-2017</th><th>Reference&#xA0;Range</th><th>Unit</th></tr><tr><td>Hemoglobin A1c/Hemoglobin.total in Blood</td><td>3.3</td><td>4 - 6</td><td>L</td><td>%</td></tr></table></div>"
        },
        "status": "final",
        "subject": {
          "reference": "urn:uuid:2ff1139a-ca21-4bec-849c-e4f8746555be",
          "display": "Molly Jenkins"
        },
        "effectiveDateTime": "2017-06-29T14:42:11Z",
        "specimen": {
          "reference": "urn:uuid:f9ab95b9-030d-4e32-bbc0-7a88c73fb510"
        }
      }
    },
    {
      "fullUrl": "urn:uuid:5432f47d-1cd5-4e0f-84c1-ae796f015842",
      "resource": {
        "resourceType": "Observation",
        "id": "5432f47d-1cd5-4e0f-84c1-ae796f015842",
        "meta": {
          "profile": [
            "http://hl7.eu/fhir/laboratory/StructureDefinition/Observation-resultslab-eu-lab"
          ]
        },
        "performer": [
          {
            "display": "The Central European Lab"
          }
        ],
        "category": [
          {
            "coding": [
              {
                "system": "http://terminology.hl7.org/CodeSystem/observation-category",
                "code": "laboratory"
              }
            ]
          }
        ],
        "code": {
          "coding": [
            {
              "code": "2339-0",
              "system": "http://loinc.org",
              "display": "Glucose [Mass/volume] in Blood"
            }
          ],
          "text": "Glucose [Mass/volume] in Blood"
        },
        "valueQuantity": {
          "system": "http://unitsofmeasure.org",
          "value": 82.2,
          "unit": "mg/dL",
          "code": "mg/dL"
        },
        "referenceRange": [
          {
            "low": {
              "value": 70,
              "code": "mg/dL",
              "system": "http://unitsofmeasure.org"
            }
          },
          {
            "high": {
              "value": 100,
              "code": "mg/dL",
              "system": "http://unitsofmeasure.org"
            }
          }
        ],
        "text": {
          "status": "generated",
          "div": "<div xmlns=\"http://www.w3.org/1999/xhtml\"><table class=\"hl7__eu__lab__report\"><tr><th>Test</th><th>29-Jun-2017</th><th>Reference&#xA0;Range</th><th>Unit</th></tr><tr><td>Glucose [Mass/volume] in Blood</td><td>82.2</td><td>70 - 100</td><td></td><td>mg/dL</td></tr></table></div>"
        },
        "status": "final",
        "subject": {
          "reference": "urn:uuid:2ff1139a-ca21-4bec-849c-e4f8746555be",
          "display": "Molly Jenkins"
        },
        "effectiveDateTime": "2017-06-29T14:42:11Z",
        "specimen": {
          "reference": "urn:uuid:f9ab95b9-030d-4e32-bbc0-7a88c73fb510"
        }
      }
    },
    {
      "fullUrl": "urn:uuid:d3142979-90f3-463c-98a9-e2803f0c1548",
      "resource": {
        "resourceType": "Observation",
        "id": "d3142979-90f3-463c-98a9-e2803f0c1548",
        "meta": {
          "profile": [
            "http://hl7.eu/fhir/laboratory/StructureDefinition/Observation-resultslab-eu-lab"
          ]
        },
        "performer": [
          {
            "display": "The Central European Lab"
          }
        ],
        "category": [
          {
            "coding": [
              {
                "system": "http://terminology.hl7.org/CodeSystem/observation-category",
                "code": "laboratory"
              }
            ]
          }
        ],
        "code": {
          "coding": [
            {
              "code": "6299-2",
              "system": "http://loinc.org",
              "display": "Urea nitrogen [Mass/volume] in Blood"
            }
          ],
          "text": "Urea nitrogen [Mass/volume] in Blood"
        },
        "valueQuantity": {
          "system": "http://unitsofmeasure.org",
          "value": 14.5,
          "unit": "mg/dL",
          "code": "mg/dL"
        },
        "referenceRange": [
          {
            "low": {
              "value": 7,
              "code": "mg/dL",
              "system": "http://unitsofmeasure.org"
            }
          },
          {
            "high": {
              "value": 20,
              "code": "mg/dL",
              "system": "http://unitsofmeasure.org"
            }
          }
        ],
        "text": {
          "status": "generated",
          "div": "<div xmlns=\"http://www.w3.org/1999/xhtml\"><table class=\"hl7__eu__lab__report\"><tr><th>Test</th><th>29-Jun-2017</th><th>Reference&#xA0;Range</th><th>Unit</th></tr><tr><td>Urea nitrogen [Mass/volume] in Blood</td><td>14.5</td><td>7 - 20</td><td></td><td>mg/dL</td></tr></table></div>"
        },
        "status": "final",
        "subject": {
          "reference": "urn:uuid:2ff1139a-ca21-4bec-849c-e4f8746555be",
          "display": "Molly Jenkins"
        },
        "effectiveDateTime": "2017-06-29T14:42:11Z",
        "specimen": {
          "reference": "urn:uuid:f9ab95b9-030d-4e32-bbc0-7a88c73fb510"
        }
      }
    },
    {
      "fullUrl": "urn:uuid:5e972767-4e9f-4bbd-8a2b-b86ccf00fe5a",
      "resource": {
        "resourceType": "Observation",
        "id": "5e972767-4e9f-4bbd-8a2b-b86ccf00fe5a",
        "meta": {
          "profile": [
            "http://hl7.eu/fhir/laboratory/StructureDefinition/Observation-resultslab-eu-lab"
          ]
        },
        "performer": [
          {
            "display": "The Central European Lab"
          }
        ],
        "category": [
          {
            "coding": [
              {
                "system": "http://terminology.hl7.org/CodeSystem/observation-category",
                "code": "laboratory"
              }
            ]
          }
        ],
        "code": {
          "coding": [
            {
              "code": "38483-4",
              "system": "http://loinc.org",
              "display": "Creatinine [Mass/volume] in Blood"
            }
          ],
          "text": "Creatinine [Mass/volume] in Blood"
        },
        "valueQuantity": {
          "system": "http://unitsofmeasure.org",
          "value": 1.3,
          "unit": "mg/dL",
          "code": "mg/dL"
        },
        "referenceRange": [
          {
            "low": {
              "value": 0.6,
              "code": "mg/dL",
              "system": "http://unitsofmeasure.org"
            }
          },
          {
            "high": {
              "value": 1.3,
              "code": "mg/dL",
              "system": "http://unitsofmeasure.org"
            }
          }
        ],
        "text": {
          "status": "generated",
          "div": "<div xmlns=\"http://www.w3.org/1999/xhtml\"><table class=\"hl7__eu__lab__report\"><tr><th>Test</th><th>29-Jun-2017</th><th>Reference&#xA0;Range</th><th>Unit</th></tr><tr><td>Creatinine [Mass/volume] in Blood</td><td>1.3</td><td>0.6 - 1.3</td><td></td><td>mg/dL</td></tr></table></div>"
        },
        "status": "final",
        "subject": {
          "reference": "urn:uuid:2ff1139a-ca21-4bec-849c-e4f8746555be",
          "display": "Molly Jenkins"
        },
        "effectiveDateTime": "2017-06-29T14:42:11Z",
        "specimen": {
          "reference": "urn:uuid:f9ab95b9-030d-4e32-bbc0-7a88c73fb510"
        }
      }
    },
    {
      "fullUrl": "urn:uuid:c7a36048-8a99-4fd0-95f7-f812f62075dd",
      "resource": {
        "resourceType": "Observation",
        "id": "c7a36048-8a99-4fd0-95f7-f812f62075dd",
        "meta": {
          "profile": [
            "http://hl7.eu/fhir/laboratory/StructureDefinition/Observation-resultslab-eu-lab"
          ]
        },
        "performer": [
          {
            "display": "The Central European Lab"
          }
        ],
        "category": [
          {
            "coding": [
              {
                "system": "http://terminology.hl7.org/CodeSystem/observation-category",
                "code": "laboratory"
              }
            ]
          }
        ],
        "code": {
          "coding": [
            {
              "code": "49765-1",
              "system": "http://loinc.org",
              "display": "Calcium [Mass/volume] in Blood"
            }
          ],
          "text": "Calcium [Mass/volume] in Blood"
        },
        "valueQuantity": {
          "system": "http://unitsofmeasure.org",
          "value": 9.5,
          "unit": "mg/dL",
          "code": "mg/dL"
        },
        "referenceRange": [
          {
            "low": {
              "value": 8.6,
              "code": "mg/dL",
              "system": "http://unitsofmeasure.org"
            }
          },
          {
            "high": {
              "value": 10.4,
              "code": "mg/dL",
              "system": "http://unitsofmeasure.org"
            }
          }
        ],
        "text": {
          "status": "generated",
          "div": "<div xmlns=\"http://www.w3.org/1999/xhtml\"><table class=\"hl7__eu__lab__report\"><tr><th>Test</th><th>29-Jun-2017</th><th>Reference&#xA0;Range</th><th>Unit</th></tr><tr><td>Calcium [Mass/volume] in Blood</td><td>9.5</td><td>8.6 - 10.4</td><td></td><td>mg/dL</td></tr></table></div>"
        },
        "status": "final",
        "subject": {
          "reference": "urn:uuid:2ff1139a-ca21-4bec-849c-e4f8746555be",
          "display": "Molly Jenkins"
        },
        "effectiveDateTime": "2017-06-29T14:42:11Z",
        "specimen": {
          "reference": "urn:uuid:f9ab95b9-030d-4e32-bbc0-7a88c73fb510"
        }
      }
    },
    {
      "fullUrl": "urn:uuid:d19e961a-1bc9-4827-867b-1ad80a5a07cf",
      "resource": {
        "resourceType": "Observation",
        "id": "d19e961a-1bc9-4827-867b-1ad80a5a07cf",
        "meta": {
          "profile": [
            "http://hl7.eu/fhir/laboratory/StructureDefinition/Observation-resultslab-eu-lab"
          ]
        },
        "performer": [
          {
            "display": "The Central European Lab"
          }
        ],
        "category": [
          {
            "coding": [
              {
                "system": "http://terminology.hl7.org/CodeSystem/observation-category",
                "code": "laboratory"
              }
            ]
          }
        ],
        "code": {
          "coding": [
            {
              "code": "2947-0",
              "system": "http://loinc.org",
              "display": "Sodium [Moles/volume] in Blood"
            }
          ],
          "text": "Sodium [Moles/volume] in Blood"
        },
        "valueQuantity": {
          "system": "http://unitsofmeasure.org",
          "value": 137.2,
          "unit": "mmol/L",
          "code": "mmol/L"
        },
        "referenceRange": [
          {
            "low": {
              "value": 135,
              "code": "mmol/L",
              "system": "http://unitsofmeasure.org"
            }
          },
          {
            "high": {
              "value": 145,
              "code": "mmol/L",
              "system": "http://unitsofmeasure.org"
            }
          }
        ],
        "text": {
          "status": "generated",
          "div": "<div xmlns=\"http://www.w3.org/1999/xhtml\"><table class=\"hl7__eu__lab__report\"><tr><th>Test</th><th>29-Jun-2017</th><th>Reference&#xA0;Range</th><th>Unit</th></tr><tr><td>Sodium [Moles/volume] in Blood</td><td>137.2</td><td>135 - 145</td><td></td><td>mmol/L</td></tr></table></div>"
        },
        "status": "final",
        "subject": {
          "reference": "urn:uuid:2ff1139a-ca21-4bec-849c-e4f8746555be",
          "display": "Molly Jenkins"
        },
        "effectiveDateTime": "2017-06-29T14:42:11Z",
        "specimen": {
          "reference": "urn:uuid:f9ab95b9-030d-4e32-bbc0-7a88c73fb510"
        }
      }
    },
    {
      "fullUrl": "urn:uuid:28c8aa3c-077e-4f49-bd37-3da714259d2e",
      "resource": {
        "resourceType": "Observation",
        "id": "28c8aa3c-077e-4f49-bd37-3da714259d2e",
        "meta": {
          "profile": [
            "http://hl7.eu/fhir/laboratory/StructureDefinition/Observation-resultslab-eu-lab"
          ]
        },
        "performer": [
          {
            "display": "The Central European Lab"
          }
        ],
        "category": [
          {
            "coding": [
              {
                "system": "http://terminology.hl7.org/CodeSystem/observation-category",
                "code": "laboratory"
              }
            ]
          }
        ],
        "code": {
          "coding": [
            {
              "code": "6298-4",
              "system": "http://loinc.org",
              "display": "Potassium [Moles/volume] in Blood"
            }
          ],
          "text": "Potassium [Moles/volume] in Blood"
        },
        "valueQuantity": {
          "system": "http://unitsofmeasure.org",
          "value": 4.6,
          "unit": "mmol/L",
          "code": "mmol/L"
        },
        "referenceRange": [
          {
            "low": {
              "value": 3.5,
              "code": "mmol/L",
              "system": "http://unitsofmeasure.org"
            }
          },
          {
            "high": {
              "value": 5.1,
              "code": "mmol/L",
              "system": "http://unitsofmeasure.org"
            }
          }
        ],
        "text": {
          "status": "generated",
          "div": "<div xmlns=\"http://www.w3.org/1999/xhtml\"><table class=\"hl7__eu__lab__report\"><tr><th>Test</th><th>29-Jun-2017</th><th>Reference&#xA0;Range</th><th>Unit</th></tr><tr><td>Potassium [Moles/volume] in Blood</td><td>4.6</td><td>3.5 - 5.1</td><td></td><td>mmol/L</td></tr></table></div>"
        },
        "status": "final",
        "subject": {
          "reference": "urn:uuid:2ff1139a-ca21-4bec-849c-e4f8746555be",
          "display": "Molly Jenkins"
        },
        "effectiveDateTime": "2017-06-29T14:42:11Z",
        "specimen": {
          "reference": "urn:uuid:f9ab95b9-030d-4e32-bbc0-7a88c73fb510"
        }
      }
    },
    {
      "fullUrl": "urn:uuid:0ae9dded-fa96-41e9-92dc-8314bf0537a3",
      "resource": {
        "resourceType": "Observation",
        "id": "0ae9dded-fa96-41e9-92dc-8314bf0537a3",
        "meta": {
          "profile": [
            "http://hl7.eu/fhir/laboratory/StructureDefinition/Observation-resultslab-eu-lab"
          ]
        },
        "performer": [
          {
            "display": "The Central European Lab"
          }
        ],
        "category": [
          {
            "coding": [
              {
                "system": "http://terminology.hl7.org/CodeSystem/observation-category",
                "code": "laboratory"
              }
            ]
          }
        ],
        "code": {
          "coding": [
            {
              "code": "2069-3",
              "system": "http://loinc.org",
              "display": "Chloride [Moles/volume] in Blood"
            }
          ],
          "text": "Chloride [Moles/volume] in Blood"
        },
        "valueQuantity": {
          "system": "http://unitsofmeasure.org",
          "value": 110.3,
          "unit": "mmol/L",
          "code": "mmol/L"
        },
        "referenceRange": [
          {
            "low": {
              "value": 98,
              "code": "mmol/L",
              "system": "http://unitsofmeasure.org"
            }
          },
          {
            "high": {
              "value": 110,
              "code": "mmol/L",
              "system": "http://unitsofmeasure.org"
            }
          }
        ],
        "interpretation": [
          {
            "coding": [
              {
                "code": "H",
                "system": "http://terminology.hl7.org/CodeSystem/v3-ObservationInterpretation",
                "display": "High"
              }
            ]
          }
        ],
        "text": {
          "status": "generated",
          "div": "<div xmlns=\"http://www.w3.org/1999/xhtml\"><table class=\"hl7__eu__lab__report\"><tr><th>Test</th><th>29-Jun-2017</th><th>Reference&#xA0;Range</th><th>Unit</th></tr><tr><td>Chloride [Moles/volume] in Blood</td><td>110.3</td><td>98 - 110</td><td>H</td><td>mmol/L</td></tr></table></div>"
        },
        "status": "final",
        "subject": {
          "reference": "urn:uuid:2ff1139a-ca21-4bec-849c-e4f8746555be",
          "display": "Molly Jenkins"
        },
        "effectiveDateTime": "2017-06-29T14:42:11Z",
        "specimen": {
          "reference": "urn:uuid:f9ab95b9-030d-4e32-bbc0-7a88c73fb510"
        }
      }
    },
    {
      "fullUrl": "urn:uuid:3a830880-a390-4d62-ac2d-9f8b25832379",
      "resource": {
        "resourceType": "Observation",
        "id": "3a830880-a390-4d62-ac2d-9f8b25832379",
        "meta": {
          "profile": [
            "http://hl7.eu/fhir/laboratory/StructureDefinition/Observation-resultslab-eu-lab"
          ]
        },
        "performer": [
          {
            "display": "The Central European Lab"
          }
        ],
        "category": [
          {
            "coding": [
              {
                "system": "http://terminology.hl7.org/CodeSystem/observation-category",
                "code": "laboratory"
              }
            ]
          }
        ],
        "code": {
          "coding": [
            {
              "code": "20565-8",
              "system": "http://loinc.org",
              "display": "Carbon dioxide, total [Moles/volume] in Blood"
            }
          ],
          "text": "Carbon dioxide, total [Moles/volume] in Blood"
        },
        "valueQuantity": {
          "system": "http://unitsofmeasure.org",
          "value": 23.8,
          "unit": "mmol/L",
          "code": "mmol/L"
        },
        "referenceRange": [
          {
            "low": {
              "value": 22,
              "code": "mmol/L",
              "system": "http://unitsofmeasure.org"
            }
          },
          {
            "high": {
              "value": 29,
              "code": "mmol/L",
              "system": "http://unitsofmeasure.org"
            }
          }
        ],
        "text": {
          "status": "generated",
          "div": "<div xmlns=\"http://www.w3.org/1999/xhtml\"><table class=\"hl7__eu__lab__report\"><tr><th>Test</th><th>29-Jun-2017</th><th>Reference&#xA0;Range</th><th>Unit</th></tr><tr><td>Carbon dioxide, total [Moles/volume] in Blood</td><td>23.8</td><td>22 - 29</td><td></td><td>mmol/L</td></tr></table></div>"
        },
        "status": "final",
        "subject": {
          "reference": "urn:uuid:2ff1139a-ca21-4bec-849c-e4f8746555be",
          "display": "Molly Jenkins"
        },
        "effectiveDateTime": "2017-06-29T14:42:11Z",
        "specimen": {
          "reference": "urn:uuid:f9ab95b9-030d-4e32-bbc0-7a88c73fb510"
        }
      }
    },
    {
      "fullUrl": "urn:uuid:95958d2a-a198-497f-85fe-8b933297fdd8",
      "resource": {
        "resourceType": "Device",
        "id": "95958d2a-a198-497f-85fe-8b933297fdd8",
        "deviceName": [
          {
            "name": "SYNDERAI Synthetic Generator",
            "type": "manufacturer-name"
          }
        ],
        "version": [
          {
            "value": "5.0"
          }
        ],
        "text": {
          "status": "generated",
          "div": "<div xmlns=\"http://www.w3.org/1999/xhtml\">SYNDERAI Synthetic Generator v5.0</div>"
        },
        "status": "active\"",
        "distinctIdentifier": "synderai-generator-50",
        "manufacturer": "SYNDERAI Project"
      }
    },
    {
      "fullUrl": "urn:uuid:4eaf6b9c-3231-4c4b-8ff2-338d4a119792",
      "resource": {
        "resourceType": "Provenance",
        "id": "4eaf6b9c-3231-4c4b-8ff2-338d4a119792",
        "target": [
          {
            "reference": "Patient/2ff1139a-ca21-4bec-849c-e4f8746555be"
          },
          {
            "reference": "Bundle/938e73a9-3e2b-4e6b-b8cc-d880dd1dcfc1"
          },
          {
            "reference": "Composition/af3ec95b-cdc9-4294-922b-eb380b392b34"
          },
          {
            "reference": "PractitionerRole/08be4cfe-6582-42f1-8907-fe3b7d65196c"
          },
          {
            "reference": "Practitioner/1e5c5003-7471-4caf-84dd-e9fa969c6c62"
          },
          {
            "reference": "PractitionerRole/0af07335-f060-445b-91a9-3b27eb85e9c2"
          },
          {
            "reference": "Organization/f75e156e-f38e-439c-aaa7-d2f879fdf688"
          }
        ],
        "activity": {
          "text": "Synthetic Example Data Generation"
        },
        "policy": [
          "https://synderai.net/synderai-synthetic-data-policy"
        ],
        "agent": [
          {
            "type": {
              "text": "author"
            },
            "who": {
              "reference": "Device/95958d2a-a198-497f-85fe-8b933297fdd8"
            }
          }
        ],
        "reason": [
          {
            "text": "Interoperability Testing and Training (non-clinical use)"
          }
        ],
        "text": {
          "status": "generated",
          "div": "<div xmlns=\"http://www.w3.org/1999/xhtml\">Provenance for SYNDERAI Synthetic Example Data Resource</div>"
        },
        "recorded": "2017-06-29T16:42:11Z"
      }
    },
    {
      "fullUrl": "urn:uuid:08be4cfe-6582-42f1-8907-fe3b7d65196c",
      "resource": {
        "resourceType": "PractitionerRole",
        "id": "08be4cfe-6582-42f1-8907-fe3b7d65196c",
        "meta": {
          "profile": [
            "http://hl7.eu/fhir/base/StructureDefinition/practitionerRole-eu"
          ]
        },
        "text": {
          "status": "generated",
          "div": "<div xmlns=\"http://www.w3.org/1999/xhtml\">Laboratory Role Id: 08be4cfe-6582-42f1-8907-fe3b7d65196c</div>"
        },
        "practitioner": {
          "reference": "urn:uuid:1e5c5003-7471-4caf-84dd-e9fa969c6c62"
        }
      }
    },
    {
      "fullUrl": "urn:uuid:1e5c5003-7471-4caf-84dd-e9fa969c6c62",
      "resource": {
        "resourceType": "Practitioner",
        "id": "1e5c5003-7471-4caf-84dd-e9fa969c6c62",
        "meta": {
          "profile": [
            "http://hl7.eu/fhir/base/StructureDefinition/practitioner-eu"
          ]
        },
        "identifier": [
          {
            "assigner": {
              "display": "HL7 Europe"
            },
            "system": "urn:oid:2.16.840.1.113883.2.51.999",
            "value": "d7c02a89-da90-4efb-b510-3cfe1e4a8e5f"
          }
        ],
        "name": [
          {
            "prefix": [
              "dr"
            ],
            "given": [
              "Ex"
            ],
            "family": "Ample"
          }
        ],
        "address": [
          {
            "line": [
              "Laboratoire Central Européenne",
              "Boulevard du Jardin Botanique 32"
            ],
            "postalCode": "1000",
            "city": "Brussels",
            "country": "Belgium"
          }
        ],
        "text": {
          "status": "generated",
          "div": "<div xmlns=\"http://www.w3.org/1999/xhtml\">Laboratory: Laboratoire Central Européenne, 1000 Brussels, Belgium</div>"
        }
      }
    }
  ],
  "type": "document",
  "timestamp": "2017-06-29T16:42:11Z"
}
