{
  "resourceType": "Bundle",
  "id": "98783af0-2f92-43c8-b74c-25bcdca89e7c",
  "meta": {
    "profile": [
      "http://hl7.eu/fhir/laboratory/StructureDefinition/Bundle-eu-lab"
    ]
  },
  "identifier": {
    "assigner": {
      "display": "HL7 Europe"
    },
    "system": "urn:oid:2.16.840.1.113883.2.51.999",
    "value": "73d8458e-0f76-4a3f-83af-ba6573dadce3"
  },
  "entry": [
    {
      "fullUrl": "urn:uuid:127d58cc-83e7-4f77-8fe1-286a0826e470",
      "resource": {
        "resourceType": "Composition",
        "id": "127d58cc-83e7-4f77-8fe1-286a0826e470",
        "meta": {
          "profile": [
            "http://hl7.eu/fhir/laboratory/StructureDefinition/Composition-eu-lab"
          ]
        },
        "identifier": {
          "assigner": {
            "display": "HL7 Europe"
          },
          "system": "urn:oid:2.16.840.1.113883.2.51.999",
          "value": "05481dae-32b9-44bd-b2f7-b704d1d0c52e"
        },
        "author": [
          {
            "reference": "urn:uuid:e9ca9593-d3fb-42be-ba6c-54cb34ee9462"
          }
        ],
        "category": [
          {
            "coding": [
              {
                "code": "26436-6",
                "system": "http://loinc.org",
                "display": "Laboratory studies (set)"
              }
            ]
          }
        ],
        "type": {
          "coding": [
            {
              "code": "11502-2",
              "system": "http://loinc.org",
              "display": "Laboratory report"
            }
          ],
          "text": "Laboratory Report"
        },
        "section": [
          {
            "code": {
              "coding": [
                {
                  "code": "26436-6",
                  "system": "http://loinc.org",
                  "display": "Laboratory studies (set)"
                }
              ],
              "text": "Laboratory studies"
            },
            "section": [
              {
                "code": {
                  "coding": [
                    {
                      "code": "$18719-5",
                      "system": "http://loinc.org",
                      "display": "Chemistry studies (set)"
                    }
                  ],
                  "text": "Chemistry"
                },
                "entry": [
                  {
                    "reference": "urn:uuid:21f1275a-0501-43bb-96a5-5066d5c65124"
                  },
                  {
                    "reference": "urn:uuid:25b69056-5530-47c4-b129-f4a206a76e93"
                  },
                  {
                    "reference": "urn:uuid:51a1eeab-68c5-4eb5-92f3-7e56f6b9f79d"
                  },
                  {
                    "reference": "urn:uuid:d6fff331-040c-4b84-8485-d7bd32248d01"
                  },
                  {
                    "reference": "urn:uuid:e7866267-b469-4266-a59c-b679d2c0b652"
                  },
                  {
                    "reference": "urn:uuid:5d9e8681-09c4-4618-9e12-79775f362fec"
                  },
                  {
                    "reference": "urn:uuid:cfe9b3cf-bcaf-4d1e-aaca-3f4d1cd8254b"
                  },
                  {
                    "reference": "urn:uuid:bc78381a-d214-499a-bc91-39f21662b66d"
                  },
                  {
                    "reference": "urn:uuid:b6b5a225-2609-4502-b4b1-045c2fa87607"
                  }
                ],
                "text": {
                  "status": "generated",
                  "div": "<div xmlns=\"http://www.w3.org/1999/xhtml\"><h3>Chemistry</h3><table class=\"hl7__eu__lab__report\"><thead><tr><th>Test</th><th>22-MAR-2020</th><th>Reference&#xA0;Range</th><th>Unit</th></tr></thead><tbody><tr><td>Hemoglobin A1c/Hemoglobin.total in Blood</td><td><strong>3.9 L</strong></td><td>4 - 6</td><td>%</td></tr><tr><td>Glucose [Mass/volume] in Blood</td><td>86.1</td><td>70 - 140</td><td>mg/dL</td></tr><tr><td>Urea nitrogen [Mass/volume] in Blood</td><td>7.6</td><td>7 - 20</td><td>mg/dL</td></tr><tr><td>Creatinine [Mass/volume] in Blood</td><td><strong>0.4 L</strong></td><td>0.5 - 1.3</td><td>mg/dL</td></tr><tr><td>Calcium [Mass/volume] in Blood</td><td>9.5</td><td>8.5 - 10.5</td><td>mg/dL</td></tr><tr><td>Sodium [Moles/volume] in Blood</td><td>142.4</td><td>135 - 145</td><td>mmol/L</td></tr><tr><td>Potassium [Moles/volume] in Blood</td><td>5.1</td><td>3.5 - 5.1</td><td>mmol/L</td></tr><tr><td>Chloride [Moles/volume] in Blood</td><td>107.2</td><td>98 - 108</td><td>mmol/L</td></tr><tr><td>Carbon dioxide, total [Moles/volume] in Blood</td><td><strong>21.7 L</strong></td><td>22 - 29</td><td>mmol/L</td></tr></tbody></table></div>"
                },
                "title": "Chemistry"
              }
            ],
            "title": "Laboratory Report"
          },
          {
            "text": {
              "status": "generated",
              "div": "<div xmlns=\"http://www.w3.org/1999/xhtml\"><h3>Annotation</h3><table class=\"hl7__eu__lab__report\"><tr><th>Conclusion and Recommendations based on this report and previous findings known to us</th></tr><tr><td>The patient shows mildly decreased HbA1c, creatinine, and total CO₂, with other parameters within normal limits. Low creatinine may reflect reduced muscle mass, common in elderly patients. Low HbA1c could indicate possible hypoglycemia or recent changes in glucose metabolism. Mildly low CO₂ may suggest a tendency toward metabolic acidosis. Clinical correlation is recommended.</td></tr></table></div>"
            },
            "code": {
              "coding": [
                {
                  "system": "http://loinc.org",
                  "code": "48767-8",
                  "display": "Annotation comment"
                }
              ]
            },
            "title": "Annotation comment"
          }
        ],
        "status": "final",
        "subject": {
          "reference": "urn:uuid:256c4759-c03e-4f06-a2d3-88fbed08bd76",
          "display": "Marlene Gerlach"
        },
        "date": "2020-03-22T20:24:33Z",
        "title": "Laboratory Report",
        "confidentiality": "N"
      }
    },
    {
      "fullUrl": "urn:uuid:d6e82b05-1081-4b7a-a756-39873133c35e",
      "resource": {
        "resourceType": "DiagnosticReport",
        "id": "d6e82b05-1081-4b7a-a756-39873133c35e",
        "meta": {
          "profile": [
            "http://hl7.eu/fhir/laboratory/StructureDefinition/DiagnosticReport-eu-lab"
          ]
        },
        "identifier": [
          {
            "assigner": {
              "display": "HL7 Europe"
            },
            "system": "urn:oid:2.16.840.1.113883.2.51.999",
            "value": "d6d4dd04-0e92-4b55-ad3f-da80071bee9a"
          }
        ],
        "extension": [
          {
            "url": "http://hl7.org/fhir/5.0/StructureDefinition/extension-DiagnosticReport.composition",
            "valueReference": {
              "reference": "urn:uuid:05481dae-32b9-44bd-b2f7-b704d1d0c52e"
            }
          }
        ],
        "category": [
          {
            "coding": [
              {
                "code": "26436-6",
                "system": "http://loinc.org",
                "display": "Laboratory studies (set)"
              }
            ]
          }
        ],
        "specimen": [
          {
            "reference": "urn:uuid:6cb397c2-135a-4aaa-a317-7e2f93c2b1ba"
          }
        ],
        "result": [
          {
            "reference": "urn:uuid:21f1275a-0501-43bb-96a5-5066d5c65124"
          },
          {
            "reference": "urn:uuid:25b69056-5530-47c4-b129-f4a206a76e93"
          },
          {
            "reference": "urn:uuid:51a1eeab-68c5-4eb5-92f3-7e56f6b9f79d"
          },
          {
            "reference": "urn:uuid:d6fff331-040c-4b84-8485-d7bd32248d01"
          },
          {
            "reference": "urn:uuid:e7866267-b469-4266-a59c-b679d2c0b652"
          },
          {
            "reference": "urn:uuid:5d9e8681-09c4-4618-9e12-79775f362fec"
          },
          {
            "reference": "urn:uuid:cfe9b3cf-bcaf-4d1e-aaca-3f4d1cd8254b"
          },
          {
            "reference": "urn:uuid:bc78381a-d214-499a-bc91-39f21662b66d"
          },
          {
            "reference": "urn:uuid:b6b5a225-2609-4502-b4b1-045c2fa87607"
          }
        ],
        "status": "registered",
        "code": {
          "coding": [
            {
              "code": "11502-2",
              "system": "http://loinc.org",
              "display": "Laboratory report"
            }
          ]
        },
        "subject": {
          "reference": "urn:uuid:256c4759-c03e-4f06-a2d3-88fbed08bd76",
          "display": "Marlene Gerlach"
        }
      }
    },
    {
      "fullUrl": "urn:uuid:256c4759-c03e-4f06-a2d3-88fbed08bd76",
      "resource": {
        "resourceType": "Patient",
        "id": "256c4759-c03e-4f06-a2d3-88fbed08bd76",
        "meta": {
          "security": [
            {
              "system": "http://terminology.hl7.org/CodeSystem/v3-ActReason",
              "code": "HTEST"
            },
            {
              "system": "http://terminology.hl7.org/CodeSystem/v3-ActReason",
              "code": "TRAIN"
            }
          ],
          "tag": [
            {
              "system": "https://synderai.net/fhir/CodeSystem/tags",
              "code": "synthetic",
              "display": "SYNDERAI Synthetic data"
            }
          ],
          "profile": [
            "http://hl7.eu/fhir/base/StructureDefinition/patient-eu-core"
          ]
        },
        "identifier": [
          {
            "type": {
              "coding": [
                {
                  "code": "PT",
                  "system": "http://terminology.hl7.org/CodeSystem/v2-0203"
                }
              ]
            },
            "system": "http://ec.europa.eu/identifier/eci",
            "value": "4536-398571-9"
          },
          {
            "type": {
              "coding": [
                {
                  "code": "MR",
                  "system": "http://terminology.hl7.org/CodeSystem/v2-0203"
                }
              ]
            },
            "system": "http://local.setting.eu/identifier",
            "value": "ff7a4ff6-4bac-f07f-03c9-b91b1e1cfb23"
          }
        ],
        "name": [
          {
            "family": "Gerlach"
          },
          {
            "given": [
              "Marlene"
            ]
          },
          {
            "text": "Marlene Gerlach"
          }
        ],
        "address": [
          {
            "line": [
              "Etzlerplatz 57-53"
            ],
            "use": "home",
            "type": "physical",
            "postalCode": "71522",
            "city": "Backnang",
            "country": "Germany"
          }
        ],
        "telecom": [
          {
            "system": "phone",
            "value": "+49(0)2700 61724"
          }
        ],
        "extension": [
          {
            "url": "http://hl7.org/fhir/StructureDefinition/patient-nationality",
            "valueCodeableConcept": {
              "coding": [
                {
                  "code": "DE",
                  "system": "http://hl7.org/fhir/ValueSet/country"
                }
              ]
            }
          }
        ],
        "text": {
          "status": "generated",
          "div": "<div xmlns=\"http://www.w3.org/1999/xhtml\"><table class=\"hl7__ips\"><tr><td>Marlene Gerlach</td><td>female</td><td>28-Aug-1939</td></tr></table></div>"
        },
        "gender": "female",
        "birthDate": "1939-08-28"
      }
    },
    {
      "fullUrl": "urn:uuid:ed6c8277-76d4-41d3-af22-899e271c4396",
      "resource": {
        "resourceType": "ServiceRequest",
        "id": "ed6c8277-76d4-41d3-af22-899e271c4396",
        "meta": {
          "profile": [
            "http://hl7.eu/fhir/laboratory/StructureDefinition/ServiceRequest-eu-lab"
          ]
        },
        "identifier": [
          {
            "system": "http://example.org",
            "value": "2087e6fb-6552-4e10-8080-d16079f71867"
          }
        ],
        "specimen": [
          {
            "reference": "urn:uuid:6cb397c2-135a-4aaa-a317-7e2f93c2b1ba"
          }
        ],
        "reasonCode": [
          {
            "coding": [
              {
                "code": "55822004",
                "system": "http://snomed.info/sct",
                "display": "Hyperlipidemia"
              }
            ]
          },
          {
            "coding": [
              {
                "code": "414545008",
                "system": "http://snomed.info/sct",
                "display": "Ischemic heart disease"
              }
            ]
          },
          {
            "coding": [
              {
                "code": "157141000119108",
                "system": "http://snomed.info/sct",
                "display": "Proteinuria due to type 2 diabetes mellitus"
              }
            ]
          },
          {
            "coding": [
              {
                "code": "90781000119102",
                "system": "http://snomed.info/sct",
                "display": "Microalbuminuria due to type 2 diabetes mellitus"
              }
            ]
          },
          {
            "coding": [
              {
                "code": "127013003",
                "system": "http://snomed.info/sct",
                "display": "Disorder of kidney due to diabetes mellitus"
              }
            ]
          },
          {
            "coding": [
              {
                "code": "271737000",
                "system": "http://snomed.info/sct",
                "display": "Anemia"
              }
            ]
          },
          {
            "coding": [
              {
                "code": "15777000",
                "system": "http://snomed.info/sct",
                "display": "Prediabetes"
              }
            ]
          },
          {
            "coding": [
              {
                "code": "59621000",
                "system": "http://snomed.info/sct",
                "display": "Essential hypertension"
              }
            ]
          }
        ],
        "status": "active",
        "intent": "order",
        "code": {
          "coding": [
            {
              "code": "108252007",
              "system": "http://snomed.info/sct",
              "display": "Laboratory procedure"
            }
          ]
        },
        "subject": {
          "reference": "urn:uuid:256c4759-c03e-4f06-a2d3-88fbed08bd76",
          "display": "Marlene Gerlach"
        },
        "requester": {
          "reference": "urn:uuid:db3fc13a-4166-4ed8-9000-29a47ddd535c"
        }
      }
    },
    {
      "fullUrl": "urn:uuid:db3fc13a-4166-4ed8-9000-29a47ddd535c",
      "resource": {
        "resourceType": "PractitionerRole",
        "id": "db3fc13a-4166-4ed8-9000-29a47ddd535c",
        "meta": {
          "profile": [
            "http://hl7.eu/fhir/base/StructureDefinition/practitionerRole-eu"
          ]
        },
        "text": {
          "status": "generated",
          "div": "<div xmlns=\"http://www.w3.org/1999/xhtml\">Provider Role Id: db3fc13a-4166-4ed8-9000-29a47ddd535c</div>"
        },
        "organization": {
          "reference": "urn:uuid:eb37a2cb-4ac6-44ae-b6e7-fc1012063c47"
        }
      }
    },
    {
      "fullUrl": "urn:uuid:eb37a2cb-4ac6-44ae-b6e7-fc1012063c47",
      "resource": {
        "resourceType": "Organization",
        "id": "eb37a2cb-4ac6-44ae-b6e7-fc1012063c47",
        "meta": {
          "profile": [
            "http://hl7.eu/fhir/base/StructureDefinition/organization-eu"
          ]
        },
        "identifier": [
          {
            "assigner": {
              "display": "HL7 Europe"
            },
            "system": "urn:oid:2.16.840.1.113883.2.51.999",
            "value": "af0707e3-a101-433b-bb22-f673fdf1099a"
          }
        ],
        "address": [
          {
            "line": [
              "Karl-Krische-Straße 4"
            ],
            "city": "Backnang",
            "postalCode": "71522",
            "country": "Germany"
          }
        ],
        "text": {
          "status": "generated",
          "div": "<div xmlns=\"http://www.w3.org/1999/xhtml\">Provider Organization: Gesundheitszentrum</div>"
        },
        "name": "Gesundheitszentrum"
      }
    },
    {
      "fullUrl": "urn:uuid:6cb397c2-135a-4aaa-a317-7e2f93c2b1ba",
      "resource": {
        "resourceType": "Specimen",
        "id": "6cb397c2-135a-4aaa-a317-7e2f93c2b1ba",
        "meta": {
          "profile": [
            "http://hl7.eu/fhir/laboratory/StructureDefinition/Specimen-eu-lab"
          ]
        },
        "collection": {
          "collectedDateTime": "2020-03-22"
        },
        "text": {
          "status": "generated",
          "div": "<div xmlns=\"http://www.w3.org/1999/xhtml\"><table class=\"hl7__eu__lab__report\"><tr><th>Specimen</th><th>Collection Date</th></tr><tr><td>Whole blood specimen (specimen)</td><td><span class=\"nb\">22-Mar-2020</span></td></tr></table></div>"
        },
        "type": {
          "coding": [
            {
              "code": "258580003",
              "system": "http://snomed.info/sct",
              "display": "Whole blood specimen (specimen)"
            }
          ]
        }
      }
    },
    {
      "fullUrl": "urn:uuid:21f1275a-0501-43bb-96a5-5066d5c65124",
      "resource": {
        "resourceType": "Observation",
        "id": "21f1275a-0501-43bb-96a5-5066d5c65124",
        "meta": {
          "profile": [
            "http://hl7.eu/fhir/laboratory/StructureDefinition/Observation-resultslab-eu-lab"
          ]
        },
        "performer": [
          {
            "display": "The Central European Lab"
          }
        ],
        "category": [
          {
            "coding": [
              {
                "system": "http://terminology.hl7.org/CodeSystem/observation-category",
                "code": "laboratory"
              }
            ]
          }
        ],
        "code": {
          "coding": [
            {
              "code": "4548-4",
              "system": "http://loinc.org",
              "display": "Hemoglobin A1c/Hemoglobin.total in Blood"
            }
          ],
          "text": "Hemoglobin A1c/Hemoglobin.total in Blood"
        },
        "valueQuantity": {
          "system": "http://unitsofmeasure.org",
          "value": 3.9,
          "unit": "%",
          "code": "%"
        },
        "referenceRange": [
          {
            "low": {
              "value": 4,
              "code": "%",
              "system": "http://unitsofmeasure.org"
            }
          },
          {
            "high": {
              "value": 6,
              "code": "%",
              "system": "http://unitsofmeasure.org"
            }
          }
        ],
        "interpretation": [
          {
            "coding": [
              {
                "code": "L",
                "system": "http://terminology.hl7.org/CodeSystem/v3-ObservationInterpretation",
                "display": "Low"
              }
            ]
          }
        ],
        "text": {
          "status": "generated",
          "div": "<div xmlns=\"http://www.w3.org/1999/xhtml\"><table class=\"hl7__eu__lab__report\"><tr><th>Test</th><th>22-Mar-2020</th><th>Reference&#xA0;Range</th><th>Unit</th></tr><tr><td>Hemoglobin A1c/Hemoglobin.total in Blood</td><td>3.9</td><td>4 - 6</td><td>L</td><td>%</td></tr></table></div>"
        },
        "status": "final",
        "subject": {
          "reference": "urn:uuid:256c4759-c03e-4f06-a2d3-88fbed08bd76",
          "display": "Marlene Gerlach"
        },
        "effectiveDateTime": "2020-03-22T19:24:33Z",
        "specimen": {
          "reference": "urn:uuid:6cb397c2-135a-4aaa-a317-7e2f93c2b1ba"
        }
      }
    },
    {
      "fullUrl": "urn:uuid:25b69056-5530-47c4-b129-f4a206a76e93",
      "resource": {
        "resourceType": "Observation",
        "id": "25b69056-5530-47c4-b129-f4a206a76e93",
        "meta": {
          "profile": [
            "http://hl7.eu/fhir/laboratory/StructureDefinition/Observation-resultslab-eu-lab"
          ]
        },
        "performer": [
          {
            "display": "The Central European Lab"
          }
        ],
        "category": [
          {
            "coding": [
              {
                "system": "http://terminology.hl7.org/CodeSystem/observation-category",
                "code": "laboratory"
              }
            ]
          }
        ],
        "code": {
          "coding": [
            {
              "code": "2339-0",
              "system": "http://loinc.org",
              "display": "Glucose [Mass/volume] in Blood"
            }
          ],
          "text": "Glucose [Mass/volume] in Blood"
        },
        "valueQuantity": {
          "system": "http://unitsofmeasure.org",
          "value": 86.1,
          "unit": "mg/dL",
          "code": "mg/dL"
        },
        "referenceRange": [
          {
            "low": {
              "value": 70,
              "code": "mg/dL",
              "system": "http://unitsofmeasure.org"
            }
          },
          {
            "high": {
              "value": 140,
              "code": "mg/dL",
              "system": "http://unitsofmeasure.org"
            }
          }
        ],
        "text": {
          "status": "generated",
          "div": "<div xmlns=\"http://www.w3.org/1999/xhtml\"><table class=\"hl7__eu__lab__report\"><tr><th>Test</th><th>22-Mar-2020</th><th>Reference&#xA0;Range</th><th>Unit</th></tr><tr><td>Glucose [Mass/volume] in Blood</td><td>86.1</td><td>70 - 140</td><td></td><td>mg/dL</td></tr></table></div>"
        },
        "status": "final",
        "subject": {
          "reference": "urn:uuid:256c4759-c03e-4f06-a2d3-88fbed08bd76",
          "display": "Marlene Gerlach"
        },
        "effectiveDateTime": "2020-03-22T19:24:33Z",
        "specimen": {
          "reference": "urn:uuid:6cb397c2-135a-4aaa-a317-7e2f93c2b1ba"
        }
      }
    },
    {
      "fullUrl": "urn:uuid:51a1eeab-68c5-4eb5-92f3-7e56f6b9f79d",
      "resource": {
        "resourceType": "Observation",
        "id": "51a1eeab-68c5-4eb5-92f3-7e56f6b9f79d",
        "meta": {
          "profile": [
            "http://hl7.eu/fhir/laboratory/StructureDefinition/Observation-resultslab-eu-lab"
          ]
        },
        "performer": [
          {
            "display": "The Central European Lab"
          }
        ],
        "category": [
          {
            "coding": [
              {
                "system": "http://terminology.hl7.org/CodeSystem/observation-category",
                "code": "laboratory"
              }
            ]
          }
        ],
        "code": {
          "coding": [
            {
              "code": "6299-2",
              "system": "http://loinc.org",
              "display": "Urea nitrogen [Mass/volume] in Blood"
            }
          ],
          "text": "Urea nitrogen [Mass/volume] in Blood"
        },
        "valueQuantity": {
          "system": "http://unitsofmeasure.org",
          "value": 7.6,
          "unit": "mg/dL",
          "code": "mg/dL"
        },
        "referenceRange": [
          {
            "low": {
              "value": 7,
              "code": "mg/dL",
              "system": "http://unitsofmeasure.org"
            }
          },
          {
            "high": {
              "value": 20,
              "code": "mg/dL",
              "system": "http://unitsofmeasure.org"
            }
          }
        ],
        "text": {
          "status": "generated",
          "div": "<div xmlns=\"http://www.w3.org/1999/xhtml\"><table class=\"hl7__eu__lab__report\"><tr><th>Test</th><th>22-Mar-2020</th><th>Reference&#xA0;Range</th><th>Unit</th></tr><tr><td>Urea nitrogen [Mass/volume] in Blood</td><td>7.6</td><td>7 - 20</td><td></td><td>mg/dL</td></tr></table></div>"
        },
        "status": "final",
        "subject": {
          "reference": "urn:uuid:256c4759-c03e-4f06-a2d3-88fbed08bd76",
          "display": "Marlene Gerlach"
        },
        "effectiveDateTime": "2020-03-22T19:24:33Z",
        "specimen": {
          "reference": "urn:uuid:6cb397c2-135a-4aaa-a317-7e2f93c2b1ba"
        }
      }
    },
    {
      "fullUrl": "urn:uuid:d6fff331-040c-4b84-8485-d7bd32248d01",
      "resource": {
        "resourceType": "Observation",
        "id": "d6fff331-040c-4b84-8485-d7bd32248d01",
        "meta": {
          "profile": [
            "http://hl7.eu/fhir/laboratory/StructureDefinition/Observation-resultslab-eu-lab"
          ]
        },
        "performer": [
          {
            "display": "The Central European Lab"
          }
        ],
        "category": [
          {
            "coding": [
              {
                "system": "http://terminology.hl7.org/CodeSystem/observation-category",
                "code": "laboratory"
              }
            ]
          }
        ],
        "code": {
          "coding": [
            {
              "code": "38483-4",
              "system": "http://loinc.org",
              "display": "Creatinine [Mass/volume] in Blood"
            }
          ],
          "text": "Creatinine [Mass/volume] in Blood"
        },
        "valueQuantity": {
          "system": "http://unitsofmeasure.org",
          "value": 0.4,
          "unit": "mg/dL",
          "code": "mg/dL"
        },
        "referenceRange": [
          {
            "low": {
              "value": 0.5,
              "code": "mg/dL",
              "system": "http://unitsofmeasure.org"
            }
          },
          {
            "high": {
              "value": 1.3,
              "code": "mg/dL",
              "system": "http://unitsofmeasure.org"
            }
          }
        ],
        "interpretation": [
          {
            "coding": [
              {
                "code": "L",
                "system": "http://terminology.hl7.org/CodeSystem/v3-ObservationInterpretation",
                "display": "Low"
              }
            ]
          }
        ],
        "text": {
          "status": "generated",
          "div": "<div xmlns=\"http://www.w3.org/1999/xhtml\"><table class=\"hl7__eu__lab__report\"><tr><th>Test</th><th>22-Mar-2020</th><th>Reference&#xA0;Range</th><th>Unit</th></tr><tr><td>Creatinine [Mass/volume] in Blood</td><td>0.4</td><td>0.5 - 1.3</td><td>L</td><td>mg/dL</td></tr></table></div>"
        },
        "status": "final",
        "subject": {
          "reference": "urn:uuid:256c4759-c03e-4f06-a2d3-88fbed08bd76",
          "display": "Marlene Gerlach"
        },
        "effectiveDateTime": "2020-03-22T19:24:33Z",
        "specimen": {
          "reference": "urn:uuid:6cb397c2-135a-4aaa-a317-7e2f93c2b1ba"
        }
      }
    },
    {
      "fullUrl": "urn:uuid:e7866267-b469-4266-a59c-b679d2c0b652",
      "resource": {
        "resourceType": "Observation",
        "id": "e7866267-b469-4266-a59c-b679d2c0b652",
        "meta": {
          "profile": [
            "http://hl7.eu/fhir/laboratory/StructureDefinition/Observation-resultslab-eu-lab"
          ]
        },
        "performer": [
          {
            "display": "The Central European Lab"
          }
        ],
        "category": [
          {
            "coding": [
              {
                "system": "http://terminology.hl7.org/CodeSystem/observation-category",
                "code": "laboratory"
              }
            ]
          }
        ],
        "code": {
          "coding": [
            {
              "code": "49765-1",
              "system": "http://loinc.org",
              "display": "Calcium [Mass/volume] in Blood"
            }
          ],
          "text": "Calcium [Mass/volume] in Blood"
        },
        "valueQuantity": {
          "system": "http://unitsofmeasure.org",
          "value": 9.5,
          "unit": "mg/dL",
          "code": "mg/dL"
        },
        "referenceRange": [
          {
            "low": {
              "value": 8.5,
              "code": "mg/dL",
              "system": "http://unitsofmeasure.org"
            }
          },
          {
            "high": {
              "value": 10.5,
              "code": "mg/dL",
              "system": "http://unitsofmeasure.org"
            }
          }
        ],
        "text": {
          "status": "generated",
          "div": "<div xmlns=\"http://www.w3.org/1999/xhtml\"><table class=\"hl7__eu__lab__report\"><tr><th>Test</th><th>22-Mar-2020</th><th>Reference&#xA0;Range</th><th>Unit</th></tr><tr><td>Calcium [Mass/volume] in Blood</td><td>9.5</td><td>8.5 - 10.5</td><td></td><td>mg/dL</td></tr></table></div>"
        },
        "status": "final",
        "subject": {
          "reference": "urn:uuid:256c4759-c03e-4f06-a2d3-88fbed08bd76",
          "display": "Marlene Gerlach"
        },
        "effectiveDateTime": "2020-03-22T19:24:33Z",
        "specimen": {
          "reference": "urn:uuid:6cb397c2-135a-4aaa-a317-7e2f93c2b1ba"
        }
      }
    },
    {
      "fullUrl": "urn:uuid:5d9e8681-09c4-4618-9e12-79775f362fec",
      "resource": {
        "resourceType": "Observation",
        "id": "5d9e8681-09c4-4618-9e12-79775f362fec",
        "meta": {
          "profile": [
            "http://hl7.eu/fhir/laboratory/StructureDefinition/Observation-resultslab-eu-lab"
          ]
        },
        "performer": [
          {
            "display": "The Central European Lab"
          }
        ],
        "category": [
          {
            "coding": [
              {
                "system": "http://terminology.hl7.org/CodeSystem/observation-category",
                "code": "laboratory"
              }
            ]
          }
        ],
        "code": {
          "coding": [
            {
              "code": "2947-0",
              "system": "http://loinc.org",
              "display": "Sodium [Moles/volume] in Blood"
            }
          ],
          "text": "Sodium [Moles/volume] in Blood"
        },
        "valueQuantity": {
          "system": "http://unitsofmeasure.org",
          "value": 142.4,
          "unit": "mmol/L",
          "code": "mmol/L"
        },
        "referenceRange": [
          {
            "low": {
              "value": 135,
              "code": "mmol/L",
              "system": "http://unitsofmeasure.org"
            }
          },
          {
            "high": {
              "value": 145,
              "code": "mmol/L",
              "system": "http://unitsofmeasure.org"
            }
          }
        ],
        "text": {
          "status": "generated",
          "div": "<div xmlns=\"http://www.w3.org/1999/xhtml\"><table class=\"hl7__eu__lab__report\"><tr><th>Test</th><th>22-Mar-2020</th><th>Reference&#xA0;Range</th><th>Unit</th></tr><tr><td>Sodium [Moles/volume] in Blood</td><td>142.4</td><td>135 - 145</td><td></td><td>mmol/L</td></tr></table></div>"
        },
        "status": "final",
        "subject": {
          "reference": "urn:uuid:256c4759-c03e-4f06-a2d3-88fbed08bd76",
          "display": "Marlene Gerlach"
        },
        "effectiveDateTime": "2020-03-22T19:24:33Z",
        "specimen": {
          "reference": "urn:uuid:6cb397c2-135a-4aaa-a317-7e2f93c2b1ba"
        }
      }
    },
    {
      "fullUrl": "urn:uuid:cfe9b3cf-bcaf-4d1e-aaca-3f4d1cd8254b",
      "resource": {
        "resourceType": "Observation",
        "id": "cfe9b3cf-bcaf-4d1e-aaca-3f4d1cd8254b",
        "meta": {
          "profile": [
            "http://hl7.eu/fhir/laboratory/StructureDefinition/Observation-resultslab-eu-lab"
          ]
        },
        "performer": [
          {
            "display": "The Central European Lab"
          }
        ],
        "category": [
          {
            "coding": [
              {
                "system": "http://terminology.hl7.org/CodeSystem/observation-category",
                "code": "laboratory"
              }
            ]
          }
        ],
        "code": {
          "coding": [
            {
              "code": "6298-4",
              "system": "http://loinc.org",
              "display": "Potassium [Moles/volume] in Blood"
            }
          ],
          "text": "Potassium [Moles/volume] in Blood"
        },
        "valueQuantity": {
          "system": "http://unitsofmeasure.org",
          "value": 5.1,
          "unit": "mmol/L",
          "code": "mmol/L"
        },
        "referenceRange": [
          {
            "low": {
              "value": 3.5,
              "code": "mmol/L",
              "system": "http://unitsofmeasure.org"
            }
          },
          {
            "high": {
              "value": 5.1,
              "code": "mmol/L",
              "system": "http://unitsofmeasure.org"
            }
          }
        ],
        "text": {
          "status": "generated",
          "div": "<div xmlns=\"http://www.w3.org/1999/xhtml\"><table class=\"hl7__eu__lab__report\"><tr><th>Test</th><th>22-Mar-2020</th><th>Reference&#xA0;Range</th><th>Unit</th></tr><tr><td>Potassium [Moles/volume] in Blood</td><td>5.1</td><td>3.5 - 5.1</td><td></td><td>mmol/L</td></tr></table></div>"
        },
        "status": "final",
        "subject": {
          "reference": "urn:uuid:256c4759-c03e-4f06-a2d3-88fbed08bd76",
          "display": "Marlene Gerlach"
        },
        "effectiveDateTime": "2020-03-22T19:24:33Z",
        "specimen": {
          "reference": "urn:uuid:6cb397c2-135a-4aaa-a317-7e2f93c2b1ba"
        }
      }
    },
    {
      "fullUrl": "urn:uuid:bc78381a-d214-499a-bc91-39f21662b66d",
      "resource": {
        "resourceType": "Observation",
        "id": "bc78381a-d214-499a-bc91-39f21662b66d",
        "meta": {
          "profile": [
            "http://hl7.eu/fhir/laboratory/StructureDefinition/Observation-resultslab-eu-lab"
          ]
        },
        "performer": [
          {
            "display": "The Central European Lab"
          }
        ],
        "category": [
          {
            "coding": [
              {
                "system": "http://terminology.hl7.org/CodeSystem/observation-category",
                "code": "laboratory"
              }
            ]
          }
        ],
        "code": {
          "coding": [
            {
              "code": "2069-3",
              "system": "http://loinc.org",
              "display": "Chloride [Moles/volume] in Blood"
            }
          ],
          "text": "Chloride [Moles/volume] in Blood"
        },
        "valueQuantity": {
          "system": "http://unitsofmeasure.org",
          "value": 107.2,
          "unit": "mmol/L",
          "code": "mmol/L"
        },
        "referenceRange": [
          {
            "low": {
              "value": 98,
              "code": "mmol/L",
              "system": "http://unitsofmeasure.org"
            }
          },
          {
            "high": {
              "value": 108,
              "code": "mmol/L",
              "system": "http://unitsofmeasure.org"
            }
          }
        ],
        "text": {
          "status": "generated",
          "div": "<div xmlns=\"http://www.w3.org/1999/xhtml\"><table class=\"hl7__eu__lab__report\"><tr><th>Test</th><th>22-Mar-2020</th><th>Reference&#xA0;Range</th><th>Unit</th></tr><tr><td>Chloride [Moles/volume] in Blood</td><td>107.2</td><td>98 - 108</td><td></td><td>mmol/L</td></tr></table></div>"
        },
        "status": "final",
        "subject": {
          "reference": "urn:uuid:256c4759-c03e-4f06-a2d3-88fbed08bd76",
          "display": "Marlene Gerlach"
        },
        "effectiveDateTime": "2020-03-22T19:24:33Z",
        "specimen": {
          "reference": "urn:uuid:6cb397c2-135a-4aaa-a317-7e2f93c2b1ba"
        }
      }
    },
    {
      "fullUrl": "urn:uuid:b6b5a225-2609-4502-b4b1-045c2fa87607",
      "resource": {
        "resourceType": "Observation",
        "id": "b6b5a225-2609-4502-b4b1-045c2fa87607",
        "meta": {
          "profile": [
            "http://hl7.eu/fhir/laboratory/StructureDefinition/Observation-resultslab-eu-lab"
          ]
        },
        "performer": [
          {
            "display": "The Central European Lab"
          }
        ],
        "category": [
          {
            "coding": [
              {
                "system": "http://terminology.hl7.org/CodeSystem/observation-category",
                "code": "laboratory"
              }
            ]
          }
        ],
        "code": {
          "coding": [
            {
              "code": "20565-8",
              "system": "http://loinc.org",
              "display": "Carbon dioxide, total [Moles/volume] in Blood"
            }
          ],
          "text": "Carbon dioxide, total [Moles/volume] in Blood"
        },
        "valueQuantity": {
          "system": "http://unitsofmeasure.org",
          "value": 21.7,
          "unit": "mmol/L",
          "code": "mmol/L"
        },
        "referenceRange": [
          {
            "low": {
              "value": 22,
              "code": "mmol/L",
              "system": "http://unitsofmeasure.org"
            }
          },
          {
            "high": {
              "value": 29,
              "code": "mmol/L",
              "system": "http://unitsofmeasure.org"
            }
          }
        ],
        "interpretation": [
          {
            "coding": [
              {
                "code": "L",
                "system": "http://terminology.hl7.org/CodeSystem/v3-ObservationInterpretation",
                "display": "Low"
              }
            ]
          }
        ],
        "text": {
          "status": "generated",
          "div": "<div xmlns=\"http://www.w3.org/1999/xhtml\"><table class=\"hl7__eu__lab__report\"><tr><th>Test</th><th>22-Mar-2020</th><th>Reference&#xA0;Range</th><th>Unit</th></tr><tr><td>Carbon dioxide, total [Moles/volume] in Blood</td><td>21.7</td><td>22 - 29</td><td>L</td><td>mmol/L</td></tr></table></div>"
        },
        "status": "final",
        "subject": {
          "reference": "urn:uuid:256c4759-c03e-4f06-a2d3-88fbed08bd76",
          "display": "Marlene Gerlach"
        },
        "effectiveDateTime": "2020-03-22T19:24:33Z",
        "specimen": {
          "reference": "urn:uuid:6cb397c2-135a-4aaa-a317-7e2f93c2b1ba"
        }
      }
    },
    {
      "fullUrl": "urn:uuid:b767cbdf-97e1-45c2-8c2b-188508ce7e13",
      "resource": {
        "resourceType": "Device",
        "id": "b767cbdf-97e1-45c2-8c2b-188508ce7e13",
        "deviceName": [
          {
            "name": "SYNDERAI Synthetic Generator",
            "type": "manufacturer-name"
          }
        ],
        "version": [
          {
            "value": "5.0"
          }
        ],
        "text": {
          "status": "generated",
          "div": "<div xmlns=\"http://www.w3.org/1999/xhtml\">SYNDERAI Synthetic Generator v5.0</div>"
        },
        "status": "active\"",
        "distinctIdentifier": "synderai-generator-50",
        "manufacturer": "SYNDERAI Project"
      }
    },
    {
      "fullUrl": "urn:uuid:42a6dabb-b758-4199-a0d5-3e0e71a35613",
      "resource": {
        "resourceType": "Provenance",
        "id": "42a6dabb-b758-4199-a0d5-3e0e71a35613",
        "target": [
          {
            "reference": "Patient/256c4759-c03e-4f06-a2d3-88fbed08bd76"
          },
          {
            "reference": "Bundle/98783af0-2f92-43c8-b74c-25bcdca89e7c"
          },
          {
            "reference": "Composition/127d58cc-83e7-4f77-8fe1-286a0826e470"
          },
          {
            "reference": "PractitionerRole/e9ca9593-d3fb-42be-ba6c-54cb34ee9462"
          },
          {
            "reference": "Practitioner/8c4bb3b9-62ef-4503-85f5-2d2f40e35220"
          },
          {
            "reference": "PractitionerRole/db3fc13a-4166-4ed8-9000-29a47ddd535c"
          },
          {
            "reference": "Organization/eb37a2cb-4ac6-44ae-b6e7-fc1012063c47"
          }
        ],
        "activity": {
          "text": "Synthetic Example Data Generation"
        },
        "policy": [
          "https://synderai.net/synderai-synthetic-data-policy"
        ],
        "agent": [
          {
            "type": {
              "text": "author"
            },
            "who": {
              "reference": "Device/b767cbdf-97e1-45c2-8c2b-188508ce7e13"
            }
          }
        ],
        "reason": [
          {
            "text": "Interoperability Testing and Training (non-clinical use)"
          }
        ],
        "text": {
          "status": "generated",
          "div": "<div xmlns=\"http://www.w3.org/1999/xhtml\">Provenance for SYNDERAI Synthetic Example Data Resource</div>"
        },
        "recorded": "2020-03-22T20:24:33Z"
      }
    },
    {
      "fullUrl": "urn:uuid:e9ca9593-d3fb-42be-ba6c-54cb34ee9462",
      "resource": {
        "resourceType": "PractitionerRole",
        "id": "e9ca9593-d3fb-42be-ba6c-54cb34ee9462",
        "meta": {
          "profile": [
            "http://hl7.eu/fhir/base/StructureDefinition/practitionerRole-eu"
          ]
        },
        "text": {
          "status": "generated",
          "div": "<div xmlns=\"http://www.w3.org/1999/xhtml\">Laboratory Role Id: e9ca9593-d3fb-42be-ba6c-54cb34ee9462</div>"
        },
        "practitioner": {
          "reference": "urn:uuid:8c4bb3b9-62ef-4503-85f5-2d2f40e35220"
        }
      }
    },
    {
      "fullUrl": "urn:uuid:8c4bb3b9-62ef-4503-85f5-2d2f40e35220",
      "resource": {
        "resourceType": "Practitioner",
        "id": "8c4bb3b9-62ef-4503-85f5-2d2f40e35220",
        "meta": {
          "profile": [
            "http://hl7.eu/fhir/base/StructureDefinition/practitioner-eu"
          ]
        },
        "identifier": [
          {
            "assigner": {
              "display": "HL7 Europe"
            },
            "system": "urn:oid:2.16.840.1.113883.2.51.999",
            "value": "65d19aca-ac29-4b7d-9fb4-37bd3f0096bb"
          }
        ],
        "name": [
          {
            "prefix": [
              "dr"
            ],
            "given": [
              "Ex"
            ],
            "family": "Ample"
          }
        ],
        "address": [
          {
            "line": [
              "Laboratoire Central Européenne",
              "Boulevard du Jardin Botanique 32"
            ],
            "postalCode": "1000",
            "city": "Brussels",
            "country": "Belgium"
          }
        ],
        "text": {
          "status": "generated",
          "div": "<div xmlns=\"http://www.w3.org/1999/xhtml\">Laboratory: Laboratoire Central Européenne, 1000 Brussels, Belgium</div>"
        }
      }
    }
  ],
  "type": "document",
  "timestamp": "2020-03-22T20:24:33Z"
}
