{
  "resourceType": "Bundle",
  "id": "2c75bb5a-8047-4023-931e-77cdd5ef4a47",
  "meta": {
    "profile": [
      "http://hl7.eu/fhir/laboratory/StructureDefinition/Bundle-eu-lab"
    ]
  },
  "identifier": {
    "assigner": {
      "display": "HL7 Europe"
    },
    "system": "urn:oid:2.16.840.1.113883.2.51.999",
    "value": "982f3bc2-7529-493a-8c33-9ccdf3e7df82"
  },
  "entry": [
    {
      "fullUrl": "urn:uuid:734917ef-656e-40a7-8c14-11dce8b9fcc7",
      "resource": {
        "resourceType": "Composition",
        "id": "734917ef-656e-40a7-8c14-11dce8b9fcc7",
        "meta": {
          "profile": [
            "http://hl7.eu/fhir/laboratory/StructureDefinition/Composition-eu-lab"
          ]
        },
        "identifier": {
          "assigner": {
            "display": "HL7 Europe"
          },
          "system": "urn:oid:2.16.840.1.113883.2.51.999",
          "value": "2f278d5f-63d2-4c21-a7ee-b718d78409fd"
        },
        "author": [
          {
            "reference": "urn:uuid:1b15ec1f-2db3-4130-be10-e56031549110"
          }
        ],
        "category": [
          {
            "coding": [
              {
                "code": "26436-6",
                "system": "http://loinc.org",
                "display": "Laboratory studies (set)"
              }
            ]
          }
        ],
        "type": {
          "coding": [
            {
              "code": "11502-2",
              "system": "http://loinc.org",
              "display": "Laboratory report"
            }
          ],
          "text": "Laboratory Report"
        },
        "section": [
          {
            "code": {
              "coding": [
                {
                  "code": "26436-6",
                  "system": "http://loinc.org",
                  "display": "Laboratory studies (set)"
                }
              ],
              "text": "Laboratory studies"
            },
            "section": [
              {
                "code": {
                  "coding": [
                    {
                      "code": "$18719-5",
                      "system": "http://loinc.org",
                      "display": "Chemistry studies (set)"
                    }
                  ],
                  "text": "Chemistry"
                },
                "entry": [
                  {
                    "reference": "urn:uuid:ca0b7320-8f4f-4ec3-a6fc-3d059ae3fa1f"
                  },
                  {
                    "reference": "urn:uuid:e984329b-2f4d-4f57-9828-242b25d2433d"
                  },
                  {
                    "reference": "urn:uuid:2cf50811-0d93-4197-a13a-53d7d37cd308"
                  },
                  {
                    "reference": "urn:uuid:3f58aa49-f98b-465c-9ea6-c93e79788a53"
                  },
                  {
                    "reference": "urn:uuid:ddf2cd63-bfc8-4fb0-9898-a9d4944b7b91"
                  },
                  {
                    "reference": "urn:uuid:aad5e108-d93e-49b7-81a3-aded6d9c6b6b"
                  },
                  {
                    "reference": "urn:uuid:97142492-6153-4e60-81c0-369ecad88333"
                  },
                  {
                    "reference": "urn:uuid:1a012fcc-553e-4923-911e-54eaf84966bd"
                  },
                  {
                    "reference": "urn:uuid:e21c0186-0268-451a-9d41-5315ca1e1ebd"
                  },
                  {
                    "reference": "urn:uuid:64ea5086-ee7c-407d-ac9f-ef6c009a1419"
                  },
                  {
                    "reference": "urn:uuid:ad72a0ec-bffa-408c-874b-60c1e13d72a8"
                  },
                  {
                    "reference": "urn:uuid:2d61f12d-bf39-428b-bcc4-9a69a07587dc"
                  },
                  {
                    "reference": "urn:uuid:181eb283-0573-4016-81b7-c025f4714f39"
                  },
                  {
                    "reference": "urn:uuid:d9efac94-23d2-4ebd-8c34-f26ea00ccee7"
                  },
                  {
                    "reference": "urn:uuid:c5abc9ff-4110-485c-b77b-cb874bb7d824"
                  },
                  {
                    "reference": "urn:uuid:a7d9e7ec-12e8-4ab8-8b7e-347f2dad5f70"
                  },
                  {
                    "reference": "urn:uuid:17a26a56-3afd-4fd8-82e7-cb605d56a509"
                  },
                  {
                    "reference": "urn:uuid:07b82d05-7489-41e6-bee8-079ace9730c1"
                  }
                ],
                "text": {
                  "status": "generated",
                  "div": "<div xmlns=\"http://www.w3.org/1999/xhtml\"><h3>Chemistry</h3><table class=\"hl7__eu__lab__report\"><thead><tr><th>Test</th><th>28-MAR-2018</th><th>Reference&#xA0;Range</th><th>Unit</th></tr></thead><tbody><tr><td>Glucose [Mass/volume] in Serum or Plasma</td><td>85.1</td><td>70 - 140</td><td>mg/dL</td></tr><tr><td>Urea nitrogen [Mass/volume] in Serum or Plasma</td><td>10.3</td><td>7 - 20</td><td>mg/dL</td></tr><tr><td>Creatinine [Mass/volume] in Serum or Plasma</td><td><strong>2.1 H</strong></td><td>0.9 - 1.3</td><td>mg/dL</td></tr><tr><td>Calcium [Mass/volume] in Serum or Plasma</td><td>10.2</td><td>8.5 - 10.5</td><td>mg/dL</td></tr><tr><td>Sodium [Moles/volume] in Serum or Plasma</td><td>140.9</td><td>135 - 145</td><td>mmol/L</td></tr><tr><td>Potassium [Moles/volume] in Serum or Plasma</td><td>4.2</td><td>3.5 - 5</td><td>mmol/L</td></tr><tr><td>Chloride [Moles/volume] in Serum or Plasma</td><td>104.2</td><td>98 - 108</td><td>mmol/L</td></tr><tr><td>Carbon dioxide, total [Moles/volume] in Serum or Plasma</td><td>25.9</td><td>22 - 29</td><td>mmol/L</td></tr><tr><td>Ketones [Presence] in Urine by Test strip</td><td>Urine ketone test = ++</td><td></td><td></td></tr><tr><td>Hemoglobin A1c/Hemoglobin.total in Blood</td><td><strong>3.0 L</strong></td><td>4.3 - 6.4</td><td>%</td></tr><tr><td>Glucose [Mass/volume] in Blood</td><td>85.1</td><td>70 - 140</td><td>mg/dL</td></tr><tr><td>Urea nitrogen [Mass/volume] in Blood</td><td>10.3</td><td>7 - 20</td><td>mg/dL</td></tr><tr><td>Creatinine [Mass/volume] in Blood</td><td><strong>6.3 H</strong></td><td>0.6 - 1.3</td><td>mg/dL</td></tr><tr><td>Calcium [Mass/volume] in Blood</td><td>10.2</td><td>8.5 - 10.5</td><td>mg/dL</td></tr><tr><td>Sodium [Moles/volume] in Blood</td><td>140.9</td><td>135 - 145</td><td>mmol/L</td></tr><tr><td>Potassium [Moles/volume] in Blood</td><td>4.2</td><td>3.5 - 5.3</td><td>mmol/L</td></tr><tr><td>Chloride [Moles/volume] in Blood</td><td>104.2</td><td>98 - 110</td><td>mmol/L</td></tr><tr><td>Carbon dioxide, total [Moles/volume] in Blood</td><td>25.9</td><td>22 - 29</td><td>mmol/L</td></tr></tbody></table></div>"
                },
                "title": "Chemistry"
              },
              {
                "code": {
                  "coding": [
                    {
                      "code": "$18729-4",
                      "system": "http://loinc.org",
                      "display": "Urinalysis studies (set)"
                    }
                  ],
                  "text": "Urinalysis"
                },
                "entry": [
                  {
                    "reference": "urn:uuid:8d5a6b10-9ccf-4050-9bdb-a6a975dd6c3c"
                  },
                  {
                    "reference": "urn:uuid:72e7f110-065a-4e18-9ef1-76dceb09c3a5"
                  },
                  {
                    "reference": "urn:uuid:658728fd-ae51-49b8-a0ba-3bdbde2d9d97"
                  },
                  {
                    "reference": "urn:uuid:626fa285-969e-441c-91f7-75838d78fd66"
                  },
                  {
                    "reference": "urn:uuid:f016e62e-7591-4f5a-bf27-82e7640d66ed"
                  },
                  {
                    "reference": "urn:uuid:f4764656-80d4-4650-be83-278cfada3254"
                  },
                  {
                    "reference": "urn:uuid:91ec5f59-b782-4da6-837a-d5117be8b963"
                  },
                  {
                    "reference": "urn:uuid:576db194-f9a8-4292-8f2b-ad762e028d7c"
                  },
                  {
                    "reference": "urn:uuid:4b5d3f46-5289-42aa-bf58-9152a584d29c"
                  },
                  {
                    "reference": "urn:uuid:6f15058a-1f4d-4797-914f-dfca375f80dc"
                  },
                  {
                    "reference": "urn:uuid:4c291a62-a24f-40b1-9101-e6a620b80714"
                  },
                  {
                    "reference": "urn:uuid:f23d293a-9b12-4fc4-86b8-a90fa937e754"
                  }
                ],
                "text": {
                  "status": "generated",
                  "div": "<div xmlns=\"http://www.w3.org/1999/xhtml\"><h3>Urinalysis</h3><table class=\"hl7__eu__lab__report\"><thead><tr><th>Test</th><th>28-MAR-2018</th><th>Reference&#xA0;Range</th><th>Unit</th></tr></thead><tbody><tr><td>Glucose [Mass/volume] in Urine by Test strip</td><td>0.7</td><td>0 - 0.8</td><td>mg/dL</td></tr><tr><td>Glucose [Presence] in Urine by Test strip</td><td>++</td><td></td><td></td></tr><tr><td>Bilirubin.total [Mass/volume] in Urine by Test strip</td><td>0.5</td><td>0.2 - 1</td><td>mg/dL</td></tr><tr><td>Bilirubin.total [Presence] in Urine by Test strip</td><td>Finding of bilirubin in urine</td><td></td><td></td></tr><tr><td>Ketones [Mass/volume] in Urine by Test strip</td><td><strong>19.4 H</strong></td><td>0 - 5</td><td>mg/dL</td></tr><tr><td>Specific gravity of Urine by Test strip</td><td><strong>1.0 L</strong></td><td>1.005 - 1.03</td><td>{nominal}</td></tr><tr><td>pH of Urine by Test strip</td><td>5.8</td><td>4.6 - 7</td><td>pH</td></tr><tr><td>Protein [Mass/volume] in Urine by Test strip</td><td><strong>315.8 H</strong></td><td>0 - 150</td><td>mg/dL</td></tr><tr><td>Protein [Presence] in Urine by Test strip</td><td>Urine protein test = ++</td><td></td><td></td></tr><tr><td>Nitrite [Presence] in Urine by Test strip</td><td>Urine nitrite negative</td><td></td><td></td></tr><tr><td>Hemoglobin [Presence] in Urine by Test strip</td><td>Urine blood test = negative</td><td></td><td></td></tr><tr><td>Leukocyte esterase [Presence] in Urine by Test strip</td><td>Urine leukocyte test negative</td><td></td><td></td></tr></tbody></table></div>"
                },
                "title": "Urinalysis"
              },
              {
                "code": {
                  "coding": [
                    {
                      "code": "$LP7846-1",
                      "system": "http://loinc.org",
                      "display": "Specimen information"
                    }
                  ],
                  "text": "Specimen information"
                },
                "entry": [
                  {
                    "reference": "urn:uuid:690b77f8-5152-4c25-9dea-2345b812f568"
                  },
                  {
                    "reference": "urn:uuid:5c7b5740-8815-4835-827f-6d0f26e1abe1"
                  },
                  {
                    "reference": "urn:uuid:e6cc05d6-e534-4a23-a82d-8d39d6930e78"
                  },
                  {
                    "reference": "urn:uuid:060c6719-976f-41b4-beaf-a81298ce0743"
                  }
                ],
                "text": {
                  "status": "generated",
                  "div": "<div xmlns=\"http://www.w3.org/1999/xhtml\"><h3>Specimen information</h3><table class=\"hl7__eu__lab__report\"><thead><tr><th>Test</th><th>28-MAR-2018</th><th>Specimen</th><th></th></tr></thead><tbody><tr><td>Appearance of Urine</td><td>Cloudy urine</td><td>Urine</td><td></td></tr><tr><td>Odor of Urine</td><td>Urine smell ammoniacal</td><td>Urine</td><td></td></tr><tr><td>Clarity of Urine</td><td>Translucent</td><td>Urine</td><td></td></tr><tr><td>Color of Urine</td><td>Brown color</td><td>Urine</td><td></td></tr></tbody></table></div>"
                },
                "title": "Specimen information"
              }
            ],
            "title": "Laboratory Report"
          },
          {
            "text": {
              "status": "generated",
              "div": "<div xmlns=\"http://www.w3.org/1999/xhtml\"><h3>Annotation</h3><table class=\"hl7__eu__lab__report\"><tr><th>Conclusion and Recommendations based on this report and previous findings known to us</th></tr><tr><td>The patient shows markedly elevated creatinine, proteinuria, and ketonuria, with low urine specific gravity and abnormal urine appearance, suggesting significant renal dysfunction, possibly acute or chronic kidney disease with nephrotic-range proteinuria. Low HbA1c excludes chronic hyperglycemia. No evidence of urinary tract infection. Prompt nephrology evaluation is recommended.</td></tr></table></div>"
            },
            "code": {
              "coding": [
                {
                  "system": "http://loinc.org",
                  "code": "48767-8",
                  "display": "Annotation comment"
                }
              ]
            },
            "title": "Annotation comment"
          }
        ],
        "status": "final",
        "subject": {
          "reference": "urn:uuid:694a71b4-ed50-4277-9749-ae53e7b37dcd",
          "display": "Θεμιστοκλής Λιναρδάκη"
        },
        "date": "2018-03-28T08:16:00Z",
        "title": "Laboratory Report",
        "confidentiality": "N"
      }
    },
    {
      "fullUrl": "urn:uuid:f6644105-e8c4-4146-9641-d43bb0e78c9d",
      "resource": {
        "resourceType": "DiagnosticReport",
        "id": "f6644105-e8c4-4146-9641-d43bb0e78c9d",
        "meta": {
          "profile": [
            "http://hl7.eu/fhir/laboratory/StructureDefinition/DiagnosticReport-eu-lab"
          ]
        },
        "identifier": [
          {
            "assigner": {
              "display": "HL7 Europe"
            },
            "system": "urn:oid:2.16.840.1.113883.2.51.999",
            "value": "7c316de7-0baa-4c81-8f30-11c76978455c"
          }
        ],
        "extension": [
          {
            "url": "http://hl7.org/fhir/5.0/StructureDefinition/extension-DiagnosticReport.composition",
            "valueReference": {
              "reference": "urn:uuid:2f278d5f-63d2-4c21-a7ee-b718d78409fd"
            }
          }
        ],
        "category": [
          {
            "coding": [
              {
                "code": "26436-6",
                "system": "http://loinc.org",
                "display": "Laboratory studies (set)"
              }
            ]
          }
        ],
        "specimen": [
          {
            "reference": "urn:uuid:cb8c1231-0981-4763-b626-b5add6f05266"
          },
          {
            "reference": "urn:uuid:0a756db9-68c0-4abf-8778-acc0a703f289"
          },
          {
            "reference": "urn:uuid:5a7f193a-b8b4-437b-bf63-3a0fb3586401"
          }
        ],
        "result": [
          {
            "reference": "urn:uuid:ca0b7320-8f4f-4ec3-a6fc-3d059ae3fa1f"
          },
          {
            "reference": "urn:uuid:e984329b-2f4d-4f57-9828-242b25d2433d"
          },
          {
            "reference": "urn:uuid:2cf50811-0d93-4197-a13a-53d7d37cd308"
          },
          {
            "reference": "urn:uuid:3f58aa49-f98b-465c-9ea6-c93e79788a53"
          },
          {
            "reference": "urn:uuid:ddf2cd63-bfc8-4fb0-9898-a9d4944b7b91"
          },
          {
            "reference": "urn:uuid:aad5e108-d93e-49b7-81a3-aded6d9c6b6b"
          },
          {
            "reference": "urn:uuid:97142492-6153-4e60-81c0-369ecad88333"
          },
          {
            "reference": "urn:uuid:1a012fcc-553e-4923-911e-54eaf84966bd"
          },
          {
            "reference": "urn:uuid:690b77f8-5152-4c25-9dea-2345b812f568"
          },
          {
            "reference": "urn:uuid:5c7b5740-8815-4835-827f-6d0f26e1abe1"
          },
          {
            "reference": "urn:uuid:e6cc05d6-e534-4a23-a82d-8d39d6930e78"
          },
          {
            "reference": "urn:uuid:060c6719-976f-41b4-beaf-a81298ce0743"
          },
          {
            "reference": "urn:uuid:8d5a6b10-9ccf-4050-9bdb-a6a975dd6c3c"
          },
          {
            "reference": "urn:uuid:72e7f110-065a-4e18-9ef1-76dceb09c3a5"
          },
          {
            "reference": "urn:uuid:658728fd-ae51-49b8-a0ba-3bdbde2d9d97"
          },
          {
            "reference": "urn:uuid:626fa285-969e-441c-91f7-75838d78fd66"
          },
          {
            "reference": "urn:uuid:f016e62e-7591-4f5a-bf27-82e7640d66ed"
          },
          {
            "reference": "urn:uuid:e21c0186-0268-451a-9d41-5315ca1e1ebd"
          },
          {
            "reference": "urn:uuid:f4764656-80d4-4650-be83-278cfada3254"
          },
          {
            "reference": "urn:uuid:91ec5f59-b782-4da6-837a-d5117be8b963"
          },
          {
            "reference": "urn:uuid:576db194-f9a8-4292-8f2b-ad762e028d7c"
          },
          {
            "reference": "urn:uuid:4b5d3f46-5289-42aa-bf58-9152a584d29c"
          },
          {
            "reference": "urn:uuid:6f15058a-1f4d-4797-914f-dfca375f80dc"
          },
          {
            "reference": "urn:uuid:4c291a62-a24f-40b1-9101-e6a620b80714"
          },
          {
            "reference": "urn:uuid:f23d293a-9b12-4fc4-86b8-a90fa937e754"
          },
          {
            "reference": "urn:uuid:64ea5086-ee7c-407d-ac9f-ef6c009a1419"
          },
          {
            "reference": "urn:uuid:ad72a0ec-bffa-408c-874b-60c1e13d72a8"
          },
          {
            "reference": "urn:uuid:2d61f12d-bf39-428b-bcc4-9a69a07587dc"
          },
          {
            "reference": "urn:uuid:181eb283-0573-4016-81b7-c025f4714f39"
          },
          {
            "reference": "urn:uuid:d9efac94-23d2-4ebd-8c34-f26ea00ccee7"
          },
          {
            "reference": "urn:uuid:c5abc9ff-4110-485c-b77b-cb874bb7d824"
          },
          {
            "reference": "urn:uuid:a7d9e7ec-12e8-4ab8-8b7e-347f2dad5f70"
          },
          {
            "reference": "urn:uuid:17a26a56-3afd-4fd8-82e7-cb605d56a509"
          },
          {
            "reference": "urn:uuid:07b82d05-7489-41e6-bee8-079ace9730c1"
          }
        ],
        "status": "registered",
        "code": {
          "coding": [
            {
              "code": "11502-2",
              "system": "http://loinc.org",
              "display": "Laboratory report"
            }
          ]
        },
        "subject": {
          "reference": "urn:uuid:694a71b4-ed50-4277-9749-ae53e7b37dcd",
          "display": "Θεμιστοκλής Λιναρδάκη"
        }
      }
    },
    {
      "fullUrl": "urn:uuid:694a71b4-ed50-4277-9749-ae53e7b37dcd",
      "resource": {
        "resourceType": "Patient",
        "id": "694a71b4-ed50-4277-9749-ae53e7b37dcd",
        "meta": {
          "security": [
            {
              "system": "http://terminology.hl7.org/CodeSystem/v3-ActReason",
              "code": "HTEST"
            },
            {
              "system": "http://terminology.hl7.org/CodeSystem/v3-ActReason",
              "code": "TRAIN"
            }
          ],
          "tag": [
            {
              "system": "https://synderai.net/fhir/CodeSystem/tags",
              "code": "synthetic",
              "display": "SYNDERAI Synthetic data"
            }
          ],
          "profile": [
            "http://hl7.eu/fhir/base/StructureDefinition/patient-eu-core"
          ]
        },
        "identifier": [
          {
            "type": {
              "coding": [
                {
                  "code": "PT",
                  "system": "http://terminology.hl7.org/CodeSystem/v2-0203"
                }
              ]
            },
            "system": "http://ec.europa.eu/identifier/eci",
            "value": "5962-476889-7"
          },
          {
            "type": {
              "coding": [
                {
                  "code": "MR",
                  "system": "http://terminology.hl7.org/CodeSystem/v2-0203"
                }
              ]
            },
            "system": "http://local.setting.eu/identifier",
            "value": "925e2603-2ef9-6bdf-1330-2ebf526636c4"
          }
        ],
        "name": [
          {
            "family": "Λιναρδάκη"
          },
          {
            "given": [
              "Θεμιστοκλής"
            ]
          },
          {
            "text": "Θεμιστοκλής Λιναρδάκη"
          }
        ],
        "address": [
          {
            "line": [
              "Αμαρύνθου 54-58"
            ],
            "use": "home",
            "type": "physical",
            "postalCode": "262 21",
            "city": "Πάτρα",
            "country": "Greece"
          }
        ],
        "telecom": [
          {
            "system": "phone",
            "value": "+302226364480"
          }
        ],
        "extension": [
          {
            "url": "http://hl7.org/fhir/StructureDefinition/patient-nationality",
            "valueCodeableConcept": {
              "coding": [
                {
                  "code": "GR",
                  "system": "http://hl7.org/fhir/ValueSet/country"
                }
              ]
            }
          }
        ],
        "text": {
          "status": "generated",
          "div": "<div xmlns=\"http://www.w3.org/1999/xhtml\"><table class=\"hl7__ips\"><tr><td>Θεμιστοκλής Λιναρδάκη</td><td>male</td><td>21-Jan-1974</td></tr></table></div>"
        },
        "gender": "male",
        "birthDate": "1974-01-21"
      }
    },
    {
      "fullUrl": "urn:uuid:d4632186-c753-4480-8a93-5dfd96ec0a19",
      "resource": {
        "resourceType": "ServiceRequest",
        "id": "d4632186-c753-4480-8a93-5dfd96ec0a19",
        "meta": {
          "profile": [
            "http://hl7.eu/fhir/laboratory/StructureDefinition/ServiceRequest-eu-lab"
          ]
        },
        "identifier": [
          {
            "system": "http://example.org",
            "value": "0720cf74-68a2-4272-b289-93a63e939d80"
          }
        ],
        "specimen": [
          {
            "reference": "urn:uuid:cb8c1231-0981-4763-b626-b5add6f05266"
          },
          {
            "reference": "urn:uuid:0a756db9-68c0-4abf-8778-acc0a703f289"
          },
          {
            "reference": "urn:uuid:5a7f193a-b8b4-437b-bf63-3a0fb3586401"
          }
        ],
        "reasonCode": [
          {
            "coding": [
              {
                "code": "237602007",
                "system": "http://snomed.info/sct",
                "display": "Metabolic syndrome X"
              }
            ]
          },
          {
            "coding": [
              {
                "code": "433144002",
                "system": "http://snomed.info/sct",
                "display": "Chronic kidney disease stage 3"
              }
            ]
          },
          {
            "coding": [
              {
                "code": "157141000119108",
                "system": "http://snomed.info/sct",
                "display": "Proteinuria due to type 2 diabetes mellitus"
              }
            ]
          },
          {
            "coding": [
              {
                "code": "431856006",
                "system": "http://snomed.info/sct",
                "display": "Chronic kidney disease stage 2"
              }
            ]
          },
          {
            "coding": [
              {
                "code": "90781000119102",
                "system": "http://snomed.info/sct",
                "display": "Microalbuminuria due to type 2 diabetes mellitus"
              }
            ]
          },
          {
            "coding": [
              {
                "code": "127013003",
                "system": "http://snomed.info/sct",
                "display": "Disorder of kidney due to diabetes mellitus"
              }
            ]
          },
          {
            "coding": [
              {
                "code": "431855005",
                "system": "http://snomed.info/sct",
                "display": "Chronic kidney disease stage 1"
              }
            ]
          },
          {
            "coding": [
              {
                "code": "59621000",
                "system": "http://snomed.info/sct",
                "display": "Essential hypertension"
              }
            ]
          },
          {
            "coding": [
              {
                "code": "15777000",
                "system": "http://snomed.info/sct",
                "display": "Prediabetes"
              }
            ]
          },
          {
            "coding": [
              {
                "code": "271737000",
                "system": "http://snomed.info/sct",
                "display": "Anemia"
              }
            ]
          }
        ],
        "status": "active",
        "intent": "order",
        "code": {
          "coding": [
            {
              "code": "108252007",
              "system": "http://snomed.info/sct",
              "display": "Laboratory procedure"
            }
          ]
        },
        "subject": {
          "reference": "urn:uuid:694a71b4-ed50-4277-9749-ae53e7b37dcd",
          "display": "Θεμιστοκλής Λιναρδάκη"
        },
        "requester": {
          "reference": "urn:uuid:dad8416e-2ed9-43eb-b449-f5f07630cf77"
        }
      }
    },
    {
      "fullUrl": "urn:uuid:dad8416e-2ed9-43eb-b449-f5f07630cf77",
      "resource": {
        "resourceType": "PractitionerRole",
        "id": "dad8416e-2ed9-43eb-b449-f5f07630cf77",
        "meta": {
          "profile": [
            "http://hl7.eu/fhir/base/StructureDefinition/practitionerRole-eu"
          ]
        },
        "text": {
          "status": "generated",
          "div": "<div xmlns=\"http://www.w3.org/1999/xhtml\">Provider Role Id: dad8416e-2ed9-43eb-b449-f5f07630cf77</div>"
        },
        "organization": {
          "reference": "urn:uuid:7ca19f76-a31a-4f2c-87da-dd5f2859a2bc"
        }
      }
    },
    {
      "fullUrl": "urn:uuid:7ca19f76-a31a-4f2c-87da-dd5f2859a2bc",
      "resource": {
        "resourceType": "Organization",
        "id": "7ca19f76-a31a-4f2c-87da-dd5f2859a2bc",
        "meta": {
          "profile": [
            "http://hl7.eu/fhir/base/StructureDefinition/organization-eu"
          ]
        },
        "identifier": [
          {
            "assigner": {
              "display": "HL7 Europe"
            },
            "system": "urn:oid:2.16.840.1.113883.2.51.999",
            "value": "d7b4f5d3-7ab1-44a5-8efa-2f5794c09469"
          }
        ],
        "address": [
          {
            "line": [
              "211 Odós Filellinon"
            ],
            "city": "Patras",
            "postalCode": "262 21",
            "country": "Greece"
          }
        ],
        "text": {
          "status": "generated",
          "div": "<div xmlns=\"http://www.w3.org/1999/xhtml\">Provider Organization: Dr. Dimitris Economou</div>"
        },
        "name": "Dr. Dimitris Economou"
      }
    },
    {
      "fullUrl": "urn:uuid:cb8c1231-0981-4763-b626-b5add6f05266",
      "resource": {
        "resourceType": "Specimen",
        "id": "cb8c1231-0981-4763-b626-b5add6f05266",
        "meta": {
          "profile": [
            "http://hl7.eu/fhir/laboratory/StructureDefinition/Specimen-eu-lab"
          ]
        },
        "collection": {
          "collectedDateTime": "2018-03-28"
        },
        "text": {
          "status": "generated",
          "div": "<div xmlns=\"http://www.w3.org/1999/xhtml\"><table class=\"hl7__eu__lab__report\"><tr><th>Specimen</th><th>Collection Date</th></tr><tr><td>Acellular blood (serum or plasma) specimen</td><td><span class=\"nb\">28-Mar-2018</span></td></tr></table></div>"
        },
        "type": {
          "coding": [
            {
              "code": "122592007",
              "system": "http://snomed.info/sct",
              "display": "Acellular blood (serum or plasma) specimen"
            }
          ]
        }
      }
    },
    {
      "fullUrl": "urn:uuid:0a756db9-68c0-4abf-8778-acc0a703f289",
      "resource": {
        "resourceType": "Specimen",
        "id": "0a756db9-68c0-4abf-8778-acc0a703f289",
        "meta": {
          "profile": [
            "http://hl7.eu/fhir/laboratory/StructureDefinition/Specimen-eu-lab"
          ]
        },
        "collection": {
          "collectedDateTime": "2018-03-28"
        },
        "text": {
          "status": "generated",
          "div": "<div xmlns=\"http://www.w3.org/1999/xhtml\"><table class=\"hl7__eu__lab__report\"><tr><th>Specimen</th><th>Collection Date</th></tr><tr><td>Urine specimen</td><td><span class=\"nb\">28-Mar-2018</span></td></tr></table></div>"
        },
        "type": {
          "coding": [
            {
              "code": "122575003",
              "system": "http://snomed.info/sct",
              "display": "Urine specimen"
            }
          ]
        }
      }
    },
    {
      "fullUrl": "urn:uuid:5a7f193a-b8b4-437b-bf63-3a0fb3586401",
      "resource": {
        "resourceType": "Specimen",
        "id": "5a7f193a-b8b4-437b-bf63-3a0fb3586401",
        "meta": {
          "profile": [
            "http://hl7.eu/fhir/laboratory/StructureDefinition/Specimen-eu-lab"
          ]
        },
        "collection": {
          "collectedDateTime": "2018-03-28"
        },
        "text": {
          "status": "generated",
          "div": "<div xmlns=\"http://www.w3.org/1999/xhtml\"><table class=\"hl7__eu__lab__report\"><tr><th>Specimen</th><th>Collection Date</th></tr><tr><td>Whole blood specimen (specimen)</td><td><span class=\"nb\">28-Mar-2018</span></td></tr></table></div>"
        },
        "type": {
          "coding": [
            {
              "code": "258580003",
              "system": "http://snomed.info/sct",
              "display": "Whole blood specimen (specimen)"
            }
          ]
        }
      }
    },
    {
      "fullUrl": "urn:uuid:ca0b7320-8f4f-4ec3-a6fc-3d059ae3fa1f",
      "resource": {
        "resourceType": "Observation",
        "id": "ca0b7320-8f4f-4ec3-a6fc-3d059ae3fa1f",
        "meta": {
          "profile": [
            "http://hl7.eu/fhir/laboratory/StructureDefinition/Observation-resultslab-eu-lab"
          ]
        },
        "performer": [
          {
            "display": "The Central European Lab"
          }
        ],
        "category": [
          {
            "coding": [
              {
                "system": "http://terminology.hl7.org/CodeSystem/observation-category",
                "code": "laboratory"
              }
            ]
          }
        ],
        "code": {
          "coding": [
            {
              "code": "2345-7",
              "system": "http://loinc.org",
              "display": "Glucose [Mass/volume] in Serum or Plasma"
            }
          ],
          "text": "Glucose [Mass/volume] in Serum or Plasma"
        },
        "valueQuantity": {
          "system": "http://unitsofmeasure.org",
          "value": 85.1,
          "unit": "mg/dL",
          "code": "mg/dL"
        },
        "referenceRange": [
          {
            "low": {
              "value": 70,
              "code": "mg/dL",
              "system": "http://unitsofmeasure.org"
            }
          },
          {
            "high": {
              "value": 140,
              "code": "mg/dL",
              "system": "http://unitsofmeasure.org"
            }
          }
        ],
        "text": {
          "status": "generated",
          "div": "<div xmlns=\"http://www.w3.org/1999/xhtml\"><table class=\"hl7__eu__lab__report\"><tr><th>Test</th><th>28-Mar-2018</th><th>Reference&#xA0;Range</th><th>Unit</th></tr><tr><td>Glucose [Mass/volume] in Serum or Plasma</td><td>85.1</td><td>70 - 140</td><td></td><td>mg/dL</td></tr></table></div>"
        },
        "status": "final",
        "subject": {
          "reference": "urn:uuid:694a71b4-ed50-4277-9749-ae53e7b37dcd",
          "display": "Θεμιστοκλής Λιναρδάκη"
        },
        "effectiveDateTime": "2018-03-28T06:16:00Z",
        "specimen": {
          "reference": "urn:uuid:cb8c1231-0981-4763-b626-b5add6f05266"
        }
      }
    },
    {
      "fullUrl": "urn:uuid:e984329b-2f4d-4f57-9828-242b25d2433d",
      "resource": {
        "resourceType": "Observation",
        "id": "e984329b-2f4d-4f57-9828-242b25d2433d",
        "meta": {
          "profile": [
            "http://hl7.eu/fhir/laboratory/StructureDefinition/Observation-resultslab-eu-lab"
          ]
        },
        "performer": [
          {
            "display": "The Central European Lab"
          }
        ],
        "category": [
          {
            "coding": [
              {
                "system": "http://terminology.hl7.org/CodeSystem/observation-category",
                "code": "laboratory"
              }
            ]
          }
        ],
        "code": {
          "coding": [
            {
              "code": "3094-0",
              "system": "http://loinc.org",
              "display": "Urea nitrogen [Mass/volume] in Serum or Plasma"
            }
          ],
          "text": "Urea nitrogen [Mass/volume] in Serum or Plasma"
        },
        "valueQuantity": {
          "system": "http://unitsofmeasure.org",
          "value": 10.3,
          "unit": "mg/dL",
          "code": "mg/dL"
        },
        "referenceRange": [
          {
            "low": {
              "value": 7,
              "code": "mg/dL",
              "system": "http://unitsofmeasure.org"
            }
          },
          {
            "high": {
              "value": 20,
              "code": "mg/dL",
              "system": "http://unitsofmeasure.org"
            }
          }
        ],
        "text": {
          "status": "generated",
          "div": "<div xmlns=\"http://www.w3.org/1999/xhtml\"><table class=\"hl7__eu__lab__report\"><tr><th>Test</th><th>28-Mar-2018</th><th>Reference&#xA0;Range</th><th>Unit</th></tr><tr><td>Urea nitrogen [Mass/volume] in Serum or Plasma</td><td>10.3</td><td>7 - 20</td><td></td><td>mg/dL</td></tr></table></div>"
        },
        "status": "final",
        "subject": {
          "reference": "urn:uuid:694a71b4-ed50-4277-9749-ae53e7b37dcd",
          "display": "Θεμιστοκλής Λιναρδάκη"
        },
        "effectiveDateTime": "2018-03-28T06:16:00Z",
        "specimen": {
          "reference": "urn:uuid:cb8c1231-0981-4763-b626-b5add6f05266"
        }
      }
    },
    {
      "fullUrl": "urn:uuid:2cf50811-0d93-4197-a13a-53d7d37cd308",
      "resource": {
        "resourceType": "Observation",
        "id": "2cf50811-0d93-4197-a13a-53d7d37cd308",
        "meta": {
          "profile": [
            "http://hl7.eu/fhir/laboratory/StructureDefinition/Observation-resultslab-eu-lab"
          ]
        },
        "performer": [
          {
            "display": "The Central European Lab"
          }
        ],
        "category": [
          {
            "coding": [
              {
                "system": "http://terminology.hl7.org/CodeSystem/observation-category",
                "code": "laboratory"
              }
            ]
          }
        ],
        "code": {
          "coding": [
            {
              "code": "2160-0",
              "system": "http://loinc.org",
              "display": "Creatinine [Mass/volume] in Serum or Plasma"
            }
          ],
          "text": "Creatinine [Mass/volume] in Serum or Plasma"
        },
        "valueQuantity": {
          "system": "http://unitsofmeasure.org",
          "value": 2.1,
          "unit": "mg/dL",
          "code": "mg/dL"
        },
        "referenceRange": [
          {
            "low": {
              "value": 0.9,
              "code": "mg/dL",
              "system": "http://unitsofmeasure.org"
            }
          },
          {
            "high": {
              "value": 1.3,
              "code": "mg/dL",
              "system": "http://unitsofmeasure.org"
            }
          }
        ],
        "interpretation": [
          {
            "coding": [
              {
                "code": "H",
                "system": "http://terminology.hl7.org/CodeSystem/v3-ObservationInterpretation",
                "display": "High"
              }
            ]
          }
        ],
        "text": {
          "status": "generated",
          "div": "<div xmlns=\"http://www.w3.org/1999/xhtml\"><table class=\"hl7__eu__lab__report\"><tr><th>Test</th><th>28-Mar-2018</th><th>Reference&#xA0;Range</th><th>Unit</th></tr><tr><td>Creatinine [Mass/volume] in Serum or Plasma</td><td>2.1</td><td>0.9 - 1.3</td><td>H</td><td>mg/dL</td></tr></table></div>"
        },
        "status": "final",
        "subject": {
          "reference": "urn:uuid:694a71b4-ed50-4277-9749-ae53e7b37dcd",
          "display": "Θεμιστοκλής Λιναρδάκη"
        },
        "effectiveDateTime": "2018-03-28T06:16:00Z",
        "specimen": {
          "reference": "urn:uuid:cb8c1231-0981-4763-b626-b5add6f05266"
        }
      }
    },
    {
      "fullUrl": "urn:uuid:3f58aa49-f98b-465c-9ea6-c93e79788a53",
      "resource": {
        "resourceType": "Observation",
        "id": "3f58aa49-f98b-465c-9ea6-c93e79788a53",
        "meta": {
          "profile": [
            "http://hl7.eu/fhir/laboratory/StructureDefinition/Observation-resultslab-eu-lab"
          ]
        },
        "performer": [
          {
            "display": "The Central European Lab"
          }
        ],
        "category": [
          {
            "coding": [
              {
                "system": "http://terminology.hl7.org/CodeSystem/observation-category",
                "code": "laboratory"
              }
            ]
          }
        ],
        "code": {
          "coding": [
            {
              "code": "17861-6",
              "system": "http://loinc.org",
              "display": "Calcium [Mass/volume] in Serum or Plasma"
            }
          ],
          "text": "Calcium [Mass/volume] in Serum or Plasma"
        },
        "valueQuantity": {
          "system": "http://unitsofmeasure.org",
          "value": 10.2,
          "unit": "mg/dL",
          "code": "mg/dL"
        },
        "referenceRange": [
          {
            "low": {
              "value": 8.5,
              "code": "mg/dL",
              "system": "http://unitsofmeasure.org"
            }
          },
          {
            "high": {
              "value": 10.5,
              "code": "mg/dL",
              "system": "http://unitsofmeasure.org"
            }
          }
        ],
        "text": {
          "status": "generated",
          "div": "<div xmlns=\"http://www.w3.org/1999/xhtml\"><table class=\"hl7__eu__lab__report\"><tr><th>Test</th><th>28-Mar-2018</th><th>Reference&#xA0;Range</th><th>Unit</th></tr><tr><td>Calcium [Mass/volume] in Serum or Plasma</td><td>10.2</td><td>8.5 - 10.5</td><td></td><td>mg/dL</td></tr></table></div>"
        },
        "status": "final",
        "subject": {
          "reference": "urn:uuid:694a71b4-ed50-4277-9749-ae53e7b37dcd",
          "display": "Θεμιστοκλής Λιναρδάκη"
        },
        "effectiveDateTime": "2018-03-28T06:16:00Z",
        "specimen": {
          "reference": "urn:uuid:cb8c1231-0981-4763-b626-b5add6f05266"
        }
      }
    },
    {
      "fullUrl": "urn:uuid:ddf2cd63-bfc8-4fb0-9898-a9d4944b7b91",
      "resource": {
        "resourceType": "Observation",
        "id": "ddf2cd63-bfc8-4fb0-9898-a9d4944b7b91",
        "meta": {
          "profile": [
            "http://hl7.eu/fhir/laboratory/StructureDefinition/Observation-resultslab-eu-lab"
          ]
        },
        "performer": [
          {
            "display": "The Central European Lab"
          }
        ],
        "category": [
          {
            "coding": [
              {
                "system": "http://terminology.hl7.org/CodeSystem/observation-category",
                "code": "laboratory"
              }
            ]
          }
        ],
        "code": {
          "coding": [
            {
              "code": "2951-2",
              "system": "http://loinc.org",
              "display": "Sodium [Moles/volume] in Serum or Plasma"
            }
          ],
          "text": "Sodium [Moles/volume] in Serum or Plasma"
        },
        "valueQuantity": {
          "system": "http://unitsofmeasure.org",
          "value": 140.9,
          "unit": "mmol/L",
          "code": "mmol/L"
        },
        "referenceRange": [
          {
            "low": {
              "value": 135,
              "code": "mmol/L",
              "system": "http://unitsofmeasure.org"
            }
          },
          {
            "high": {
              "value": 145,
              "code": "mmol/L",
              "system": "http://unitsofmeasure.org"
            }
          }
        ],
        "text": {
          "status": "generated",
          "div": "<div xmlns=\"http://www.w3.org/1999/xhtml\"><table class=\"hl7__eu__lab__report\"><tr><th>Test</th><th>28-Mar-2018</th><th>Reference&#xA0;Range</th><th>Unit</th></tr><tr><td>Sodium [Moles/volume] in Serum or Plasma</td><td>140.9</td><td>135 - 145</td><td></td><td>mmol/L</td></tr></table></div>"
        },
        "status": "final",
        "subject": {
          "reference": "urn:uuid:694a71b4-ed50-4277-9749-ae53e7b37dcd",
          "display": "Θεμιστοκλής Λιναρδάκη"
        },
        "effectiveDateTime": "2018-03-28T06:16:00Z",
        "specimen": {
          "reference": "urn:uuid:cb8c1231-0981-4763-b626-b5add6f05266"
        }
      }
    },
    {
      "fullUrl": "urn:uuid:aad5e108-d93e-49b7-81a3-aded6d9c6b6b",
      "resource": {
        "resourceType": "Observation",
        "id": "aad5e108-d93e-49b7-81a3-aded6d9c6b6b",
        "meta": {
          "profile": [
            "http://hl7.eu/fhir/laboratory/StructureDefinition/Observation-resultslab-eu-lab"
          ]
        },
        "performer": [
          {
            "display": "The Central European Lab"
          }
        ],
        "category": [
          {
            "coding": [
              {
                "system": "http://terminology.hl7.org/CodeSystem/observation-category",
                "code": "laboratory"
              }
            ]
          }
        ],
        "code": {
          "coding": [
            {
              "code": "2823-3",
              "system": "http://loinc.org",
              "display": "Potassium [Moles/volume] in Serum or Plasma"
            }
          ],
          "text": "Potassium [Moles/volume] in Serum or Plasma"
        },
        "valueQuantity": {
          "system": "http://unitsofmeasure.org",
          "value": 4.2,
          "unit": "mmol/L",
          "code": "mmol/L"
        },
        "referenceRange": [
          {
            "low": {
              "value": 3.5,
              "code": "mmol/L",
              "system": "http://unitsofmeasure.org"
            }
          },
          {
            "high": {
              "value": 5,
              "code": "mmol/L",
              "system": "http://unitsofmeasure.org"
            }
          }
        ],
        "text": {
          "status": "generated",
          "div": "<div xmlns=\"http://www.w3.org/1999/xhtml\"><table class=\"hl7__eu__lab__report\"><tr><th>Test</th><th>28-Mar-2018</th><th>Reference&#xA0;Range</th><th>Unit</th></tr><tr><td>Potassium [Moles/volume] in Serum or Plasma</td><td>4.2</td><td>3.5 - 5</td><td></td><td>mmol/L</td></tr></table></div>"
        },
        "status": "final",
        "subject": {
          "reference": "urn:uuid:694a71b4-ed50-4277-9749-ae53e7b37dcd",
          "display": "Θεμιστοκλής Λιναρδάκη"
        },
        "effectiveDateTime": "2018-03-28T06:16:00Z",
        "specimen": {
          "reference": "urn:uuid:cb8c1231-0981-4763-b626-b5add6f05266"
        }
      }
    },
    {
      "fullUrl": "urn:uuid:97142492-6153-4e60-81c0-369ecad88333",
      "resource": {
        "resourceType": "Observation",
        "id": "97142492-6153-4e60-81c0-369ecad88333",
        "meta": {
          "profile": [
            "http://hl7.eu/fhir/laboratory/StructureDefinition/Observation-resultslab-eu-lab"
          ]
        },
        "performer": [
          {
            "display": "The Central European Lab"
          }
        ],
        "category": [
          {
            "coding": [
              {
                "system": "http://terminology.hl7.org/CodeSystem/observation-category",
                "code": "laboratory"
              }
            ]
          }
        ],
        "code": {
          "coding": [
            {
              "code": "2075-0",
              "system": "http://loinc.org",
              "display": "Chloride [Moles/volume] in Serum or Plasma"
            }
          ],
          "text": "Chloride [Moles/volume] in Serum or Plasma"
        },
        "valueQuantity": {
          "system": "http://unitsofmeasure.org",
          "value": 104.2,
          "unit": "mmol/L",
          "code": "mmol/L"
        },
        "referenceRange": [
          {
            "low": {
              "value": 98,
              "code": "mmol/L",
              "system": "http://unitsofmeasure.org"
            }
          },
          {
            "high": {
              "value": 108,
              "code": "mmol/L",
              "system": "http://unitsofmeasure.org"
            }
          }
        ],
        "text": {
          "status": "generated",
          "div": "<div xmlns=\"http://www.w3.org/1999/xhtml\"><table class=\"hl7__eu__lab__report\"><tr><th>Test</th><th>28-Mar-2018</th><th>Reference&#xA0;Range</th><th>Unit</th></tr><tr><td>Chloride [Moles/volume] in Serum or Plasma</td><td>104.2</td><td>98 - 108</td><td></td><td>mmol/L</td></tr></table></div>"
        },
        "status": "final",
        "subject": {
          "reference": "urn:uuid:694a71b4-ed50-4277-9749-ae53e7b37dcd",
          "display": "Θεμιστοκλής Λιναρδάκη"
        },
        "effectiveDateTime": "2018-03-28T06:16:00Z",
        "specimen": {
          "reference": "urn:uuid:cb8c1231-0981-4763-b626-b5add6f05266"
        }
      }
    },
    {
      "fullUrl": "urn:uuid:1a012fcc-553e-4923-911e-54eaf84966bd",
      "resource": {
        "resourceType": "Observation",
        "id": "1a012fcc-553e-4923-911e-54eaf84966bd",
        "meta": {
          "profile": [
            "http://hl7.eu/fhir/laboratory/StructureDefinition/Observation-resultslab-eu-lab"
          ]
        },
        "performer": [
          {
            "display": "The Central European Lab"
          }
        ],
        "category": [
          {
            "coding": [
              {
                "system": "http://terminology.hl7.org/CodeSystem/observation-category",
                "code": "laboratory"
              }
            ]
          }
        ],
        "code": {
          "coding": [
            {
              "code": "2028-9",
              "system": "http://loinc.org",
              "display": "Carbon dioxide, total [Moles/volume] in Serum or Plasma"
            }
          ],
          "text": "Carbon dioxide, total [Moles/volume] in Serum or Plasma"
        },
        "valueQuantity": {
          "system": "http://unitsofmeasure.org",
          "value": 25.9,
          "unit": "mmol/L",
          "code": "mmol/L"
        },
        "referenceRange": [
          {
            "low": {
              "value": 22,
              "code": "mmol/L",
              "system": "http://unitsofmeasure.org"
            }
          },
          {
            "high": {
              "value": 29,
              "code": "mmol/L",
              "system": "http://unitsofmeasure.org"
            }
          }
        ],
        "text": {
          "status": "generated",
          "div": "<div xmlns=\"http://www.w3.org/1999/xhtml\"><table class=\"hl7__eu__lab__report\"><tr><th>Test</th><th>28-Mar-2018</th><th>Reference&#xA0;Range</th><th>Unit</th></tr><tr><td>Carbon dioxide, total [Moles/volume] in Serum or Plasma</td><td>25.9</td><td>22 - 29</td><td></td><td>mmol/L</td></tr></table></div>"
        },
        "status": "final",
        "subject": {
          "reference": "urn:uuid:694a71b4-ed50-4277-9749-ae53e7b37dcd",
          "display": "Θεμιστοκλής Λιναρδάκη"
        },
        "effectiveDateTime": "2018-03-28T06:16:00Z",
        "specimen": {
          "reference": "urn:uuid:cb8c1231-0981-4763-b626-b5add6f05266"
        }
      }
    },
    {
      "fullUrl": "urn:uuid:690b77f8-5152-4c25-9dea-2345b812f568",
      "resource": {
        "resourceType": "Observation",
        "id": "690b77f8-5152-4c25-9dea-2345b812f568",
        "meta": {
          "profile": [
            "http://hl7.eu/fhir/laboratory/StructureDefinition/Observation-resultslab-eu-lab"
          ]
        },
        "performer": [
          {
            "display": "The Central European Lab"
          }
        ],
        "category": [
          {
            "coding": [
              {
                "system": "http://terminology.hl7.org/CodeSystem/observation-category",
                "code": "laboratory"
              }
            ]
          }
        ],
        "code": {
          "coding": [
            {
              "code": "5767-9",
              "system": "http://loinc.org",
              "display": "Appearance of Urine"
            }
          ],
          "text": "Appearance of Urine"
        },
        "text": {
          "status": "generated",
          "div": "<div xmlns=\"http://www.w3.org/1999/xhtml\"><table class=\"hl7__eu__lab__report\"><tr><th>Test</th><th>28-Mar-2018</th><th>Reference&#xA0;Range</th><th>Unit</th></tr><tr><td>Appearance of Urine</td></tr></table></div>"
        },
        "status": "final",
        "subject": {
          "reference": "urn:uuid:694a71b4-ed50-4277-9749-ae53e7b37dcd",
          "display": "Θεμιστοκλής Λιναρδάκη"
        },
        "effectiveDateTime": "2018-03-28T06:16:00Z",
        "specimen": {
          "reference": "urn:uuid:0a756db9-68c0-4abf-8778-acc0a703f289"
        }
      }
    },
    {
      "fullUrl": "urn:uuid:5c7b5740-8815-4835-827f-6d0f26e1abe1",
      "resource": {
        "resourceType": "Observation",
        "id": "5c7b5740-8815-4835-827f-6d0f26e1abe1",
        "meta": {
          "profile": [
            "http://hl7.eu/fhir/laboratory/StructureDefinition/Observation-resultslab-eu-lab"
          ]
        },
        "performer": [
          {
            "display": "The Central European Lab"
          }
        ],
        "category": [
          {
            "coding": [
              {
                "system": "http://terminology.hl7.org/CodeSystem/observation-category",
                "code": "laboratory"
              }
            ]
          }
        ],
        "code": {
          "coding": [
            {
              "code": "34533-0",
              "system": "http://loinc.org",
              "display": "Odor of Urine"
            }
          ],
          "text": "Odor of Urine"
        },
        "text": {
          "status": "generated",
          "div": "<div xmlns=\"http://www.w3.org/1999/xhtml\"><table class=\"hl7__eu__lab__report\"><tr><th>Test</th><th>28-Mar-2018</th><th>Reference&#xA0;Range</th><th>Unit</th></tr><tr><td>Odor of Urine</td></tr></table></div>"
        },
        "status": "final",
        "subject": {
          "reference": "urn:uuid:694a71b4-ed50-4277-9749-ae53e7b37dcd",
          "display": "Θεμιστοκλής Λιναρδάκη"
        },
        "effectiveDateTime": "2018-03-28T06:16:00Z",
        "specimen": {
          "reference": "urn:uuid:0a756db9-68c0-4abf-8778-acc0a703f289"
        }
      }
    },
    {
      "fullUrl": "urn:uuid:e6cc05d6-e534-4a23-a82d-8d39d6930e78",
      "resource": {
        "resourceType": "Observation",
        "id": "e6cc05d6-e534-4a23-a82d-8d39d6930e78",
        "meta": {
          "profile": [
            "http://hl7.eu/fhir/laboratory/StructureDefinition/Observation-resultslab-eu-lab"
          ]
        },
        "performer": [
          {
            "display": "The Central European Lab"
          }
        ],
        "category": [
          {
            "coding": [
              {
                "system": "http://terminology.hl7.org/CodeSystem/observation-category",
                "code": "laboratory"
              }
            ]
          }
        ],
        "code": {
          "coding": [
            {
              "code": "32167-9",
              "system": "http://loinc.org",
              "display": "Clarity of Urine"
            }
          ],
          "text": "Clarity of Urine"
        },
        "text": {
          "status": "generated",
          "div": "<div xmlns=\"http://www.w3.org/1999/xhtml\"><table class=\"hl7__eu__lab__report\"><tr><th>Test</th><th>28-Mar-2018</th><th>Reference&#xA0;Range</th><th>Unit</th></tr><tr><td>Clarity of Urine</td></tr></table></div>"
        },
        "status": "final",
        "subject": {
          "reference": "urn:uuid:694a71b4-ed50-4277-9749-ae53e7b37dcd",
          "display": "Θεμιστοκλής Λιναρδάκη"
        },
        "effectiveDateTime": "2018-03-28T06:16:00Z",
        "specimen": {
          "reference": "urn:uuid:0a756db9-68c0-4abf-8778-acc0a703f289"
        }
      }
    },
    {
      "fullUrl": "urn:uuid:060c6719-976f-41b4-beaf-a81298ce0743",
      "resource": {
        "resourceType": "Observation",
        "id": "060c6719-976f-41b4-beaf-a81298ce0743",
        "meta": {
          "profile": [
            "http://hl7.eu/fhir/laboratory/StructureDefinition/Observation-resultslab-eu-lab"
          ]
        },
        "performer": [
          {
            "display": "The Central European Lab"
          }
        ],
        "category": [
          {
            "coding": [
              {
                "system": "http://terminology.hl7.org/CodeSystem/observation-category",
                "code": "laboratory"
              }
            ]
          }
        ],
        "code": {
          "coding": [
            {
              "code": "5778-6",
              "system": "http://loinc.org",
              "display": "Color of Urine"
            }
          ],
          "text": "Color of Urine"
        },
        "text": {
          "status": "generated",
          "div": "<div xmlns=\"http://www.w3.org/1999/xhtml\"><table class=\"hl7__eu__lab__report\"><tr><th>Test</th><th>28-Mar-2018</th><th>Reference&#xA0;Range</th><th>Unit</th></tr><tr><td>Color of Urine</td></tr></table></div>"
        },
        "status": "final",
        "subject": {
          "reference": "urn:uuid:694a71b4-ed50-4277-9749-ae53e7b37dcd",
          "display": "Θεμιστοκλής Λιναρδάκη"
        },
        "effectiveDateTime": "2018-03-28T06:16:00Z",
        "specimen": {
          "reference": "urn:uuid:0a756db9-68c0-4abf-8778-acc0a703f289"
        }
      }
    },
    {
      "fullUrl": "urn:uuid:8d5a6b10-9ccf-4050-9bdb-a6a975dd6c3c",
      "resource": {
        "resourceType": "Observation",
        "id": "8d5a6b10-9ccf-4050-9bdb-a6a975dd6c3c",
        "meta": {
          "profile": [
            "http://hl7.eu/fhir/laboratory/StructureDefinition/Observation-resultslab-eu-lab"
          ]
        },
        "performer": [
          {
            "display": "The Central European Lab"
          }
        ],
        "category": [
          {
            "coding": [
              {
                "system": "http://terminology.hl7.org/CodeSystem/observation-category",
                "code": "laboratory"
              }
            ]
          }
        ],
        "code": {
          "coding": [
            {
              "code": "5792-7",
              "system": "http://loinc.org",
              "display": "Glucose [Mass/volume] in Urine by Test strip"
            }
          ],
          "text": "Glucose [Mass/volume] in Urine by Test strip"
        },
        "valueQuantity": {
          "system": "http://unitsofmeasure.org",
          "value": 0.7,
          "unit": "mg/dL",
          "code": "mg/dL"
        },
        "referenceRange": [
          {
            "low": {
              "value": 0,
              "code": "mg/dL",
              "system": "http://unitsofmeasure.org"
            }
          },
          {
            "high": {
              "value": 0.8,
              "code": "mg/dL",
              "system": "http://unitsofmeasure.org"
            }
          }
        ],
        "text": {
          "status": "generated",
          "div": "<div xmlns=\"http://www.w3.org/1999/xhtml\"><table class=\"hl7__eu__lab__report\"><tr><th>Test</th><th>28-Mar-2018</th><th>Reference&#xA0;Range</th><th>Unit</th></tr><tr><td>Glucose [Mass/volume] in Urine by Test strip</td><td>0.7</td><td>0 - 0.8</td><td></td><td>mg/dL</td></tr></table></div>"
        },
        "status": "final",
        "subject": {
          "reference": "urn:uuid:694a71b4-ed50-4277-9749-ae53e7b37dcd",
          "display": "Θεμιστοκλής Λιναρδάκη"
        },
        "effectiveDateTime": "2018-03-28T06:16:00Z",
        "specimen": {
          "reference": "urn:uuid:0a756db9-68c0-4abf-8778-acc0a703f289"
        }
      }
    },
    {
      "fullUrl": "urn:uuid:72e7f110-065a-4e18-9ef1-76dceb09c3a5",
      "resource": {
        "resourceType": "Observation",
        "id": "72e7f110-065a-4e18-9ef1-76dceb09c3a5",
        "meta": {
          "profile": [
            "http://hl7.eu/fhir/laboratory/StructureDefinition/Observation-resultslab-eu-lab"
          ]
        },
        "performer": [
          {
            "display": "The Central European Lab"
          }
        ],
        "category": [
          {
            "coding": [
              {
                "system": "http://terminology.hl7.org/CodeSystem/observation-category",
                "code": "laboratory"
              }
            ]
          }
        ],
        "code": {
          "coding": [
            {
              "code": "25428-4",
              "system": "http://loinc.org",
              "display": "Glucose [Presence] in Urine by Test strip"
            }
          ],
          "text": "Glucose [Presence] in Urine by Test strip"
        },
        "text": {
          "status": "generated",
          "div": "<div xmlns=\"http://www.w3.org/1999/xhtml\"><table class=\"hl7__eu__lab__report\"><tr><th>Test</th><th>28-Mar-2018</th><th>Reference&#xA0;Range</th><th>Unit</th></tr><tr><td>Glucose [Presence] in Urine by Test strip</td></tr></table></div>"
        },
        "status": "final",
        "subject": {
          "reference": "urn:uuid:694a71b4-ed50-4277-9749-ae53e7b37dcd",
          "display": "Θεμιστοκλής Λιναρδάκη"
        },
        "effectiveDateTime": "2018-03-28T06:16:00Z",
        "specimen": {
          "reference": "urn:uuid:0a756db9-68c0-4abf-8778-acc0a703f289"
        }
      }
    },
    {
      "fullUrl": "urn:uuid:658728fd-ae51-49b8-a0ba-3bdbde2d9d97",
      "resource": {
        "resourceType": "Observation",
        "id": "658728fd-ae51-49b8-a0ba-3bdbde2d9d97",
        "meta": {
          "profile": [
            "http://hl7.eu/fhir/laboratory/StructureDefinition/Observation-resultslab-eu-lab"
          ]
        },
        "performer": [
          {
            "display": "The Central European Lab"
          }
        ],
        "category": [
          {
            "coding": [
              {
                "system": "http://terminology.hl7.org/CodeSystem/observation-category",
                "code": "laboratory"
              }
            ]
          }
        ],
        "code": {
          "coding": [
            {
              "code": "20505-4",
              "system": "http://loinc.org",
              "display": "Bilirubin.total [Mass/volume] in Urine by Test strip"
            }
          ],
          "text": "Bilirubin.total [Mass/volume] in Urine by Test strip"
        },
        "valueQuantity": {
          "system": "http://unitsofmeasure.org",
          "value": 0.5,
          "unit": "mg/dL",
          "code": "mg/dL"
        },
        "referenceRange": [
          {
            "low": {
              "value": 0.2,
              "code": "mg/dL",
              "system": "http://unitsofmeasure.org"
            }
          },
          {
            "high": {
              "value": 1,
              "code": "mg/dL",
              "system": "http://unitsofmeasure.org"
            }
          }
        ],
        "text": {
          "status": "generated",
          "div": "<div xmlns=\"http://www.w3.org/1999/xhtml\"><table class=\"hl7__eu__lab__report\"><tr><th>Test</th><th>28-Mar-2018</th><th>Reference&#xA0;Range</th><th>Unit</th></tr><tr><td>Bilirubin.total [Mass/volume] in Urine by Test strip</td><td>0.5</td><td>0.2 - 1</td><td></td><td>mg/dL</td></tr></table></div>"
        },
        "status": "final",
        "subject": {
          "reference": "urn:uuid:694a71b4-ed50-4277-9749-ae53e7b37dcd",
          "display": "Θεμιστοκλής Λιναρδάκη"
        },
        "effectiveDateTime": "2018-03-28T06:16:00Z",
        "specimen": {
          "reference": "urn:uuid:0a756db9-68c0-4abf-8778-acc0a703f289"
        }
      }
    },
    {
      "fullUrl": "urn:uuid:626fa285-969e-441c-91f7-75838d78fd66",
      "resource": {
        "resourceType": "Observation",
        "id": "626fa285-969e-441c-91f7-75838d78fd66",
        "meta": {
          "profile": [
            "http://hl7.eu/fhir/laboratory/StructureDefinition/Observation-resultslab-eu-lab"
          ]
        },
        "performer": [
          {
            "display": "The Central European Lab"
          }
        ],
        "category": [
          {
            "coding": [
              {
                "system": "http://terminology.hl7.org/CodeSystem/observation-category",
                "code": "laboratory"
              }
            ]
          }
        ],
        "code": {
          "coding": [
            {
              "code": "5770-3",
              "system": "http://loinc.org",
              "display": "Bilirubin.total [Presence] in Urine by Test strip"
            }
          ],
          "text": "Bilirubin.total [Presence] in Urine by Test strip"
        },
        "text": {
          "status": "generated",
          "div": "<div xmlns=\"http://www.w3.org/1999/xhtml\"><table class=\"hl7__eu__lab__report\"><tr><th>Test</th><th>28-Mar-2018</th><th>Reference&#xA0;Range</th><th>Unit</th></tr><tr><td>Bilirubin.total [Presence] in Urine by Test strip</td></tr></table></div>"
        },
        "status": "final",
        "subject": {
          "reference": "urn:uuid:694a71b4-ed50-4277-9749-ae53e7b37dcd",
          "display": "Θεμιστοκλής Λιναρδάκη"
        },
        "effectiveDateTime": "2018-03-28T06:16:00Z",
        "specimen": {
          "reference": "urn:uuid:0a756db9-68c0-4abf-8778-acc0a703f289"
        }
      }
    },
    {
      "fullUrl": "urn:uuid:f016e62e-7591-4f5a-bf27-82e7640d66ed",
      "resource": {
        "resourceType": "Observation",
        "id": "f016e62e-7591-4f5a-bf27-82e7640d66ed",
        "meta": {
          "profile": [
            "http://hl7.eu/fhir/laboratory/StructureDefinition/Observation-resultslab-eu-lab"
          ]
        },
        "performer": [
          {
            "display": "The Central European Lab"
          }
        ],
        "category": [
          {
            "coding": [
              {
                "system": "http://terminology.hl7.org/CodeSystem/observation-category",
                "code": "laboratory"
              }
            ]
          }
        ],
        "code": {
          "coding": [
            {
              "code": "5797-6",
              "system": "http://loinc.org",
              "display": "Ketones [Mass/volume] in Urine by Test strip"
            }
          ],
          "text": "Ketones [Mass/volume] in Urine by Test strip"
        },
        "valueQuantity": {
          "system": "http://unitsofmeasure.org",
          "value": 19.4,
          "unit": "mg/dL",
          "code": "mg/dL"
        },
        "referenceRange": [
          {
            "low": {
              "value": 0,
              "code": "mg/dL",
              "system": "http://unitsofmeasure.org"
            }
          },
          {
            "high": {
              "value": 5,
              "code": "mg/dL",
              "system": "http://unitsofmeasure.org"
            }
          }
        ],
        "interpretation": [
          {
            "coding": [
              {
                "code": "H",
                "system": "http://terminology.hl7.org/CodeSystem/v3-ObservationInterpretation",
                "display": "High"
              }
            ]
          }
        ],
        "text": {
          "status": "generated",
          "div": "<div xmlns=\"http://www.w3.org/1999/xhtml\"><table class=\"hl7__eu__lab__report\"><tr><th>Test</th><th>28-Mar-2018</th><th>Reference&#xA0;Range</th><th>Unit</th></tr><tr><td>Ketones [Mass/volume] in Urine by Test strip</td><td>19.4</td><td>0 - 5</td><td>H</td><td>mg/dL</td></tr></table></div>"
        },
        "status": "final",
        "subject": {
          "reference": "urn:uuid:694a71b4-ed50-4277-9749-ae53e7b37dcd",
          "display": "Θεμιστοκλής Λιναρδάκη"
        },
        "effectiveDateTime": "2018-03-28T06:16:00Z",
        "specimen": {
          "reference": "urn:uuid:0a756db9-68c0-4abf-8778-acc0a703f289"
        }
      }
    },
    {
      "fullUrl": "urn:uuid:e21c0186-0268-451a-9d41-5315ca1e1ebd",
      "resource": {
        "resourceType": "Observation",
        "id": "e21c0186-0268-451a-9d41-5315ca1e1ebd",
        "meta": {
          "profile": [
            "http://hl7.eu/fhir/laboratory/StructureDefinition/Observation-resultslab-eu-lab"
          ]
        },
        "performer": [
          {
            "display": "The Central European Lab"
          }
        ],
        "category": [
          {
            "coding": [
              {
                "system": "http://terminology.hl7.org/CodeSystem/observation-category",
                "code": "laboratory"
              }
            ]
          }
        ],
        "code": {
          "coding": [
            {
              "code": "2514-8",
              "system": "http://loinc.org",
              "display": "Ketones [Presence] in Urine by Test strip"
            }
          ],
          "text": "Ketones [Presence] in Urine by Test strip"
        },
        "text": {
          "status": "generated",
          "div": "<div xmlns=\"http://www.w3.org/1999/xhtml\"><table class=\"hl7__eu__lab__report\"><tr><th>Test</th><th>28-Mar-2018</th><th>Reference&#xA0;Range</th><th>Unit</th></tr><tr><td>Ketones [Presence] in Urine by Test strip</td></tr></table></div>"
        },
        "status": "final",
        "subject": {
          "reference": "urn:uuid:694a71b4-ed50-4277-9749-ae53e7b37dcd",
          "display": "Θεμιστοκλής Λιναρδάκη"
        },
        "effectiveDateTime": "2018-03-28T06:16:00Z",
        "specimen": {
          "reference": "urn:uuid:0a756db9-68c0-4abf-8778-acc0a703f289"
        }
      }
    },
    {
      "fullUrl": "urn:uuid:f4764656-80d4-4650-be83-278cfada3254",
      "resource": {
        "resourceType": "Observation",
        "id": "f4764656-80d4-4650-be83-278cfada3254",
        "meta": {
          "profile": [
            "http://hl7.eu/fhir/laboratory/StructureDefinition/Observation-resultslab-eu-lab"
          ]
        },
        "performer": [
          {
            "display": "The Central European Lab"
          }
        ],
        "category": [
          {
            "coding": [
              {
                "system": "http://terminology.hl7.org/CodeSystem/observation-category",
                "code": "laboratory"
              }
            ]
          }
        ],
        "code": {
          "coding": [
            {
              "code": "5811-5",
              "system": "http://loinc.org",
              "display": "Specific gravity of Urine by Test strip"
            }
          ],
          "text": "Specific gravity of Urine by Test strip"
        },
        "valueQuantity": {
          "system": "http://unitsofmeasure.org",
          "value": 1,
          "unit": "{nominal}",
          "code": "{nominal}"
        },
        "referenceRange": [
          {
            "low": {
              "value": 1.005,
              "code": "g/mL",
              "system": "http://unitsofmeasure.org"
            }
          },
          {
            "high": {
              "value": 1.03,
              "code": "g/mL",
              "system": "http://unitsofmeasure.org"
            }
          }
        ],
        "interpretation": [
          {
            "coding": [
              {
                "code": "L",
                "system": "http://terminology.hl7.org/CodeSystem/v3-ObservationInterpretation",
                "display": "Low"
              }
            ]
          }
        ],
        "text": {
          "status": "generated",
          "div": "<div xmlns=\"http://www.w3.org/1999/xhtml\"><table class=\"hl7__eu__lab__report\"><tr><th>Test</th><th>28-Mar-2018</th><th>Reference&#xA0;Range</th><th>Unit</th></tr><tr><td>Specific gravity of Urine by Test strip</td><td>1.0</td><td>1.005 - 1.03</td><td>L</td><td>{nominal}</td></tr></table></div>"
        },
        "status": "final",
        "subject": {
          "reference": "urn:uuid:694a71b4-ed50-4277-9749-ae53e7b37dcd",
          "display": "Θεμιστοκλής Λιναρδάκη"
        },
        "effectiveDateTime": "2018-03-28T06:16:00Z",
        "specimen": {
          "reference": "urn:uuid:0a756db9-68c0-4abf-8778-acc0a703f289"
        }
      }
    },
    {
      "fullUrl": "urn:uuid:91ec5f59-b782-4da6-837a-d5117be8b963",
      "resource": {
        "resourceType": "Observation",
        "id": "91ec5f59-b782-4da6-837a-d5117be8b963",
        "meta": {
          "profile": [
            "http://hl7.eu/fhir/laboratory/StructureDefinition/Observation-resultslab-eu-lab"
          ]
        },
        "performer": [
          {
            "display": "The Central European Lab"
          }
        ],
        "category": [
          {
            "coding": [
              {
                "system": "http://terminology.hl7.org/CodeSystem/observation-category",
                "code": "laboratory"
              }
            ]
          }
        ],
        "code": {
          "coding": [
            {
              "code": "5803-2",
              "system": "http://loinc.org",
              "display": "pH of Urine by Test strip"
            }
          ],
          "text": "pH of Urine by Test strip"
        },
        "valueQuantity": {
          "system": "http://unitsofmeasure.org",
          "value": 5.8,
          "unit": "pH",
          "code": "pH"
        },
        "referenceRange": [
          {
            "low": {
              "value": 4.6,
              "code": "pH",
              "system": "http://unitsofmeasure.org"
            }
          },
          {
            "high": {
              "value": 7,
              "code": "pH",
              "system": "http://unitsofmeasure.org"
            }
          }
        ],
        "text": {
          "status": "generated",
          "div": "<div xmlns=\"http://www.w3.org/1999/xhtml\"><table class=\"hl7__eu__lab__report\"><tr><th>Test</th><th>28-Mar-2018</th><th>Reference&#xA0;Range</th><th>Unit</th></tr><tr><td>pH of Urine by Test strip</td><td>5.8</td><td>4.6 - 7</td><td></td><td>pH</td></tr></table></div>"
        },
        "status": "final",
        "subject": {
          "reference": "urn:uuid:694a71b4-ed50-4277-9749-ae53e7b37dcd",
          "display": "Θεμιστοκλής Λιναρδάκη"
        },
        "effectiveDateTime": "2018-03-28T06:16:00Z",
        "specimen": {
          "reference": "urn:uuid:0a756db9-68c0-4abf-8778-acc0a703f289"
        }
      }
    },
    {
      "fullUrl": "urn:uuid:576db194-f9a8-4292-8f2b-ad762e028d7c",
      "resource": {
        "resourceType": "Observation",
        "id": "576db194-f9a8-4292-8f2b-ad762e028d7c",
        "meta": {
          "profile": [
            "http://hl7.eu/fhir/laboratory/StructureDefinition/Observation-resultslab-eu-lab"
          ]
        },
        "performer": [
          {
            "display": "The Central European Lab"
          }
        ],
        "category": [
          {
            "coding": [
              {
                "system": "http://terminology.hl7.org/CodeSystem/observation-category",
                "code": "laboratory"
              }
            ]
          }
        ],
        "code": {
          "coding": [
            {
              "code": "5804-0",
              "system": "http://loinc.org",
              "display": "Protein [Mass/volume] in Urine by Test strip"
            }
          ],
          "text": "Protein [Mass/volume] in Urine by Test strip"
        },
        "valueQuantity": {
          "system": "http://unitsofmeasure.org",
          "value": 315.8,
          "unit": "mg/dL",
          "code": "mg/dL"
        },
        "referenceRange": [
          {
            "low": {
              "value": 0,
              "code": "mg/dL",
              "system": "http://unitsofmeasure.org"
            }
          },
          {
            "high": {
              "value": 150,
              "code": "mg/dL",
              "system": "http://unitsofmeasure.org"
            }
          }
        ],
        "interpretation": [
          {
            "coding": [
              {
                "code": "H",
                "system": "http://terminology.hl7.org/CodeSystem/v3-ObservationInterpretation",
                "display": "High"
              }
            ]
          }
        ],
        "text": {
          "status": "generated",
          "div": "<div xmlns=\"http://www.w3.org/1999/xhtml\"><table class=\"hl7__eu__lab__report\"><tr><th>Test</th><th>28-Mar-2018</th><th>Reference&#xA0;Range</th><th>Unit</th></tr><tr><td>Protein [Mass/volume] in Urine by Test strip</td><td>315.8</td><td>0 - 150</td><td>H</td><td>mg/dL</td></tr></table></div>"
        },
        "status": "final",
        "subject": {
          "reference": "urn:uuid:694a71b4-ed50-4277-9749-ae53e7b37dcd",
          "display": "Θεμιστοκλής Λιναρδάκη"
        },
        "effectiveDateTime": "2018-03-28T06:16:00Z",
        "specimen": {
          "reference": "urn:uuid:0a756db9-68c0-4abf-8778-acc0a703f289"
        }
      }
    },
    {
      "fullUrl": "urn:uuid:4b5d3f46-5289-42aa-bf58-9152a584d29c",
      "resource": {
        "resourceType": "Observation",
        "id": "4b5d3f46-5289-42aa-bf58-9152a584d29c",
        "meta": {
          "profile": [
            "http://hl7.eu/fhir/laboratory/StructureDefinition/Observation-resultslab-eu-lab"
          ]
        },
        "performer": [
          {
            "display": "The Central European Lab"
          }
        ],
        "category": [
          {
            "coding": [
              {
                "system": "http://terminology.hl7.org/CodeSystem/observation-category",
                "code": "laboratory"
              }
            ]
          }
        ],
        "code": {
          "coding": [
            {
              "code": "20454-5",
              "system": "http://loinc.org",
              "display": "Protein [Presence] in Urine by Test strip"
            }
          ],
          "text": "Protein [Presence] in Urine by Test strip"
        },
        "text": {
          "status": "generated",
          "div": "<div xmlns=\"http://www.w3.org/1999/xhtml\"><table class=\"hl7__eu__lab__report\"><tr><th>Test</th><th>28-Mar-2018</th><th>Reference&#xA0;Range</th><th>Unit</th></tr><tr><td>Protein [Presence] in Urine by Test strip</td></tr></table></div>"
        },
        "status": "final",
        "subject": {
          "reference": "urn:uuid:694a71b4-ed50-4277-9749-ae53e7b37dcd",
          "display": "Θεμιστοκλής Λιναρδάκη"
        },
        "effectiveDateTime": "2018-03-28T06:16:00Z",
        "specimen": {
          "reference": "urn:uuid:0a756db9-68c0-4abf-8778-acc0a703f289"
        }
      }
    },
    {
      "fullUrl": "urn:uuid:6f15058a-1f4d-4797-914f-dfca375f80dc",
      "resource": {
        "resourceType": "Observation",
        "id": "6f15058a-1f4d-4797-914f-dfca375f80dc",
        "meta": {
          "profile": [
            "http://hl7.eu/fhir/laboratory/StructureDefinition/Observation-resultslab-eu-lab"
          ]
        },
        "performer": [
          {
            "display": "The Central European Lab"
          }
        ],
        "category": [
          {
            "coding": [
              {
                "system": "http://terminology.hl7.org/CodeSystem/observation-category",
                "code": "laboratory"
              }
            ]
          }
        ],
        "code": {
          "coding": [
            {
              "code": "5802-4",
              "system": "http://loinc.org",
              "display": "Nitrite [Presence] in Urine by Test strip"
            }
          ],
          "text": "Nitrite [Presence] in Urine by Test strip"
        },
        "text": {
          "status": "generated",
          "div": "<div xmlns=\"http://www.w3.org/1999/xhtml\"><table class=\"hl7__eu__lab__report\"><tr><th>Test</th><th>28-Mar-2018</th><th>Reference&#xA0;Range</th><th>Unit</th></tr><tr><td>Nitrite [Presence] in Urine by Test strip</td></tr></table></div>"
        },
        "status": "final",
        "subject": {
          "reference": "urn:uuid:694a71b4-ed50-4277-9749-ae53e7b37dcd",
          "display": "Θεμιστοκλής Λιναρδάκη"
        },
        "effectiveDateTime": "2018-03-28T06:16:00Z",
        "specimen": {
          "reference": "urn:uuid:0a756db9-68c0-4abf-8778-acc0a703f289"
        }
      }
    },
    {
      "fullUrl": "urn:uuid:4c291a62-a24f-40b1-9101-e6a620b80714",
      "resource": {
        "resourceType": "Observation",
        "id": "4c291a62-a24f-40b1-9101-e6a620b80714",
        "meta": {
          "profile": [
            "http://hl7.eu/fhir/laboratory/StructureDefinition/Observation-resultslab-eu-lab"
          ]
        },
        "performer": [
          {
            "display": "The Central European Lab"
          }
        ],
        "category": [
          {
            "coding": [
              {
                "system": "http://terminology.hl7.org/CodeSystem/observation-category",
                "code": "laboratory"
              }
            ]
          }
        ],
        "code": {
          "coding": [
            {
              "code": "5794-3",
              "system": "http://loinc.org",
              "display": "Hemoglobin [Presence] in Urine by Test strip"
            }
          ],
          "text": "Hemoglobin [Presence] in Urine by Test strip"
        },
        "text": {
          "status": "generated",
          "div": "<div xmlns=\"http://www.w3.org/1999/xhtml\"><table class=\"hl7__eu__lab__report\"><tr><th>Test</th><th>28-Mar-2018</th><th>Reference&#xA0;Range</th><th>Unit</th></tr><tr><td>Hemoglobin [Presence] in Urine by Test strip</td></tr></table></div>"
        },
        "status": "final",
        "subject": {
          "reference": "urn:uuid:694a71b4-ed50-4277-9749-ae53e7b37dcd",
          "display": "Θεμιστοκλής Λιναρδάκη"
        },
        "effectiveDateTime": "2018-03-28T06:16:00Z",
        "specimen": {
          "reference": "urn:uuid:0a756db9-68c0-4abf-8778-acc0a703f289"
        }
      }
    },
    {
      "fullUrl": "urn:uuid:f23d293a-9b12-4fc4-86b8-a90fa937e754",
      "resource": {
        "resourceType": "Observation",
        "id": "f23d293a-9b12-4fc4-86b8-a90fa937e754",
        "meta": {
          "profile": [
            "http://hl7.eu/fhir/laboratory/StructureDefinition/Observation-resultslab-eu-lab"
          ]
        },
        "performer": [
          {
            "display": "The Central European Lab"
          }
        ],
        "category": [
          {
            "coding": [
              {
                "system": "http://terminology.hl7.org/CodeSystem/observation-category",
                "code": "laboratory"
              }
            ]
          }
        ],
        "code": {
          "coding": [
            {
              "code": "5799-2",
              "system": "http://loinc.org",
              "display": "Leukocyte esterase [Presence] in Urine by Test strip"
            }
          ],
          "text": "Leukocyte esterase [Presence] in Urine by Test strip"
        },
        "text": {
          "status": "generated",
          "div": "<div xmlns=\"http://www.w3.org/1999/xhtml\"><table class=\"hl7__eu__lab__report\"><tr><th>Test</th><th>28-Mar-2018</th><th>Reference&#xA0;Range</th><th>Unit</th></tr><tr><td>Leukocyte esterase [Presence] in Urine by Test strip</td></tr></table></div>"
        },
        "status": "final",
        "subject": {
          "reference": "urn:uuid:694a71b4-ed50-4277-9749-ae53e7b37dcd",
          "display": "Θεμιστοκλής Λιναρδάκη"
        },
        "effectiveDateTime": "2018-03-28T06:16:00Z",
        "specimen": {
          "reference": "urn:uuid:0a756db9-68c0-4abf-8778-acc0a703f289"
        }
      }
    },
    {
      "fullUrl": "urn:uuid:64ea5086-ee7c-407d-ac9f-ef6c009a1419",
      "resource": {
        "resourceType": "Observation",
        "id": "64ea5086-ee7c-407d-ac9f-ef6c009a1419",
        "meta": {
          "profile": [
            "http://hl7.eu/fhir/laboratory/StructureDefinition/Observation-resultslab-eu-lab"
          ]
        },
        "performer": [
          {
            "display": "The Central European Lab"
          }
        ],
        "category": [
          {
            "coding": [
              {
                "system": "http://terminology.hl7.org/CodeSystem/observation-category",
                "code": "laboratory"
              }
            ]
          }
        ],
        "code": {
          "coding": [
            {
              "code": "4548-4",
              "system": "http://loinc.org",
              "display": "Hemoglobin A1c/Hemoglobin.total in Blood"
            }
          ],
          "text": "Hemoglobin A1c/Hemoglobin.total in Blood"
        },
        "valueQuantity": {
          "system": "http://unitsofmeasure.org",
          "value": 3,
          "unit": "%",
          "code": "%"
        },
        "referenceRange": [
          {
            "low": {
              "value": 4.3,
              "code": "%",
              "system": "http://unitsofmeasure.org"
            }
          },
          {
            "high": {
              "value": 6.4,
              "code": "%",
              "system": "http://unitsofmeasure.org"
            }
          }
        ],
        "interpretation": [
          {
            "coding": [
              {
                "code": "L",
                "system": "http://terminology.hl7.org/CodeSystem/v3-ObservationInterpretation",
                "display": "Low"
              }
            ]
          }
        ],
        "text": {
          "status": "generated",
          "div": "<div xmlns=\"http://www.w3.org/1999/xhtml\"><table class=\"hl7__eu__lab__report\"><tr><th>Test</th><th>28-Mar-2018</th><th>Reference&#xA0;Range</th><th>Unit</th></tr><tr><td>Hemoglobin A1c/Hemoglobin.total in Blood</td><td>3.0</td><td>4.3 - 6.4</td><td>L</td><td>%</td></tr></table></div>"
        },
        "status": "final",
        "subject": {
          "reference": "urn:uuid:694a71b4-ed50-4277-9749-ae53e7b37dcd",
          "display": "Θεμιστοκλής Λιναρδάκη"
        },
        "effectiveDateTime": "2018-03-28T06:16:00Z",
        "specimen": {
          "reference": "urn:uuid:5a7f193a-b8b4-437b-bf63-3a0fb3586401"
        }
      }
    },
    {
      "fullUrl": "urn:uuid:ad72a0ec-bffa-408c-874b-60c1e13d72a8",
      "resource": {
        "resourceType": "Observation",
        "id": "ad72a0ec-bffa-408c-874b-60c1e13d72a8",
        "meta": {
          "profile": [
            "http://hl7.eu/fhir/laboratory/StructureDefinition/Observation-resultslab-eu-lab"
          ]
        },
        "performer": [
          {
            "display": "The Central European Lab"
          }
        ],
        "category": [
          {
            "coding": [
              {
                "system": "http://terminology.hl7.org/CodeSystem/observation-category",
                "code": "laboratory"
              }
            ]
          }
        ],
        "code": {
          "coding": [
            {
              "code": "2339-0",
              "system": "http://loinc.org",
              "display": "Glucose [Mass/volume] in Blood"
            }
          ],
          "text": "Glucose [Mass/volume] in Blood"
        },
        "valueQuantity": {
          "system": "http://unitsofmeasure.org",
          "value": 85.1,
          "unit": "mg/dL",
          "code": "mg/dL"
        },
        "referenceRange": [
          {
            "low": {
              "value": 70,
              "code": "mg/dL",
              "system": "http://unitsofmeasure.org"
            }
          },
          {
            "high": {
              "value": 140,
              "code": "mg/dL",
              "system": "http://unitsofmeasure.org"
            }
          }
        ],
        "text": {
          "status": "generated",
          "div": "<div xmlns=\"http://www.w3.org/1999/xhtml\"><table class=\"hl7__eu__lab__report\"><tr><th>Test</th><th>28-Mar-2018</th><th>Reference&#xA0;Range</th><th>Unit</th></tr><tr><td>Glucose [Mass/volume] in Blood</td><td>85.1</td><td>70 - 140</td><td></td><td>mg/dL</td></tr></table></div>"
        },
        "status": "final",
        "subject": {
          "reference": "urn:uuid:694a71b4-ed50-4277-9749-ae53e7b37dcd",
          "display": "Θεμιστοκλής Λιναρδάκη"
        },
        "effectiveDateTime": "2018-03-28T06:16:00Z",
        "specimen": {
          "reference": "urn:uuid:5a7f193a-b8b4-437b-bf63-3a0fb3586401"
        }
      }
    },
    {
      "fullUrl": "urn:uuid:2d61f12d-bf39-428b-bcc4-9a69a07587dc",
      "resource": {
        "resourceType": "Observation",
        "id": "2d61f12d-bf39-428b-bcc4-9a69a07587dc",
        "meta": {
          "profile": [
            "http://hl7.eu/fhir/laboratory/StructureDefinition/Observation-resultslab-eu-lab"
          ]
        },
        "performer": [
          {
            "display": "The Central European Lab"
          }
        ],
        "category": [
          {
            "coding": [
              {
                "system": "http://terminology.hl7.org/CodeSystem/observation-category",
                "code": "laboratory"
              }
            ]
          }
        ],
        "code": {
          "coding": [
            {
              "code": "6299-2",
              "system": "http://loinc.org",
              "display": "Urea nitrogen [Mass/volume] in Blood"
            }
          ],
          "text": "Urea nitrogen [Mass/volume] in Blood"
        },
        "valueQuantity": {
          "system": "http://unitsofmeasure.org",
          "value": 10.3,
          "unit": "mg/dL",
          "code": "mg/dL"
        },
        "referenceRange": [
          {
            "low": {
              "value": 7,
              "code": "mg/dL",
              "system": "http://unitsofmeasure.org"
            }
          },
          {
            "high": {
              "value": 20,
              "code": "mg/dL",
              "system": "http://unitsofmeasure.org"
            }
          }
        ],
        "text": {
          "status": "generated",
          "div": "<div xmlns=\"http://www.w3.org/1999/xhtml\"><table class=\"hl7__eu__lab__report\"><tr><th>Test</th><th>28-Mar-2018</th><th>Reference&#xA0;Range</th><th>Unit</th></tr><tr><td>Urea nitrogen [Mass/volume] in Blood</td><td>10.3</td><td>7 - 20</td><td></td><td>mg/dL</td></tr></table></div>"
        },
        "status": "final",
        "subject": {
          "reference": "urn:uuid:694a71b4-ed50-4277-9749-ae53e7b37dcd",
          "display": "Θεμιστοκλής Λιναρδάκη"
        },
        "effectiveDateTime": "2018-03-28T06:16:00Z",
        "specimen": {
          "reference": "urn:uuid:5a7f193a-b8b4-437b-bf63-3a0fb3586401"
        }
      }
    },
    {
      "fullUrl": "urn:uuid:181eb283-0573-4016-81b7-c025f4714f39",
      "resource": {
        "resourceType": "Observation",
        "id": "181eb283-0573-4016-81b7-c025f4714f39",
        "meta": {
          "profile": [
            "http://hl7.eu/fhir/laboratory/StructureDefinition/Observation-resultslab-eu-lab"
          ]
        },
        "performer": [
          {
            "display": "The Central European Lab"
          }
        ],
        "category": [
          {
            "coding": [
              {
                "system": "http://terminology.hl7.org/CodeSystem/observation-category",
                "code": "laboratory"
              }
            ]
          }
        ],
        "code": {
          "coding": [
            {
              "code": "38483-4",
              "system": "http://loinc.org",
              "display": "Creatinine [Mass/volume] in Blood"
            }
          ],
          "text": "Creatinine [Mass/volume] in Blood"
        },
        "valueQuantity": {
          "system": "http://unitsofmeasure.org",
          "value": 6.3,
          "unit": "mg/dL",
          "code": "mg/dL"
        },
        "referenceRange": [
          {
            "low": {
              "value": 0.6,
              "code": "mg/dL",
              "system": "http://unitsofmeasure.org"
            }
          },
          {
            "high": {
              "value": 1.3,
              "code": "mg/dL",
              "system": "http://unitsofmeasure.org"
            }
          }
        ],
        "interpretation": [
          {
            "coding": [
              {
                "code": "H",
                "system": "http://terminology.hl7.org/CodeSystem/v3-ObservationInterpretation",
                "display": "High"
              }
            ]
          }
        ],
        "text": {
          "status": "generated",
          "div": "<div xmlns=\"http://www.w3.org/1999/xhtml\"><table class=\"hl7__eu__lab__report\"><tr><th>Test</th><th>28-Mar-2018</th><th>Reference&#xA0;Range</th><th>Unit</th></tr><tr><td>Creatinine [Mass/volume] in Blood</td><td>6.3</td><td>0.6 - 1.3</td><td>H</td><td>mg/dL</td></tr></table></div>"
        },
        "status": "final",
        "subject": {
          "reference": "urn:uuid:694a71b4-ed50-4277-9749-ae53e7b37dcd",
          "display": "Θεμιστοκλής Λιναρδάκη"
        },
        "effectiveDateTime": "2018-03-28T06:16:00Z",
        "specimen": {
          "reference": "urn:uuid:5a7f193a-b8b4-437b-bf63-3a0fb3586401"
        }
      }
    },
    {
      "fullUrl": "urn:uuid:d9efac94-23d2-4ebd-8c34-f26ea00ccee7",
      "resource": {
        "resourceType": "Observation",
        "id": "d9efac94-23d2-4ebd-8c34-f26ea00ccee7",
        "meta": {
          "profile": [
            "http://hl7.eu/fhir/laboratory/StructureDefinition/Observation-resultslab-eu-lab"
          ]
        },
        "performer": [
          {
            "display": "The Central European Lab"
          }
        ],
        "category": [
          {
            "coding": [
              {
                "system": "http://terminology.hl7.org/CodeSystem/observation-category",
                "code": "laboratory"
              }
            ]
          }
        ],
        "code": {
          "coding": [
            {
              "code": "49765-1",
              "system": "http://loinc.org",
              "display": "Calcium [Mass/volume] in Blood"
            }
          ],
          "text": "Calcium [Mass/volume] in Blood"
        },
        "valueQuantity": {
          "system": "http://unitsofmeasure.org",
          "value": 10.2,
          "unit": "mg/dL",
          "code": "mg/dL"
        },
        "referenceRange": [
          {
            "low": {
              "value": 8.5,
              "code": "mg/dL",
              "system": "http://unitsofmeasure.org"
            }
          },
          {
            "high": {
              "value": 10.5,
              "code": "mg/dL",
              "system": "http://unitsofmeasure.org"
            }
          }
        ],
        "text": {
          "status": "generated",
          "div": "<div xmlns=\"http://www.w3.org/1999/xhtml\"><table class=\"hl7__eu__lab__report\"><tr><th>Test</th><th>28-Mar-2018</th><th>Reference&#xA0;Range</th><th>Unit</th></tr><tr><td>Calcium [Mass/volume] in Blood</td><td>10.2</td><td>8.5 - 10.5</td><td></td><td>mg/dL</td></tr></table></div>"
        },
        "status": "final",
        "subject": {
          "reference": "urn:uuid:694a71b4-ed50-4277-9749-ae53e7b37dcd",
          "display": "Θεμιστοκλής Λιναρδάκη"
        },
        "effectiveDateTime": "2018-03-28T06:16:00Z",
        "specimen": {
          "reference": "urn:uuid:5a7f193a-b8b4-437b-bf63-3a0fb3586401"
        }
      }
    },
    {
      "fullUrl": "urn:uuid:c5abc9ff-4110-485c-b77b-cb874bb7d824",
      "resource": {
        "resourceType": "Observation",
        "id": "c5abc9ff-4110-485c-b77b-cb874bb7d824",
        "meta": {
          "profile": [
            "http://hl7.eu/fhir/laboratory/StructureDefinition/Observation-resultslab-eu-lab"
          ]
        },
        "performer": [
          {
            "display": "The Central European Lab"
          }
        ],
        "category": [
          {
            "coding": [
              {
                "system": "http://terminology.hl7.org/CodeSystem/observation-category",
                "code": "laboratory"
              }
            ]
          }
        ],
        "code": {
          "coding": [
            {
              "code": "2947-0",
              "system": "http://loinc.org",
              "display": "Sodium [Moles/volume] in Blood"
            }
          ],
          "text": "Sodium [Moles/volume] in Blood"
        },
        "valueQuantity": {
          "system": "http://unitsofmeasure.org",
          "value": 140.9,
          "unit": "mmol/L",
          "code": "mmol/L"
        },
        "referenceRange": [
          {
            "low": {
              "value": 135,
              "code": "mmol/L",
              "system": "http://unitsofmeasure.org"
            }
          },
          {
            "high": {
              "value": 145,
              "code": "mmol/L",
              "system": "http://unitsofmeasure.org"
            }
          }
        ],
        "text": {
          "status": "generated",
          "div": "<div xmlns=\"http://www.w3.org/1999/xhtml\"><table class=\"hl7__eu__lab__report\"><tr><th>Test</th><th>28-Mar-2018</th><th>Reference&#xA0;Range</th><th>Unit</th></tr><tr><td>Sodium [Moles/volume] in Blood</td><td>140.9</td><td>135 - 145</td><td></td><td>mmol/L</td></tr></table></div>"
        },
        "status": "final",
        "subject": {
          "reference": "urn:uuid:694a71b4-ed50-4277-9749-ae53e7b37dcd",
          "display": "Θεμιστοκλής Λιναρδάκη"
        },
        "effectiveDateTime": "2018-03-28T06:16:00Z",
        "specimen": {
          "reference": "urn:uuid:5a7f193a-b8b4-437b-bf63-3a0fb3586401"
        }
      }
    },
    {
      "fullUrl": "urn:uuid:a7d9e7ec-12e8-4ab8-8b7e-347f2dad5f70",
      "resource": {
        "resourceType": "Observation",
        "id": "a7d9e7ec-12e8-4ab8-8b7e-347f2dad5f70",
        "meta": {
          "profile": [
            "http://hl7.eu/fhir/laboratory/StructureDefinition/Observation-resultslab-eu-lab"
          ]
        },
        "performer": [
          {
            "display": "The Central European Lab"
          }
        ],
        "category": [
          {
            "coding": [
              {
                "system": "http://terminology.hl7.org/CodeSystem/observation-category",
                "code": "laboratory"
              }
            ]
          }
        ],
        "code": {
          "coding": [
            {
              "code": "6298-4",
              "system": "http://loinc.org",
              "display": "Potassium [Moles/volume] in Blood"
            }
          ],
          "text": "Potassium [Moles/volume] in Blood"
        },
        "valueQuantity": {
          "system": "http://unitsofmeasure.org",
          "value": 4.2,
          "unit": "mmol/L",
          "code": "mmol/L"
        },
        "referenceRange": [
          {
            "low": {
              "value": 3.5,
              "code": "mmol/L",
              "system": "http://unitsofmeasure.org"
            }
          },
          {
            "high": {
              "value": 5.3,
              "code": "mmol/L",
              "system": "http://unitsofmeasure.org"
            }
          }
        ],
        "text": {
          "status": "generated",
          "div": "<div xmlns=\"http://www.w3.org/1999/xhtml\"><table class=\"hl7__eu__lab__report\"><tr><th>Test</th><th>28-Mar-2018</th><th>Reference&#xA0;Range</th><th>Unit</th></tr><tr><td>Potassium [Moles/volume] in Blood</td><td>4.2</td><td>3.5 - 5.3</td><td></td><td>mmol/L</td></tr></table></div>"
        },
        "status": "final",
        "subject": {
          "reference": "urn:uuid:694a71b4-ed50-4277-9749-ae53e7b37dcd",
          "display": "Θεμιστοκλής Λιναρδάκη"
        },
        "effectiveDateTime": "2018-03-28T06:16:00Z",
        "specimen": {
          "reference": "urn:uuid:5a7f193a-b8b4-437b-bf63-3a0fb3586401"
        }
      }
    },
    {
      "fullUrl": "urn:uuid:17a26a56-3afd-4fd8-82e7-cb605d56a509",
      "resource": {
        "resourceType": "Observation",
        "id": "17a26a56-3afd-4fd8-82e7-cb605d56a509",
        "meta": {
          "profile": [
            "http://hl7.eu/fhir/laboratory/StructureDefinition/Observation-resultslab-eu-lab"
          ]
        },
        "performer": [
          {
            "display": "The Central European Lab"
          }
        ],
        "category": [
          {
            "coding": [
              {
                "system": "http://terminology.hl7.org/CodeSystem/observation-category",
                "code": "laboratory"
              }
            ]
          }
        ],
        "code": {
          "coding": [
            {
              "code": "2069-3",
              "system": "http://loinc.org",
              "display": "Chloride [Moles/volume] in Blood"
            }
          ],
          "text": "Chloride [Moles/volume] in Blood"
        },
        "valueQuantity": {
          "system": "http://unitsofmeasure.org",
          "value": 104.2,
          "unit": "mmol/L",
          "code": "mmol/L"
        },
        "referenceRange": [
          {
            "low": {
              "value": 98,
              "code": "mmol/L",
              "system": "http://unitsofmeasure.org"
            }
          },
          {
            "high": {
              "value": 110,
              "code": "mmol/L",
              "system": "http://unitsofmeasure.org"
            }
          }
        ],
        "text": {
          "status": "generated",
          "div": "<div xmlns=\"http://www.w3.org/1999/xhtml\"><table class=\"hl7__eu__lab__report\"><tr><th>Test</th><th>28-Mar-2018</th><th>Reference&#xA0;Range</th><th>Unit</th></tr><tr><td>Chloride [Moles/volume] in Blood</td><td>104.2</td><td>98 - 110</td><td></td><td>mmol/L</td></tr></table></div>"
        },
        "status": "final",
        "subject": {
          "reference": "urn:uuid:694a71b4-ed50-4277-9749-ae53e7b37dcd",
          "display": "Θεμιστοκλής Λιναρδάκη"
        },
        "effectiveDateTime": "2018-03-28T06:16:00Z",
        "specimen": {
          "reference": "urn:uuid:5a7f193a-b8b4-437b-bf63-3a0fb3586401"
        }
      }
    },
    {
      "fullUrl": "urn:uuid:07b82d05-7489-41e6-bee8-079ace9730c1",
      "resource": {
        "resourceType": "Observation",
        "id": "07b82d05-7489-41e6-bee8-079ace9730c1",
        "meta": {
          "profile": [
            "http://hl7.eu/fhir/laboratory/StructureDefinition/Observation-resultslab-eu-lab"
          ]
        },
        "performer": [
          {
            "display": "The Central European Lab"
          }
        ],
        "category": [
          {
            "coding": [
              {
                "system": "http://terminology.hl7.org/CodeSystem/observation-category",
                "code": "laboratory"
              }
            ]
          }
        ],
        "code": {
          "coding": [
            {
              "code": "20565-8",
              "system": "http://loinc.org",
              "display": "Carbon dioxide, total [Moles/volume] in Blood"
            }
          ],
          "text": "Carbon dioxide, total [Moles/volume] in Blood"
        },
        "valueQuantity": {
          "system": "http://unitsofmeasure.org",
          "value": 25.9,
          "unit": "mmol/L",
          "code": "mmol/L"
        },
        "referenceRange": [
          {
            "low": {
              "value": 22,
              "code": "mmol/L",
              "system": "http://unitsofmeasure.org"
            }
          },
          {
            "high": {
              "value": 29,
              "code": "mmol/L",
              "system": "http://unitsofmeasure.org"
            }
          }
        ],
        "text": {
          "status": "generated",
          "div": "<div xmlns=\"http://www.w3.org/1999/xhtml\"><table class=\"hl7__eu__lab__report\"><tr><th>Test</th><th>28-Mar-2018</th><th>Reference&#xA0;Range</th><th>Unit</th></tr><tr><td>Carbon dioxide, total [Moles/volume] in Blood</td><td>25.9</td><td>22 - 29</td><td></td><td>mmol/L</td></tr></table></div>"
        },
        "status": "final",
        "subject": {
          "reference": "urn:uuid:694a71b4-ed50-4277-9749-ae53e7b37dcd",
          "display": "Θεμιστοκλής Λιναρδάκη"
        },
        "effectiveDateTime": "2018-03-28T06:16:00Z",
        "specimen": {
          "reference": "urn:uuid:5a7f193a-b8b4-437b-bf63-3a0fb3586401"
        }
      }
    },
    {
      "fullUrl": "urn:uuid:bce8b1ed-1f55-42bc-b48d-08cea1122853",
      "resource": {
        "resourceType": "Device",
        "id": "bce8b1ed-1f55-42bc-b48d-08cea1122853",
        "deviceName": [
          {
            "name": "SYNDERAI Synthetic Generator",
            "type": "manufacturer-name"
          }
        ],
        "version": [
          {
            "value": "5.0"
          }
        ],
        "text": {
          "status": "generated",
          "div": "<div xmlns=\"http://www.w3.org/1999/xhtml\">SYNDERAI Synthetic Generator v5.0</div>"
        },
        "status": "active\"",
        "distinctIdentifier": "synderai-generator-50",
        "manufacturer": "SYNDERAI Project"
      }
    },
    {
      "fullUrl": "urn:uuid:27050b03-2d3c-4887-8142-423a954de96e",
      "resource": {
        "resourceType": "Provenance",
        "id": "27050b03-2d3c-4887-8142-423a954de96e",
        "target": [
          {
            "reference": "Patient/694a71b4-ed50-4277-9749-ae53e7b37dcd"
          },
          {
            "reference": "Bundle/2c75bb5a-8047-4023-931e-77cdd5ef4a47"
          },
          {
            "reference": "Composition/734917ef-656e-40a7-8c14-11dce8b9fcc7"
          },
          {
            "reference": "PractitionerRole/1b15ec1f-2db3-4130-be10-e56031549110"
          },
          {
            "reference": "Practitioner/3f432b44-0eea-4bb1-9278-e3f03791b518"
          },
          {
            "reference": "PractitionerRole/dad8416e-2ed9-43eb-b449-f5f07630cf77"
          },
          {
            "reference": "Organization/7ca19f76-a31a-4f2c-87da-dd5f2859a2bc"
          }
        ],
        "activity": {
          "text": "Synthetic Example Data Generation"
        },
        "policy": [
          "https://synderai.net/synderai-synthetic-data-policy"
        ],
        "agent": [
          {
            "type": {
              "text": "author"
            },
            "who": {
              "reference": "Device/bce8b1ed-1f55-42bc-b48d-08cea1122853"
            }
          }
        ],
        "reason": [
          {
            "text": "Interoperability Testing and Training (non-clinical use)"
          }
        ],
        "text": {
          "status": "generated",
          "div": "<div xmlns=\"http://www.w3.org/1999/xhtml\">Provenance for SYNDERAI Synthetic Example Data Resource</div>"
        },
        "recorded": "2018-03-28T08:16:00Z"
      }
    },
    {
      "fullUrl": "urn:uuid:1b15ec1f-2db3-4130-be10-e56031549110",
      "resource": {
        "resourceType": "PractitionerRole",
        "id": "1b15ec1f-2db3-4130-be10-e56031549110",
        "meta": {
          "profile": [
            "http://hl7.eu/fhir/base/StructureDefinition/practitionerRole-eu"
          ]
        },
        "text": {
          "status": "generated",
          "div": "<div xmlns=\"http://www.w3.org/1999/xhtml\">Laboratory Role Id: 1b15ec1f-2db3-4130-be10-e56031549110</div>"
        },
        "practitioner": {
          "reference": "urn:uuid:3f432b44-0eea-4bb1-9278-e3f03791b518"
        }
      }
    },
    {
      "fullUrl": "urn:uuid:3f432b44-0eea-4bb1-9278-e3f03791b518",
      "resource": {
        "resourceType": "Practitioner",
        "id": "3f432b44-0eea-4bb1-9278-e3f03791b518",
        "meta": {
          "profile": [
            "http://hl7.eu/fhir/base/StructureDefinition/practitioner-eu"
          ]
        },
        "identifier": [
          {
            "assigner": {
              "display": "HL7 Europe"
            },
            "system": "urn:oid:2.16.840.1.113883.2.51.999",
            "value": "5b122ba3-058e-4b19-a2d5-43b0bf1fba7d"
          }
        ],
        "name": [
          {
            "prefix": [
              "dr"
            ],
            "given": [
              "Ex"
            ],
            "family": "Ample"
          }
        ],
        "address": [
          {
            "line": [
              "Laboratoire Central Européenne",
              "Boulevard du Jardin Botanique 32"
            ],
            "postalCode": "1000",
            "city": "Brussels",
            "country": "Belgium"
          }
        ],
        "text": {
          "status": "generated",
          "div": "<div xmlns=\"http://www.w3.org/1999/xhtml\">Laboratory: Laboratoire Central Européenne, 1000 Brussels, Belgium</div>"
        }
      }
    }
  ],
  "type": "document",
  "timestamp": "2018-03-28T08:16:00Z"
}
