{
  "resourceType": "Bundle",
  "id": "144cd2e9-bdfb-49d6-b10a-d4daff3a76a7",
  "meta": {
    "profile": [
      "http://hl7.eu/fhir/laboratory/StructureDefinition/Bundle-eu-lab"
    ]
  },
  "identifier": {
    "assigner": {
      "display": "HL7 Europe"
    },
    "system": "urn:oid:2.16.840.1.113883.2.51.999",
    "value": "ee47f64b-c5d7-4dc5-a89b-e240784e27d2"
  },
  "entry": [
    {
      "fullUrl": "urn:uuid:2833f080-c4c6-40e9-852c-cc5cbebcde29",
      "resource": {
        "resourceType": "Composition",
        "id": "2833f080-c4c6-40e9-852c-cc5cbebcde29",
        "meta": {
          "profile": [
            "http://hl7.eu/fhir/laboratory/StructureDefinition/Composition-eu-lab"
          ]
        },
        "identifier": {
          "assigner": {
            "display": "HL7 Europe"
          },
          "system": "urn:oid:2.16.840.1.113883.2.51.999",
          "value": "f9a2fa29-e6e8-49c8-be16-9bdacf7706d4"
        },
        "author": [
          {
            "reference": "urn:uuid:b8bb5bd5-a8e5-445e-b42a-6b4438dea3c6"
          }
        ],
        "category": [
          {
            "coding": [
              {
                "code": "26436-6",
                "system": "http://loinc.org",
                "display": "Laboratory studies (set)"
              }
            ]
          }
        ],
        "type": {
          "coding": [
            {
              "code": "11502-2",
              "system": "http://loinc.org",
              "display": "Laboratory report"
            }
          ],
          "text": "Laboratory Report"
        },
        "section": [
          {
            "code": {
              "coding": [
                {
                  "code": "26436-6",
                  "system": "http://loinc.org",
                  "display": "Laboratory studies (set)"
                }
              ],
              "text": "Laboratory studies"
            },
            "section": [
              {
                "code": {
                  "coding": [
                    {
                      "code": "$18719-5",
                      "system": "http://loinc.org",
                      "display": "Chemistry studies (set)"
                    }
                  ],
                  "text": "Chemistry"
                },
                "entry": [
                  {
                    "reference": "urn:uuid:8ec48609-335f-43e0-9d23-c82ab2b27c38"
                  },
                  {
                    "reference": "urn:uuid:8b72c164-8af8-41ae-a7af-3f94ea79ee0d"
                  },
                  {
                    "reference": "urn:uuid:34c95904-b4ef-4cd1-ac48-f03ee98d74a3"
                  },
                  {
                    "reference": "urn:uuid:bc8b1b33-2477-4f59-92fc-c8bbcb49b923"
                  },
                  {
                    "reference": "urn:uuid:b3ce7064-fcc1-4718-b3e5-54fc954de6ab"
                  },
                  {
                    "reference": "urn:uuid:ef7afa82-f4e2-4343-a336-53105327a56e"
                  },
                  {
                    "reference": "urn:uuid:118ec218-a31b-4359-b5a5-723397cee291"
                  },
                  {
                    "reference": "urn:uuid:a35f47db-c87f-4423-ab47-e8e8973b7de1"
                  },
                  {
                    "reference": "urn:uuid:8d7abce2-62a8-481d-9902-56ff4fdd063e"
                  }
                ],
                "text": {
                  "status": "generated",
                  "div": "<div xmlns=\"http://www.w3.org/1999/xhtml\"><h3>Chemistry</h3><table class=\"hl7__eu__lab__report\"><thead><tr><th>Test</th><th>08-JUN-2022</th><th>Reference&#xA0;Range</th><th>Unit</th></tr></thead><tbody><tr><td>Hemoglobin A1c/Hemoglobin.total in Blood</td><td><strong>6.2 H</strong></td><td>3.8 - 5.7</td><td>%</td></tr><tr><td>Glucose [Mass/volume] in Blood</td><td>75.5</td><td>70 - 140</td><td>mg/dL</td></tr><tr><td>Urea nitrogen [Mass/volume] in Blood</td><td>14.8</td><td>7 - 20</td><td>mg/dL</td></tr><tr><td>Creatinine [Mass/volume] in Blood</td><td><strong>0.7 L</strong></td><td>0.9 - 1.3</td><td>mg/dL</td></tr><tr><td>Calcium [Mass/volume] in Blood</td><td>9.5</td><td>8.5 - 10.5</td><td>mg/dL</td></tr><tr><td>Sodium [Moles/volume] in Blood</td><td>142.4</td><td>135 - 145</td><td>mmol/L</td></tr><tr><td>Potassium [Moles/volume] in Blood</td><td>4.6</td><td>3.5 - 5.3</td><td>mmol/L</td></tr><tr><td>Chloride [Moles/volume] in Blood</td><td>105.1</td><td>98 - 109</td><td>mmol/L</td></tr><tr><td>Carbon dioxide, total [Moles/volume] in Blood</td><td>27.8</td><td>22 - 32</td><td>mmol/L</td></tr></tbody></table></div>"
                },
                "title": "Chemistry"
              }
            ],
            "title": "Laboratory Report"
          },
          {
            "text": {
              "status": "generated",
              "div": "<div xmlns=\"http://www.w3.org/1999/xhtml\"><h3>Annotation</h3><table class=\"hl7__eu__lab__report\"><tr><th>Conclusion and Recommendations based on this report and previous findings known to us</th></tr><tr><td>The patient shows mildly elevated HbA1c, indicating suboptimal long-term glucose control and possible prediabetes or diabetes. All other parameters, including renal function, electrolytes, and calcium, are within normal limits except for slightly low creatinine, which may reflect reduced muscle mass in elderly patients and is not clinically concerning. No acute laboratory abnormalities detected.</td></tr></table></div>"
            },
            "code": {
              "coding": [
                {
                  "system": "http://loinc.org",
                  "code": "48767-8",
                  "display": "Annotation comment"
                }
              ]
            },
            "title": "Annotation comment"
          }
        ],
        "status": "final",
        "subject": {
          "reference": "urn:uuid:8006a95a-5fc3-4987-ba63-54ff5135bf80",
          "display": "Lazăr Florea"
        },
        "date": "2022-06-08T15:56:29Z",
        "title": "Laboratory Report",
        "confidentiality": "N"
      }
    },
    {
      "fullUrl": "urn:uuid:6a9e6b4c-4fb4-45d2-a24f-01fff1cd358e",
      "resource": {
        "resourceType": "DiagnosticReport",
        "id": "6a9e6b4c-4fb4-45d2-a24f-01fff1cd358e",
        "meta": {
          "profile": [
            "http://hl7.eu/fhir/laboratory/StructureDefinition/DiagnosticReport-eu-lab"
          ]
        },
        "identifier": [
          {
            "assigner": {
              "display": "HL7 Europe"
            },
            "system": "urn:oid:2.16.840.1.113883.2.51.999",
            "value": "599b7aae-7b64-4806-899a-d241603d870f"
          }
        ],
        "extension": [
          {
            "url": "http://hl7.org/fhir/5.0/StructureDefinition/extension-DiagnosticReport.composition",
            "valueReference": {
              "reference": "urn:uuid:f9a2fa29-e6e8-49c8-be16-9bdacf7706d4"
            }
          }
        ],
        "category": [
          {
            "coding": [
              {
                "code": "26436-6",
                "system": "http://loinc.org",
                "display": "Laboratory studies (set)"
              }
            ]
          }
        ],
        "specimen": [
          {
            "reference": "urn:uuid:59908f15-0527-4705-913f-7b2b93e721f1"
          }
        ],
        "result": [
          {
            "reference": "urn:uuid:8ec48609-335f-43e0-9d23-c82ab2b27c38"
          },
          {
            "reference": "urn:uuid:8b72c164-8af8-41ae-a7af-3f94ea79ee0d"
          },
          {
            "reference": "urn:uuid:34c95904-b4ef-4cd1-ac48-f03ee98d74a3"
          },
          {
            "reference": "urn:uuid:bc8b1b33-2477-4f59-92fc-c8bbcb49b923"
          },
          {
            "reference": "urn:uuid:b3ce7064-fcc1-4718-b3e5-54fc954de6ab"
          },
          {
            "reference": "urn:uuid:ef7afa82-f4e2-4343-a336-53105327a56e"
          },
          {
            "reference": "urn:uuid:118ec218-a31b-4359-b5a5-723397cee291"
          },
          {
            "reference": "urn:uuid:a35f47db-c87f-4423-ab47-e8e8973b7de1"
          },
          {
            "reference": "urn:uuid:8d7abce2-62a8-481d-9902-56ff4fdd063e"
          }
        ],
        "status": "registered",
        "code": {
          "coding": [
            {
              "code": "11502-2",
              "system": "http://loinc.org",
              "display": "Laboratory report"
            }
          ]
        },
        "subject": {
          "reference": "urn:uuid:8006a95a-5fc3-4987-ba63-54ff5135bf80",
          "display": "Lazăr Florea"
        }
      }
    },
    {
      "fullUrl": "urn:uuid:8006a95a-5fc3-4987-ba63-54ff5135bf80",
      "resource": {
        "resourceType": "Patient",
        "id": "8006a95a-5fc3-4987-ba63-54ff5135bf80",
        "meta": {
          "security": [
            {
              "system": "http://terminology.hl7.org/CodeSystem/v3-ActReason",
              "code": "HTEST"
            },
            {
              "system": "http://terminology.hl7.org/CodeSystem/v3-ActReason",
              "code": "TRAIN"
            }
          ],
          "tag": [
            {
              "system": "https://synderai.net/fhir/CodeSystem/tags",
              "code": "synthetic",
              "display": "SYNDERAI Synthetic data"
            }
          ],
          "profile": [
            "http://hl7.eu/fhir/base/StructureDefinition/patient-eu-core"
          ]
        },
        "identifier": [
          {
            "type": {
              "coding": [
                {
                  "code": "PT",
                  "system": "http://terminology.hl7.org/CodeSystem/v2-0203"
                }
              ]
            },
            "system": "http://ec.europa.eu/identifier/eci",
            "value": "8693-862290-8"
          },
          {
            "type": {
              "coding": [
                {
                  "code": "MR",
                  "system": "http://terminology.hl7.org/CodeSystem/v2-0203"
                }
              ]
            },
            "system": "http://local.setting.eu/identifier",
            "value": "602fbbf5-967b-6d86-a533-5cec24b13e71"
          }
        ],
        "name": [
          {
            "family": "Florea"
          },
          {
            "given": [
              "Lazăr"
            ]
          },
          {
            "text": "Lazăr Florea"
          }
        ],
        "address": [
          {
            "line": [
              "Drumul Grațian Nistor"
            ],
            "use": "home",
            "type": "physical",
            "postalCode": "265300",
            "city": "Lupeni",
            "country": "Romania"
          }
        ],
        "telecom": [
          {
            "system": "phone",
            "value": "0753 950 380"
          }
        ],
        "extension": [
          {
            "url": "http://hl7.org/fhir/StructureDefinition/patient-nationality",
            "valueCodeableConcept": {
              "coding": [
                {
                  "code": "RO",
                  "system": "http://hl7.org/fhir/ValueSet/country"
                }
              ]
            }
          }
        ],
        "text": {
          "status": "generated",
          "div": "<div xmlns=\"http://www.w3.org/1999/xhtml\"><table class=\"hl7__ips\"><tr><td>Lazăr Florea</td><td>male</td><td>10-Feb-1946</td></tr></table></div>"
        },
        "gender": "male",
        "birthDate": "1946-02-10"
      }
    },
    {
      "fullUrl": "urn:uuid:5a88bb1b-5ec2-4224-942a-e4b7c85734a0",
      "resource": {
        "resourceType": "ServiceRequest",
        "id": "5a88bb1b-5ec2-4224-942a-e4b7c85734a0",
        "meta": {
          "profile": [
            "http://hl7.eu/fhir/laboratory/StructureDefinition/ServiceRequest-eu-lab"
          ]
        },
        "identifier": [
          {
            "system": "http://example.org",
            "value": "8ab1eb7b-2e17-4b91-8500-cad0b31665e7"
          }
        ],
        "specimen": [
          {
            "reference": "urn:uuid:59908f15-0527-4705-913f-7b2b93e721f1"
          }
        ],
        "reasonCode": [
          {
            "coding": [
              {
                "code": "197927001",
                "system": "http://snomed.info/sct",
                "display": "Recurrent urinary tract infection"
              }
            ]
          },
          {
            "coding": [
              {
                "code": "414545008",
                "system": "http://snomed.info/sct",
                "display": "Ischemic heart disease"
              }
            ]
          },
          {
            "coding": [
              {
                "code": "237602007",
                "system": "http://snomed.info/sct",
                "display": "Metabolic syndrome X"
              }
            ]
          },
          {
            "coding": [
              {
                "code": "271737000",
                "system": "http://snomed.info/sct",
                "display": "Anemia"
              }
            ]
          },
          {
            "coding": [
              {
                "code": "15777000",
                "system": "http://snomed.info/sct",
                "display": "Prediabetes"
              }
            ]
          },
          {
            "coding": [
              {
                "code": "59621000",
                "system": "http://snomed.info/sct",
                "display": "Essential hypertension"
              }
            ]
          },
          {
            "coding": [
              {
                "code": "40055000",
                "system": "http://snomed.info/sct",
                "display": "Chronic sinusitis"
              }
            ]
          }
        ],
        "status": "active",
        "intent": "order",
        "code": {
          "coding": [
            {
              "code": "108252007",
              "system": "http://snomed.info/sct",
              "display": "Laboratory procedure"
            }
          ]
        },
        "subject": {
          "reference": "urn:uuid:8006a95a-5fc3-4987-ba63-54ff5135bf80",
          "display": "Lazăr Florea"
        },
        "requester": {
          "reference": "urn:uuid:a2f85b05-737e-4b85-a9f3-d3694ef9f1a6"
        }
      }
    },
    {
      "fullUrl": "urn:uuid:a2f85b05-737e-4b85-a9f3-d3694ef9f1a6",
      "resource": {
        "resourceType": "PractitionerRole",
        "id": "a2f85b05-737e-4b85-a9f3-d3694ef9f1a6",
        "meta": {
          "profile": [
            "http://hl7.eu/fhir/base/StructureDefinition/practitionerRole-eu"
          ]
        },
        "text": {
          "status": "generated",
          "div": "<div xmlns=\"http://www.w3.org/1999/xhtml\">Provider Role Id: a2f85b05-737e-4b85-a9f3-d3694ef9f1a6</div>"
        },
        "organization": {
          "reference": "urn:uuid:7993d601-81c6-48ab-a30c-15383c22de04"
        }
      }
    },
    {
      "fullUrl": "urn:uuid:7993d601-81c6-48ab-a30c-15383c22de04",
      "resource": {
        "resourceType": "Organization",
        "id": "7993d601-81c6-48ab-a30c-15383c22de04",
        "meta": {
          "profile": [
            "http://hl7.eu/fhir/base/StructureDefinition/organization-eu"
          ]
        },
        "identifier": [
          {
            "assigner": {
              "display": "HL7 Europe"
            },
            "system": "urn:oid:2.16.840.1.113883.2.51.999",
            "value": "0490433b-0363-4c6b-b455-54076adbc72f"
          }
        ],
        "address": [
          {
            "line": [
              "Strada 1 Decembrie 1918 137 A"
            ],
            "city": "Petroșani",
            "postalCode": "332019",
            "country": "Romania"
          }
        ],
        "text": {
          "status": "generated",
          "div": "<div xmlns=\"http://www.w3.org/1999/xhtml\">Provider Organization: Spitalul de Urgență</div>"
        },
        "name": "Spitalul de Urgență"
      }
    },
    {
      "fullUrl": "urn:uuid:59908f15-0527-4705-913f-7b2b93e721f1",
      "resource": {
        "resourceType": "Specimen",
        "id": "59908f15-0527-4705-913f-7b2b93e721f1",
        "meta": {
          "profile": [
            "http://hl7.eu/fhir/laboratory/StructureDefinition/Specimen-eu-lab"
          ]
        },
        "collection": {
          "collectedDateTime": "2022-06-08"
        },
        "text": {
          "status": "generated",
          "div": "<div xmlns=\"http://www.w3.org/1999/xhtml\"><table class=\"hl7__eu__lab__report\"><tr><th>Specimen</th><th>Collection Date</th></tr><tr><td>Whole blood specimen (specimen)</td><td><span class=\"nb\">08-Jun-2022</span></td></tr></table></div>"
        },
        "type": {
          "coding": [
            {
              "code": "258580003",
              "system": "http://snomed.info/sct",
              "display": "Whole blood specimen (specimen)"
            }
          ]
        }
      }
    },
    {
      "fullUrl": "urn:uuid:8ec48609-335f-43e0-9d23-c82ab2b27c38",
      "resource": {
        "resourceType": "Observation",
        "id": "8ec48609-335f-43e0-9d23-c82ab2b27c38",
        "meta": {
          "profile": [
            "http://hl7.eu/fhir/laboratory/StructureDefinition/Observation-resultslab-eu-lab"
          ]
        },
        "performer": [
          {
            "display": "The Central European Lab"
          }
        ],
        "category": [
          {
            "coding": [
              {
                "system": "http://terminology.hl7.org/CodeSystem/observation-category",
                "code": "laboratory"
              }
            ]
          }
        ],
        "code": {
          "coding": [
            {
              "code": "4548-4",
              "system": "http://loinc.org",
              "display": "Hemoglobin A1c/Hemoglobin.total in Blood"
            }
          ],
          "text": "Hemoglobin A1c/Hemoglobin.total in Blood"
        },
        "valueQuantity": {
          "system": "http://unitsofmeasure.org",
          "value": 6.2,
          "unit": "%",
          "code": "%"
        },
        "referenceRange": [
          {
            "low": {
              "value": 3.8,
              "code": "%",
              "system": "http://unitsofmeasure.org"
            }
          },
          {
            "high": {
              "value": 5.7,
              "code": "%",
              "system": "http://unitsofmeasure.org"
            }
          }
        ],
        "interpretation": [
          {
            "coding": [
              {
                "code": "H",
                "system": "http://terminology.hl7.org/CodeSystem/v3-ObservationInterpretation",
                "display": "High"
              }
            ]
          }
        ],
        "text": {
          "status": "generated",
          "div": "<div xmlns=\"http://www.w3.org/1999/xhtml\"><table class=\"hl7__eu__lab__report\"><tr><th>Test</th><th>08-Jun-2022</th><th>Reference&#xA0;Range</th><th>Unit</th></tr><tr><td>Hemoglobin A1c/Hemoglobin.total in Blood</td><td>6.2</td><td>3.8 - 5.7</td><td>H</td><td>%</td></tr></table></div>"
        },
        "status": "final",
        "subject": {
          "reference": "urn:uuid:8006a95a-5fc3-4987-ba63-54ff5135bf80",
          "display": "Lazăr Florea"
        },
        "effectiveDateTime": "2022-06-08T13:56:29Z",
        "specimen": {
          "reference": "urn:uuid:59908f15-0527-4705-913f-7b2b93e721f1"
        }
      }
    },
    {
      "fullUrl": "urn:uuid:8b72c164-8af8-41ae-a7af-3f94ea79ee0d",
      "resource": {
        "resourceType": "Observation",
        "id": "8b72c164-8af8-41ae-a7af-3f94ea79ee0d",
        "meta": {
          "profile": [
            "http://hl7.eu/fhir/laboratory/StructureDefinition/Observation-resultslab-eu-lab"
          ]
        },
        "performer": [
          {
            "display": "The Central European Lab"
          }
        ],
        "category": [
          {
            "coding": [
              {
                "system": "http://terminology.hl7.org/CodeSystem/observation-category",
                "code": "laboratory"
              }
            ]
          }
        ],
        "code": {
          "coding": [
            {
              "code": "2339-0",
              "system": "http://loinc.org",
              "display": "Glucose [Mass/volume] in Blood"
            }
          ],
          "text": "Glucose [Mass/volume] in Blood"
        },
        "valueQuantity": {
          "system": "http://unitsofmeasure.org",
          "value": 75.5,
          "unit": "mg/dL",
          "code": "mg/dL"
        },
        "referenceRange": [
          {
            "low": {
              "value": 70,
              "code": "mg/dL",
              "system": "http://unitsofmeasure.org"
            }
          },
          {
            "high": {
              "value": 140,
              "code": "mg/dL",
              "system": "http://unitsofmeasure.org"
            }
          }
        ],
        "text": {
          "status": "generated",
          "div": "<div xmlns=\"http://www.w3.org/1999/xhtml\"><table class=\"hl7__eu__lab__report\"><tr><th>Test</th><th>08-Jun-2022</th><th>Reference&#xA0;Range</th><th>Unit</th></tr><tr><td>Glucose [Mass/volume] in Blood</td><td>75.5</td><td>70 - 140</td><td></td><td>mg/dL</td></tr></table></div>"
        },
        "status": "final",
        "subject": {
          "reference": "urn:uuid:8006a95a-5fc3-4987-ba63-54ff5135bf80",
          "display": "Lazăr Florea"
        },
        "effectiveDateTime": "2022-06-08T13:56:29Z",
        "specimen": {
          "reference": "urn:uuid:59908f15-0527-4705-913f-7b2b93e721f1"
        }
      }
    },
    {
      "fullUrl": "urn:uuid:34c95904-b4ef-4cd1-ac48-f03ee98d74a3",
      "resource": {
        "resourceType": "Observation",
        "id": "34c95904-b4ef-4cd1-ac48-f03ee98d74a3",
        "meta": {
          "profile": [
            "http://hl7.eu/fhir/laboratory/StructureDefinition/Observation-resultslab-eu-lab"
          ]
        },
        "performer": [
          {
            "display": "The Central European Lab"
          }
        ],
        "category": [
          {
            "coding": [
              {
                "system": "http://terminology.hl7.org/CodeSystem/observation-category",
                "code": "laboratory"
              }
            ]
          }
        ],
        "code": {
          "coding": [
            {
              "code": "6299-2",
              "system": "http://loinc.org",
              "display": "Urea nitrogen [Mass/volume] in Blood"
            }
          ],
          "text": "Urea nitrogen [Mass/volume] in Blood"
        },
        "valueQuantity": {
          "system": "http://unitsofmeasure.org",
          "value": 14.8,
          "unit": "mg/dL",
          "code": "mg/dL"
        },
        "referenceRange": [
          {
            "low": {
              "value": 7,
              "code": "mg/dL",
              "system": "http://unitsofmeasure.org"
            }
          },
          {
            "high": {
              "value": 20,
              "code": "mg/dL",
              "system": "http://unitsofmeasure.org"
            }
          }
        ],
        "text": {
          "status": "generated",
          "div": "<div xmlns=\"http://www.w3.org/1999/xhtml\"><table class=\"hl7__eu__lab__report\"><tr><th>Test</th><th>08-Jun-2022</th><th>Reference&#xA0;Range</th><th>Unit</th></tr><tr><td>Urea nitrogen [Mass/volume] in Blood</td><td>14.8</td><td>7 - 20</td><td></td><td>mg/dL</td></tr></table></div>"
        },
        "status": "final",
        "subject": {
          "reference": "urn:uuid:8006a95a-5fc3-4987-ba63-54ff5135bf80",
          "display": "Lazăr Florea"
        },
        "effectiveDateTime": "2022-06-08T13:56:29Z",
        "specimen": {
          "reference": "urn:uuid:59908f15-0527-4705-913f-7b2b93e721f1"
        }
      }
    },
    {
      "fullUrl": "urn:uuid:bc8b1b33-2477-4f59-92fc-c8bbcb49b923",
      "resource": {
        "resourceType": "Observation",
        "id": "bc8b1b33-2477-4f59-92fc-c8bbcb49b923",
        "meta": {
          "profile": [
            "http://hl7.eu/fhir/laboratory/StructureDefinition/Observation-resultslab-eu-lab"
          ]
        },
        "performer": [
          {
            "display": "The Central European Lab"
          }
        ],
        "category": [
          {
            "coding": [
              {
                "system": "http://terminology.hl7.org/CodeSystem/observation-category",
                "code": "laboratory"
              }
            ]
          }
        ],
        "code": {
          "coding": [
            {
              "code": "38483-4",
              "system": "http://loinc.org",
              "display": "Creatinine [Mass/volume] in Blood"
            }
          ],
          "text": "Creatinine [Mass/volume] in Blood"
        },
        "valueQuantity": {
          "system": "http://unitsofmeasure.org",
          "value": 0.7,
          "unit": "mg/dL",
          "code": "mg/dL"
        },
        "referenceRange": [
          {
            "low": {
              "value": 0.9,
              "code": "mg/dL",
              "system": "http://unitsofmeasure.org"
            }
          },
          {
            "high": {
              "value": 1.3,
              "code": "mg/dL",
              "system": "http://unitsofmeasure.org"
            }
          }
        ],
        "interpretation": [
          {
            "coding": [
              {
                "code": "L",
                "system": "http://terminology.hl7.org/CodeSystem/v3-ObservationInterpretation",
                "display": "Low"
              }
            ]
          }
        ],
        "text": {
          "status": "generated",
          "div": "<div xmlns=\"http://www.w3.org/1999/xhtml\"><table class=\"hl7__eu__lab__report\"><tr><th>Test</th><th>08-Jun-2022</th><th>Reference&#xA0;Range</th><th>Unit</th></tr><tr><td>Creatinine [Mass/volume] in Blood</td><td>0.7</td><td>0.9 - 1.3</td><td>L</td><td>mg/dL</td></tr></table></div>"
        },
        "status": "final",
        "subject": {
          "reference": "urn:uuid:8006a95a-5fc3-4987-ba63-54ff5135bf80",
          "display": "Lazăr Florea"
        },
        "effectiveDateTime": "2022-06-08T13:56:29Z",
        "specimen": {
          "reference": "urn:uuid:59908f15-0527-4705-913f-7b2b93e721f1"
        }
      }
    },
    {
      "fullUrl": "urn:uuid:b3ce7064-fcc1-4718-b3e5-54fc954de6ab",
      "resource": {
        "resourceType": "Observation",
        "id": "b3ce7064-fcc1-4718-b3e5-54fc954de6ab",
        "meta": {
          "profile": [
            "http://hl7.eu/fhir/laboratory/StructureDefinition/Observation-resultslab-eu-lab"
          ]
        },
        "performer": [
          {
            "display": "The Central European Lab"
          }
        ],
        "category": [
          {
            "coding": [
              {
                "system": "http://terminology.hl7.org/CodeSystem/observation-category",
                "code": "laboratory"
              }
            ]
          }
        ],
        "code": {
          "coding": [
            {
              "code": "49765-1",
              "system": "http://loinc.org",
              "display": "Calcium [Mass/volume] in Blood"
            }
          ],
          "text": "Calcium [Mass/volume] in Blood"
        },
        "valueQuantity": {
          "system": "http://unitsofmeasure.org",
          "value": 9.5,
          "unit": "mg/dL",
          "code": "mg/dL"
        },
        "referenceRange": [
          {
            "low": {
              "value": 8.5,
              "code": "mg/dL",
              "system": "http://unitsofmeasure.org"
            }
          },
          {
            "high": {
              "value": 10.5,
              "code": "mg/dL",
              "system": "http://unitsofmeasure.org"
            }
          }
        ],
        "text": {
          "status": "generated",
          "div": "<div xmlns=\"http://www.w3.org/1999/xhtml\"><table class=\"hl7__eu__lab__report\"><tr><th>Test</th><th>08-Jun-2022</th><th>Reference&#xA0;Range</th><th>Unit</th></tr><tr><td>Calcium [Mass/volume] in Blood</td><td>9.5</td><td>8.5 - 10.5</td><td></td><td>mg/dL</td></tr></table></div>"
        },
        "status": "final",
        "subject": {
          "reference": "urn:uuid:8006a95a-5fc3-4987-ba63-54ff5135bf80",
          "display": "Lazăr Florea"
        },
        "effectiveDateTime": "2022-06-08T13:56:29Z",
        "specimen": {
          "reference": "urn:uuid:59908f15-0527-4705-913f-7b2b93e721f1"
        }
      }
    },
    {
      "fullUrl": "urn:uuid:ef7afa82-f4e2-4343-a336-53105327a56e",
      "resource": {
        "resourceType": "Observation",
        "id": "ef7afa82-f4e2-4343-a336-53105327a56e",
        "meta": {
          "profile": [
            "http://hl7.eu/fhir/laboratory/StructureDefinition/Observation-resultslab-eu-lab"
          ]
        },
        "performer": [
          {
            "display": "The Central European Lab"
          }
        ],
        "category": [
          {
            "coding": [
              {
                "system": "http://terminology.hl7.org/CodeSystem/observation-category",
                "code": "laboratory"
              }
            ]
          }
        ],
        "code": {
          "coding": [
            {
              "code": "2947-0",
              "system": "http://loinc.org",
              "display": "Sodium [Moles/volume] in Blood"
            }
          ],
          "text": "Sodium [Moles/volume] in Blood"
        },
        "valueQuantity": {
          "system": "http://unitsofmeasure.org",
          "value": 142.4,
          "unit": "mmol/L",
          "code": "mmol/L"
        },
        "referenceRange": [
          {
            "low": {
              "value": 135,
              "code": "mmol/L",
              "system": "http://unitsofmeasure.org"
            }
          },
          {
            "high": {
              "value": 145,
              "code": "mmol/L",
              "system": "http://unitsofmeasure.org"
            }
          }
        ],
        "text": {
          "status": "generated",
          "div": "<div xmlns=\"http://www.w3.org/1999/xhtml\"><table class=\"hl7__eu__lab__report\"><tr><th>Test</th><th>08-Jun-2022</th><th>Reference&#xA0;Range</th><th>Unit</th></tr><tr><td>Sodium [Moles/volume] in Blood</td><td>142.4</td><td>135 - 145</td><td></td><td>mmol/L</td></tr></table></div>"
        },
        "status": "final",
        "subject": {
          "reference": "urn:uuid:8006a95a-5fc3-4987-ba63-54ff5135bf80",
          "display": "Lazăr Florea"
        },
        "effectiveDateTime": "2022-06-08T13:56:29Z",
        "specimen": {
          "reference": "urn:uuid:59908f15-0527-4705-913f-7b2b93e721f1"
        }
      }
    },
    {
      "fullUrl": "urn:uuid:118ec218-a31b-4359-b5a5-723397cee291",
      "resource": {
        "resourceType": "Observation",
        "id": "118ec218-a31b-4359-b5a5-723397cee291",
        "meta": {
          "profile": [
            "http://hl7.eu/fhir/laboratory/StructureDefinition/Observation-resultslab-eu-lab"
          ]
        },
        "performer": [
          {
            "display": "The Central European Lab"
          }
        ],
        "category": [
          {
            "coding": [
              {
                "system": "http://terminology.hl7.org/CodeSystem/observation-category",
                "code": "laboratory"
              }
            ]
          }
        ],
        "code": {
          "coding": [
            {
              "code": "6298-4",
              "system": "http://loinc.org",
              "display": "Potassium [Moles/volume] in Blood"
            }
          ],
          "text": "Potassium [Moles/volume] in Blood"
        },
        "valueQuantity": {
          "system": "http://unitsofmeasure.org",
          "value": 4.6,
          "unit": "mmol/L",
          "code": "mmol/L"
        },
        "referenceRange": [
          {
            "low": {
              "value": 3.5,
              "code": "mmol/L",
              "system": "http://unitsofmeasure.org"
            }
          },
          {
            "high": {
              "value": 5.3,
              "code": "mmol/L",
              "system": "http://unitsofmeasure.org"
            }
          }
        ],
        "text": {
          "status": "generated",
          "div": "<div xmlns=\"http://www.w3.org/1999/xhtml\"><table class=\"hl7__eu__lab__report\"><tr><th>Test</th><th>08-Jun-2022</th><th>Reference&#xA0;Range</th><th>Unit</th></tr><tr><td>Potassium [Moles/volume] in Blood</td><td>4.6</td><td>3.5 - 5.3</td><td></td><td>mmol/L</td></tr></table></div>"
        },
        "status": "final",
        "subject": {
          "reference": "urn:uuid:8006a95a-5fc3-4987-ba63-54ff5135bf80",
          "display": "Lazăr Florea"
        },
        "effectiveDateTime": "2022-06-08T13:56:29Z",
        "specimen": {
          "reference": "urn:uuid:59908f15-0527-4705-913f-7b2b93e721f1"
        }
      }
    },
    {
      "fullUrl": "urn:uuid:a35f47db-c87f-4423-ab47-e8e8973b7de1",
      "resource": {
        "resourceType": "Observation",
        "id": "a35f47db-c87f-4423-ab47-e8e8973b7de1",
        "meta": {
          "profile": [
            "http://hl7.eu/fhir/laboratory/StructureDefinition/Observation-resultslab-eu-lab"
          ]
        },
        "performer": [
          {
            "display": "The Central European Lab"
          }
        ],
        "category": [
          {
            "coding": [
              {
                "system": "http://terminology.hl7.org/CodeSystem/observation-category",
                "code": "laboratory"
              }
            ]
          }
        ],
        "code": {
          "coding": [
            {
              "code": "2069-3",
              "system": "http://loinc.org",
              "display": "Chloride [Moles/volume] in Blood"
            }
          ],
          "text": "Chloride [Moles/volume] in Blood"
        },
        "valueQuantity": {
          "system": "http://unitsofmeasure.org",
          "value": 105.1,
          "unit": "mmol/L",
          "code": "mmol/L"
        },
        "referenceRange": [
          {
            "low": {
              "value": 98,
              "code": "mmol/L",
              "system": "http://unitsofmeasure.org"
            }
          },
          {
            "high": {
              "value": 109,
              "code": "mmol/L",
              "system": "http://unitsofmeasure.org"
            }
          }
        ],
        "text": {
          "status": "generated",
          "div": "<div xmlns=\"http://www.w3.org/1999/xhtml\"><table class=\"hl7__eu__lab__report\"><tr><th>Test</th><th>08-Jun-2022</th><th>Reference&#xA0;Range</th><th>Unit</th></tr><tr><td>Chloride [Moles/volume] in Blood</td><td>105.1</td><td>98 - 109</td><td></td><td>mmol/L</td></tr></table></div>"
        },
        "status": "final",
        "subject": {
          "reference": "urn:uuid:8006a95a-5fc3-4987-ba63-54ff5135bf80",
          "display": "Lazăr Florea"
        },
        "effectiveDateTime": "2022-06-08T13:56:29Z",
        "specimen": {
          "reference": "urn:uuid:59908f15-0527-4705-913f-7b2b93e721f1"
        }
      }
    },
    {
      "fullUrl": "urn:uuid:8d7abce2-62a8-481d-9902-56ff4fdd063e",
      "resource": {
        "resourceType": "Observation",
        "id": "8d7abce2-62a8-481d-9902-56ff4fdd063e",
        "meta": {
          "profile": [
            "http://hl7.eu/fhir/laboratory/StructureDefinition/Observation-resultslab-eu-lab"
          ]
        },
        "performer": [
          {
            "display": "The Central European Lab"
          }
        ],
        "category": [
          {
            "coding": [
              {
                "system": "http://terminology.hl7.org/CodeSystem/observation-category",
                "code": "laboratory"
              }
            ]
          }
        ],
        "code": {
          "coding": [
            {
              "code": "20565-8",
              "system": "http://loinc.org",
              "display": "Carbon dioxide, total [Moles/volume] in Blood"
            }
          ],
          "text": "Carbon dioxide, total [Moles/volume] in Blood"
        },
        "valueQuantity": {
          "system": "http://unitsofmeasure.org",
          "value": 27.8,
          "unit": "mmol/L",
          "code": "mmol/L"
        },
        "referenceRange": [
          {
            "low": {
              "value": 22,
              "code": "mmol/L",
              "system": "http://unitsofmeasure.org"
            }
          },
          {
            "high": {
              "value": 32,
              "code": "mmol/L",
              "system": "http://unitsofmeasure.org"
            }
          }
        ],
        "text": {
          "status": "generated",
          "div": "<div xmlns=\"http://www.w3.org/1999/xhtml\"><table class=\"hl7__eu__lab__report\"><tr><th>Test</th><th>08-Jun-2022</th><th>Reference&#xA0;Range</th><th>Unit</th></tr><tr><td>Carbon dioxide, total [Moles/volume] in Blood</td><td>27.8</td><td>22 - 32</td><td></td><td>mmol/L</td></tr></table></div>"
        },
        "status": "final",
        "subject": {
          "reference": "urn:uuid:8006a95a-5fc3-4987-ba63-54ff5135bf80",
          "display": "Lazăr Florea"
        },
        "effectiveDateTime": "2022-06-08T13:56:29Z",
        "specimen": {
          "reference": "urn:uuid:59908f15-0527-4705-913f-7b2b93e721f1"
        }
      }
    },
    {
      "fullUrl": "urn:uuid:91dd43e7-1d24-4432-bb47-a72659d5e77b",
      "resource": {
        "resourceType": "Device",
        "id": "91dd43e7-1d24-4432-bb47-a72659d5e77b",
        "deviceName": [
          {
            "name": "SYNDERAI Synthetic Generator",
            "type": "manufacturer-name"
          }
        ],
        "version": [
          {
            "value": "5.0"
          }
        ],
        "text": {
          "status": "generated",
          "div": "<div xmlns=\"http://www.w3.org/1999/xhtml\">SYNDERAI Synthetic Generator v5.0</div>"
        },
        "status": "active\"",
        "distinctIdentifier": "synderai-generator-50",
        "manufacturer": "SYNDERAI Project"
      }
    },
    {
      "fullUrl": "urn:uuid:1dc04bb7-6241-436d-8218-85ad4ca789dd",
      "resource": {
        "resourceType": "Provenance",
        "id": "1dc04bb7-6241-436d-8218-85ad4ca789dd",
        "target": [
          {
            "reference": "Patient/8006a95a-5fc3-4987-ba63-54ff5135bf80"
          },
          {
            "reference": "Bundle/144cd2e9-bdfb-49d6-b10a-d4daff3a76a7"
          },
          {
            "reference": "Composition/2833f080-c4c6-40e9-852c-cc5cbebcde29"
          },
          {
            "reference": "PractitionerRole/b8bb5bd5-a8e5-445e-b42a-6b4438dea3c6"
          },
          {
            "reference": "Practitioner/0e07d24c-aade-443d-91ad-f2f4f92ee6e9"
          },
          {
            "reference": "PractitionerRole/a2f85b05-737e-4b85-a9f3-d3694ef9f1a6"
          },
          {
            "reference": "Organization/7993d601-81c6-48ab-a30c-15383c22de04"
          }
        ],
        "activity": {
          "text": "Synthetic Example Data Generation"
        },
        "policy": [
          "https://synderai.net/synderai-synthetic-data-policy"
        ],
        "agent": [
          {
            "type": {
              "text": "author"
            },
            "who": {
              "reference": "Device/91dd43e7-1d24-4432-bb47-a72659d5e77b"
            }
          }
        ],
        "reason": [
          {
            "text": "Interoperability Testing and Training (non-clinical use)"
          }
        ],
        "text": {
          "status": "generated",
          "div": "<div xmlns=\"http://www.w3.org/1999/xhtml\">Provenance for SYNDERAI Synthetic Example Data Resource</div>"
        },
        "recorded": "2022-06-08T15:56:29Z"
      }
    },
    {
      "fullUrl": "urn:uuid:b8bb5bd5-a8e5-445e-b42a-6b4438dea3c6",
      "resource": {
        "resourceType": "PractitionerRole",
        "id": "b8bb5bd5-a8e5-445e-b42a-6b4438dea3c6",
        "meta": {
          "profile": [
            "http://hl7.eu/fhir/base/StructureDefinition/practitionerRole-eu"
          ]
        },
        "text": {
          "status": "generated",
          "div": "<div xmlns=\"http://www.w3.org/1999/xhtml\">Laboratory Role Id: b8bb5bd5-a8e5-445e-b42a-6b4438dea3c6</div>"
        },
        "practitioner": {
          "reference": "urn:uuid:0e07d24c-aade-443d-91ad-f2f4f92ee6e9"
        }
      }
    },
    {
      "fullUrl": "urn:uuid:0e07d24c-aade-443d-91ad-f2f4f92ee6e9",
      "resource": {
        "resourceType": "Practitioner",
        "id": "0e07d24c-aade-443d-91ad-f2f4f92ee6e9",
        "meta": {
          "profile": [
            "http://hl7.eu/fhir/base/StructureDefinition/practitioner-eu"
          ]
        },
        "identifier": [
          {
            "assigner": {
              "display": "HL7 Europe"
            },
            "system": "urn:oid:2.16.840.1.113883.2.51.999",
            "value": "3c36493a-1327-4563-bdf3-759a9279428d"
          }
        ],
        "name": [
          {
            "prefix": [
              "dr"
            ],
            "given": [
              "Ex"
            ],
            "family": "Ample"
          }
        ],
        "address": [
          {
            "line": [
              "Laboratoire Central Européenne",
              "Boulevard du Jardin Botanique 32"
            ],
            "postalCode": "1000",
            "city": "Brussels",
            "country": "Belgium"
          }
        ],
        "text": {
          "status": "generated",
          "div": "<div xmlns=\"http://www.w3.org/1999/xhtml\">Laboratory: Laboratoire Central Européenne, 1000 Brussels, Belgium</div>"
        }
      }
    }
  ],
  "type": "document",
  "timestamp": "2022-06-08T15:56:29Z"
}
