{
  "resourceType": "Bundle",
  "id": "e52bfb59-3f6e-4bd9-bedc-4f5ba167fb34",
  "meta": {
    "profile": [
      "http://hl7.eu/fhir/laboratory/StructureDefinition/Bundle-eu-lab"
    ]
  },
  "identifier": {
    "assigner": {
      "display": "HL7 Europe"
    },
    "system": "urn:oid:2.16.840.1.113883.2.51.999",
    "value": "69039ba1-82c8-40d6-b8d4-5bfcbb6bc5d8"
  },
  "entry": [
    {
      "fullUrl": "urn:uuid:31a08cda-3c28-4252-b599-05a6e0683d77",
      "resource": {
        "resourceType": "Composition",
        "id": "31a08cda-3c28-4252-b599-05a6e0683d77",
        "meta": {
          "profile": [
            "http://hl7.eu/fhir/laboratory/StructureDefinition/Composition-eu-lab"
          ]
        },
        "identifier": {
          "assigner": {
            "display": "HL7 Europe"
          },
          "system": "urn:oid:2.16.840.1.113883.2.51.999",
          "value": "84fa142c-0704-4a6e-94c8-d2bb321aacd8"
        },
        "author": [
          {
            "reference": "urn:uuid:66d1647d-5aed-4d61-a589-7dcfa4b6a225"
          }
        ],
        "category": [
          {
            "coding": [
              {
                "code": "26436-6",
                "system": "http://loinc.org",
                "display": "Laboratory studies (set)"
              }
            ]
          }
        ],
        "type": {
          "coding": [
            {
              "code": "11502-2",
              "system": "http://loinc.org",
              "display": "Laboratory report"
            }
          ],
          "text": "Laboratory Report"
        },
        "section": [
          {
            "code": {
              "coding": [
                {
                  "code": "26436-6",
                  "system": "http://loinc.org",
                  "display": "Laboratory studies (set)"
                }
              ],
              "text": "Laboratory studies"
            },
            "section": [
              {
                "code": {
                  "coding": [
                    {
                      "code": "$18719-5",
                      "system": "http://loinc.org",
                      "display": "Chemistry studies (set)"
                    }
                  ],
                  "text": "Chemistry"
                },
                "entry": [
                  {
                    "reference": "urn:uuid:29619e21-c458-475e-b2df-b952ce4a8574"
                  },
                  {
                    "reference": "urn:uuid:bebe5beb-dd24-49b9-9a88-029cdefe6b1e"
                  },
                  {
                    "reference": "urn:uuid:971d5656-2a9e-49a9-8016-97474b2f03ba"
                  },
                  {
                    "reference": "urn:uuid:376f03f8-36c6-4523-a313-dabb999af78c"
                  },
                  {
                    "reference": "urn:uuid:9d40da78-0c20-48f6-a354-8ea0d25add3b"
                  },
                  {
                    "reference": "urn:uuid:9d8a3a95-f7be-47ee-a956-ef302514e0d4"
                  },
                  {
                    "reference": "urn:uuid:df13153e-b232-46d3-a323-07751479efdf"
                  },
                  {
                    "reference": "urn:uuid:47c5a27b-e45f-41cb-a4db-ab6ace3e1bde"
                  },
                  {
                    "reference": "urn:uuid:904209f2-f9d7-4a6f-b483-7d6915bd9704"
                  },
                  {
                    "reference": "urn:uuid:0984b569-3286-4b99-beeb-b3cc49389315"
                  },
                  {
                    "reference": "urn:uuid:9852fb3e-cb0c-4af5-ba83-1d6fb9da4542"
                  },
                  {
                    "reference": "urn:uuid:35cbae5d-7ff8-47fa-86e1-204d83cb501f"
                  },
                  {
                    "reference": "urn:uuid:fafd7c1e-2841-40c2-b0a1-d914f0ed8dad"
                  },
                  {
                    "reference": "urn:uuid:f12f842b-0420-4fa9-b651-c87441e8d8dc"
                  },
                  {
                    "reference": "urn:uuid:6511b07e-3945-4513-940a-ef1e35c4d625"
                  },
                  {
                    "reference": "urn:uuid:f754cb62-59c2-4953-a8c8-a86bf6ce2148"
                  },
                  {
                    "reference": "urn:uuid:dfff55cd-fe93-438c-b169-35ebec7c93c4"
                  },
                  {
                    "reference": "urn:uuid:e2c630f2-d428-4dbe-bc0e-89af39c92085"
                  }
                ],
                "text": {
                  "status": "generated",
                  "div": "<div xmlns=\"http://www.w3.org/1999/xhtml\"><h3>Chemistry</h3><table class=\"hl7__eu__lab__report\"><thead><tr><th>Test</th><th>25-OCT-2023</th><th>Reference&#xA0;Range</th><th>Unit</th></tr></thead><tbody><tr><td>Glucose [Mass/volume] in Serum or Plasma</td><td>80.1</td><td>70 - 140</td><td>mg/dL</td></tr><tr><td>Urea nitrogen [Mass/volume] in Serum or Plasma</td><td>10.0</td><td>7 - 20</td><td>mg/dL</td></tr><tr><td>Creatinine [Mass/volume] in Serum or Plasma</td><td><strong>1.9 H</strong></td><td>0.9 - 1.3</td><td>mg/dL</td></tr><tr><td>Calcium [Mass/volume] in Serum or Plasma</td><td>9.0</td><td>8.5 - 10.5</td><td>mg/dL</td></tr><tr><td>Sodium [Moles/volume] in Serum or Plasma</td><td>137.7</td><td>135 - 145</td><td>mmol/L</td></tr><tr><td>Potassium [Moles/volume] in Serum or Plasma</td><td>4.1</td><td>3.5 - 5</td><td>mmol/L</td></tr><tr><td>Chloride [Moles/volume] in Serum or Plasma</td><td>104.6</td><td>98 - 108</td><td>mmol/L</td></tr><tr><td>Carbon dioxide, total [Moles/volume] in Serum or Plasma</td><td>27.8</td><td>22 - 29</td><td>mmol/L</td></tr><tr><td>Ketones [Presence] in Urine by Test strip</td><td>Urine ketone test = ++</td><td></td><td></td></tr><tr><td>Hemoglobin A1c/Hemoglobin.total in Blood</td><td><strong>2.8 L</strong></td><td>4.3 - 6.4</td><td>%</td></tr><tr><td>Glucose [Mass/volume] in Blood</td><td>80.1</td><td>70 - 140</td><td>mg/dL</td></tr><tr><td>Urea nitrogen [Mass/volume] in Blood</td><td>10.0</td><td>7 - 20</td><td>mg/dL</td></tr><tr><td>Creatinine [Mass/volume] in Blood</td><td><strong>4.9 H</strong></td><td>0.6 - 1.3</td><td>mg/dL</td></tr><tr><td>Calcium [Mass/volume] in Blood</td><td>9.0</td><td>8.5 - 10.5</td><td>mg/dL</td></tr><tr><td>Sodium [Moles/volume] in Blood</td><td>137.7</td><td>135 - 145</td><td>mmol/L</td></tr><tr><td>Potassium [Moles/volume] in Blood</td><td>4.1</td><td>3.5 - 5.3</td><td>mmol/L</td></tr><tr><td>Chloride [Moles/volume] in Blood</td><td>104.6</td><td>98 - 110</td><td>mmol/L</td></tr><tr><td>Carbon dioxide, total [Moles/volume] in Blood</td><td>27.8</td><td>22 - 29</td><td>mmol/L</td></tr></tbody></table></div>"
                },
                "title": "Chemistry"
              },
              {
                "code": {
                  "coding": [
                    {
                      "code": "$18729-4",
                      "system": "http://loinc.org",
                      "display": "Urinalysis studies (set)"
                    }
                  ],
                  "text": "Urinalysis"
                },
                "entry": [
                  {
                    "reference": "urn:uuid:7d9c926e-7507-4796-b483-796ea8b389c7"
                  },
                  {
                    "reference": "urn:uuid:6ecd7034-9534-44e7-811b-651ae40ceeb3"
                  },
                  {
                    "reference": "urn:uuid:cd9c86de-ba4e-494a-8a84-a52fa16f772c"
                  },
                  {
                    "reference": "urn:uuid:23374483-b97b-4a9b-91b1-2571b73e0725"
                  },
                  {
                    "reference": "urn:uuid:330ad1c0-2ed5-46e8-8c9c-317c94c1ba8c"
                  },
                  {
                    "reference": "urn:uuid:f97978b0-e559-48cf-af8b-53d700c353e6"
                  },
                  {
                    "reference": "urn:uuid:e377bfcf-f2bf-471f-a9c1-460381653764"
                  },
                  {
                    "reference": "urn:uuid:74e3f695-f697-4e97-9277-77873e6751a4"
                  },
                  {
                    "reference": "urn:uuid:88f35fd9-134b-4371-b225-61b089b15c86"
                  },
                  {
                    "reference": "urn:uuid:e0ba8261-741c-44da-b579-bb759989e10e"
                  },
                  {
                    "reference": "urn:uuid:ea6dd1a8-0db9-411e-8cac-66e4b8e2ecce"
                  },
                  {
                    "reference": "urn:uuid:10b1ae9f-a390-46d6-9898-b80de4ed259a"
                  }
                ],
                "text": {
                  "status": "generated",
                  "div": "<div xmlns=\"http://www.w3.org/1999/xhtml\"><h3>Urinalysis</h3><table class=\"hl7__eu__lab__report\"><thead><tr><th>Test</th><th>25-OCT-2023</th><th>Reference&#xA0;Range</th><th>Unit</th></tr></thead><tbody><tr><td>Glucose [Mass/volume] in Urine by Test strip</td><td><strong>1.2 H</strong></td><td>0 - 0.8</td><td>mg/dL</td></tr><tr><td>Glucose [Presence] in Urine by Test strip</td><td>++</td><td></td><td></td></tr><tr><td>Bilirubin.total [Mass/volume] in Urine by Test strip</td><td>1.0</td><td>0.2 - 1</td><td>mg/dL</td></tr><tr><td>Bilirubin.total [Presence] in Urine by Test strip</td><td>Finding of bilirubin in urine</td><td></td><td></td></tr><tr><td>Ketones [Mass/volume] in Urine by Test strip</td><td>4.5</td><td>0 - 5</td><td>mg/dL</td></tr><tr><td>Specific gravity of Urine by Test strip</td><td><strong>1.0 L</strong></td><td>1.005 - 1.03</td><td>{nominal}</td></tr><tr><td>pH of Urine by Test strip</td><td>5.5</td><td>4.6 - 7</td><td>pH</td></tr><tr><td>Protein [Mass/volume] in Urine by Test strip</td><td><strong>243.9 H</strong></td><td>0 - 150</td><td>mg/dL</td></tr><tr><td>Protein [Presence] in Urine by Test strip</td><td>Urine protein test = ++</td><td></td><td></td></tr><tr><td>Nitrite [Presence] in Urine by Test strip</td><td>Urine nitrite negative</td><td></td><td></td></tr><tr><td>Hemoglobin [Presence] in Urine by Test strip</td><td>Urine blood test = negative</td><td></td><td></td></tr><tr><td>Leukocyte esterase [Presence] in Urine by Test strip</td><td>Urine leukocyte test negative</td><td></td><td></td></tr></tbody></table></div>"
                },
                "title": "Urinalysis"
              },
              {
                "code": {
                  "coding": [
                    {
                      "code": "$LP7846-1",
                      "system": "http://loinc.org",
                      "display": "Specimen information"
                    }
                  ],
                  "text": "Specimen information"
                },
                "entry": [
                  {
                    "reference": "urn:uuid:bbe637d7-f683-4e2f-b267-c6c5d64d1f8a"
                  },
                  {
                    "reference": "urn:uuid:657cf98f-9d6c-4e09-a403-c830f85e9c47"
                  },
                  {
                    "reference": "urn:uuid:d21109ff-8a4d-4033-b7a6-41174fa069d3"
                  },
                  {
                    "reference": "urn:uuid:51f69137-177a-4ed2-906f-28b1dd7f4193"
                  }
                ],
                "text": {
                  "status": "generated",
                  "div": "<div xmlns=\"http://www.w3.org/1999/xhtml\"><h3>Specimen information</h3><table class=\"hl7__eu__lab__report\"><thead><tr><th>Test</th><th>25-OCT-2023</th><th>Specimen</th><th></th></tr></thead><tbody><tr><td>Appearance of Urine</td><td>Cloudy urine</td><td>Urine</td><td></td></tr><tr><td>Odor of Urine</td><td>Urine smell ammoniacal</td><td>Urine</td><td></td></tr><tr><td>Clarity of Urine</td><td>Translucent</td><td>Urine</td><td></td></tr><tr><td>Color of Urine</td><td>Brown color</td><td>Urine</td><td></td></tr></tbody></table></div>"
                },
                "title": "Specimen information"
              }
            ],
            "title": "Laboratory Report"
          },
          {
            "text": {
              "status": "generated",
              "div": "<div xmlns=\"http://www.w3.org/1999/xhtml\"><h3>Annotation</h3><table class=\"hl7__eu__lab__report\"><tr><th>Conclusion and Recommendations based on this report and previous findings known to us</th></tr><tr><td>The patient shows markedly elevated creatinine in both serum and blood, indicating significant renal impairment. Urinalysis reveals proteinuria, glucosuria, ketonuria, low specific gravity, and abnormal urine appearance, suggesting possible nephrotic syndrome or acute/chronic kidney disease. Blood glucose is normal, but HbA1c is unexpectedly low, possibly due to anemia or hemoglobinopathy. No evidence of urinary tract infection. Immediate nephrology evaluation is recommended for further assessment and management.</td></tr></table></div>"
            },
            "code": {
              "coding": [
                {
                  "system": "http://loinc.org",
                  "code": "48767-8",
                  "display": "Annotation comment"
                }
              ]
            },
            "title": "Annotation comment"
          }
        ],
        "status": "final",
        "subject": {
          "reference": "urn:uuid:60b9b288-9040-4bea-86cb-a18373ee58c2",
          "display": "Θεμιστοκλής Λιναρδάκη"
        },
        "date": "2023-10-25T08:16:00Z",
        "title": "Laboratory Report",
        "confidentiality": "N"
      }
    },
    {
      "fullUrl": "urn:uuid:4b609413-1544-4d04-a65f-7c357ee0939b",
      "resource": {
        "resourceType": "DiagnosticReport",
        "id": "4b609413-1544-4d04-a65f-7c357ee0939b",
        "meta": {
          "profile": [
            "http://hl7.eu/fhir/laboratory/StructureDefinition/DiagnosticReport-eu-lab"
          ]
        },
        "identifier": [
          {
            "assigner": {
              "display": "HL7 Europe"
            },
            "system": "urn:oid:2.16.840.1.113883.2.51.999",
            "value": "0eb1c52e-ae35-44fe-bdac-0785ba7f2579"
          }
        ],
        "extension": [
          {
            "url": "http://hl7.org/fhir/5.0/StructureDefinition/extension-DiagnosticReport.composition",
            "valueReference": {
              "reference": "urn:uuid:84fa142c-0704-4a6e-94c8-d2bb321aacd8"
            }
          }
        ],
        "category": [
          {
            "coding": [
              {
                "code": "26436-6",
                "system": "http://loinc.org",
                "display": "Laboratory studies (set)"
              }
            ]
          }
        ],
        "specimen": [
          {
            "reference": "urn:uuid:d5a1746d-04e1-4f71-bf9c-27a72686ddcd"
          },
          {
            "reference": "urn:uuid:2ae9e4bd-1e00-4c6e-b79d-23ae1e95a208"
          },
          {
            "reference": "urn:uuid:fbed763c-10ee-4712-91ad-8a55e3a2c00f"
          }
        ],
        "result": [
          {
            "reference": "urn:uuid:29619e21-c458-475e-b2df-b952ce4a8574"
          },
          {
            "reference": "urn:uuid:bebe5beb-dd24-49b9-9a88-029cdefe6b1e"
          },
          {
            "reference": "urn:uuid:971d5656-2a9e-49a9-8016-97474b2f03ba"
          },
          {
            "reference": "urn:uuid:376f03f8-36c6-4523-a313-dabb999af78c"
          },
          {
            "reference": "urn:uuid:9d40da78-0c20-48f6-a354-8ea0d25add3b"
          },
          {
            "reference": "urn:uuid:9d8a3a95-f7be-47ee-a956-ef302514e0d4"
          },
          {
            "reference": "urn:uuid:df13153e-b232-46d3-a323-07751479efdf"
          },
          {
            "reference": "urn:uuid:47c5a27b-e45f-41cb-a4db-ab6ace3e1bde"
          },
          {
            "reference": "urn:uuid:bbe637d7-f683-4e2f-b267-c6c5d64d1f8a"
          },
          {
            "reference": "urn:uuid:657cf98f-9d6c-4e09-a403-c830f85e9c47"
          },
          {
            "reference": "urn:uuid:d21109ff-8a4d-4033-b7a6-41174fa069d3"
          },
          {
            "reference": "urn:uuid:51f69137-177a-4ed2-906f-28b1dd7f4193"
          },
          {
            "reference": "urn:uuid:7d9c926e-7507-4796-b483-796ea8b389c7"
          },
          {
            "reference": "urn:uuid:6ecd7034-9534-44e7-811b-651ae40ceeb3"
          },
          {
            "reference": "urn:uuid:cd9c86de-ba4e-494a-8a84-a52fa16f772c"
          },
          {
            "reference": "urn:uuid:23374483-b97b-4a9b-91b1-2571b73e0725"
          },
          {
            "reference": "urn:uuid:330ad1c0-2ed5-46e8-8c9c-317c94c1ba8c"
          },
          {
            "reference": "urn:uuid:904209f2-f9d7-4a6f-b483-7d6915bd9704"
          },
          {
            "reference": "urn:uuid:f97978b0-e559-48cf-af8b-53d700c353e6"
          },
          {
            "reference": "urn:uuid:e377bfcf-f2bf-471f-a9c1-460381653764"
          },
          {
            "reference": "urn:uuid:74e3f695-f697-4e97-9277-77873e6751a4"
          },
          {
            "reference": "urn:uuid:88f35fd9-134b-4371-b225-61b089b15c86"
          },
          {
            "reference": "urn:uuid:e0ba8261-741c-44da-b579-bb759989e10e"
          },
          {
            "reference": "urn:uuid:ea6dd1a8-0db9-411e-8cac-66e4b8e2ecce"
          },
          {
            "reference": "urn:uuid:10b1ae9f-a390-46d6-9898-b80de4ed259a"
          },
          {
            "reference": "urn:uuid:0984b569-3286-4b99-beeb-b3cc49389315"
          },
          {
            "reference": "urn:uuid:9852fb3e-cb0c-4af5-ba83-1d6fb9da4542"
          },
          {
            "reference": "urn:uuid:35cbae5d-7ff8-47fa-86e1-204d83cb501f"
          },
          {
            "reference": "urn:uuid:fafd7c1e-2841-40c2-b0a1-d914f0ed8dad"
          },
          {
            "reference": "urn:uuid:f12f842b-0420-4fa9-b651-c87441e8d8dc"
          },
          {
            "reference": "urn:uuid:6511b07e-3945-4513-940a-ef1e35c4d625"
          },
          {
            "reference": "urn:uuid:f754cb62-59c2-4953-a8c8-a86bf6ce2148"
          },
          {
            "reference": "urn:uuid:dfff55cd-fe93-438c-b169-35ebec7c93c4"
          },
          {
            "reference": "urn:uuid:e2c630f2-d428-4dbe-bc0e-89af39c92085"
          }
        ],
        "status": "registered",
        "code": {
          "coding": [
            {
              "code": "11502-2",
              "system": "http://loinc.org",
              "display": "Laboratory report"
            }
          ]
        },
        "subject": {
          "reference": "urn:uuid:60b9b288-9040-4bea-86cb-a18373ee58c2",
          "display": "Θεμιστοκλής Λιναρδάκη"
        }
      }
    },
    {
      "fullUrl": "urn:uuid:60b9b288-9040-4bea-86cb-a18373ee58c2",
      "resource": {
        "resourceType": "Patient",
        "id": "60b9b288-9040-4bea-86cb-a18373ee58c2",
        "meta": {
          "security": [
            {
              "system": "http://terminology.hl7.org/CodeSystem/v3-ActReason",
              "code": "HTEST"
            },
            {
              "system": "http://terminology.hl7.org/CodeSystem/v3-ActReason",
              "code": "TRAIN"
            }
          ],
          "tag": [
            {
              "system": "https://synderai.net/fhir/CodeSystem/tags",
              "code": "synthetic",
              "display": "SYNDERAI Synthetic data"
            }
          ],
          "profile": [
            "http://hl7.eu/fhir/base/StructureDefinition/patient-eu-core"
          ]
        },
        "identifier": [
          {
            "type": {
              "coding": [
                {
                  "code": "PT",
                  "system": "http://terminology.hl7.org/CodeSystem/v2-0203"
                }
              ]
            },
            "system": "http://ec.europa.eu/identifier/eci",
            "value": "5962-476889-7"
          },
          {
            "type": {
              "coding": [
                {
                  "code": "MR",
                  "system": "http://terminology.hl7.org/CodeSystem/v2-0203"
                }
              ]
            },
            "system": "http://local.setting.eu/identifier",
            "value": "925e2603-2ef9-6bdf-1330-2ebf526636c4"
          }
        ],
        "name": [
          {
            "family": "Λιναρδάκη"
          },
          {
            "given": [
              "Θεμιστοκλής"
            ]
          },
          {
            "text": "Θεμιστοκλής Λιναρδάκη"
          }
        ],
        "address": [
          {
            "line": [
              "Αμαρύνθου 54-58"
            ],
            "use": "home",
            "type": "physical",
            "postalCode": "262 21",
            "city": "Πάτρα",
            "country": "Greece"
          }
        ],
        "telecom": [
          {
            "system": "phone",
            "value": "+302226364480"
          }
        ],
        "extension": [
          {
            "url": "http://hl7.org/fhir/StructureDefinition/patient-nationality",
            "valueCodeableConcept": {
              "coding": [
                {
                  "code": "GR",
                  "system": "http://hl7.org/fhir/ValueSet/country"
                }
              ]
            }
          }
        ],
        "text": {
          "status": "generated",
          "div": "<div xmlns=\"http://www.w3.org/1999/xhtml\"><table class=\"hl7__ips\"><tr><td>Θεμιστοκλής Λιναρδάκη</td><td>male</td><td>21-Jan-1974</td></tr></table></div>"
        },
        "gender": "male",
        "birthDate": "1974-01-21"
      }
    },
    {
      "fullUrl": "urn:uuid:14794b67-8bb0-4d0e-a38a-549babdc24ef",
      "resource": {
        "resourceType": "ServiceRequest",
        "id": "14794b67-8bb0-4d0e-a38a-549babdc24ef",
        "meta": {
          "profile": [
            "http://hl7.eu/fhir/laboratory/StructureDefinition/ServiceRequest-eu-lab"
          ]
        },
        "identifier": [
          {
            "system": "http://example.org",
            "value": "6191b0b3-c5f6-47fc-b5bb-afbfa16af8da"
          }
        ],
        "specimen": [
          {
            "reference": "urn:uuid:d5a1746d-04e1-4f71-bf9c-27a72686ddcd"
          },
          {
            "reference": "urn:uuid:2ae9e4bd-1e00-4c6e-b79d-23ae1e95a208"
          },
          {
            "reference": "urn:uuid:fbed763c-10ee-4712-91ad-8a55e3a2c00f"
          }
        ],
        "reasonCode": [
          {
            "coding": [
              {
                "code": "237602007",
                "system": "http://snomed.info/sct",
                "display": "Metabolic syndrome X"
              }
            ]
          },
          {
            "coding": [
              {
                "code": "433144002",
                "system": "http://snomed.info/sct",
                "display": "Chronic kidney disease stage 3"
              }
            ]
          },
          {
            "coding": [
              {
                "code": "157141000119108",
                "system": "http://snomed.info/sct",
                "display": "Proteinuria due to type 2 diabetes mellitus"
              }
            ]
          },
          {
            "coding": [
              {
                "code": "431856006",
                "system": "http://snomed.info/sct",
                "display": "Chronic kidney disease stage 2"
              }
            ]
          },
          {
            "coding": [
              {
                "code": "90781000119102",
                "system": "http://snomed.info/sct",
                "display": "Microalbuminuria due to type 2 diabetes mellitus"
              }
            ]
          },
          {
            "coding": [
              {
                "code": "127013003",
                "system": "http://snomed.info/sct",
                "display": "Disorder of kidney due to diabetes mellitus"
              }
            ]
          },
          {
            "coding": [
              {
                "code": "431855005",
                "system": "http://snomed.info/sct",
                "display": "Chronic kidney disease stage 1"
              }
            ]
          },
          {
            "coding": [
              {
                "code": "59621000",
                "system": "http://snomed.info/sct",
                "display": "Essential hypertension"
              }
            ]
          },
          {
            "coding": [
              {
                "code": "15777000",
                "system": "http://snomed.info/sct",
                "display": "Prediabetes"
              }
            ]
          },
          {
            "coding": [
              {
                "code": "271737000",
                "system": "http://snomed.info/sct",
                "display": "Anemia"
              }
            ]
          }
        ],
        "status": "active",
        "intent": "order",
        "code": {
          "coding": [
            {
              "code": "108252007",
              "system": "http://snomed.info/sct",
              "display": "Laboratory procedure"
            }
          ]
        },
        "subject": {
          "reference": "urn:uuid:60b9b288-9040-4bea-86cb-a18373ee58c2",
          "display": "Θεμιστοκλής Λιναρδάκη"
        },
        "requester": {
          "reference": "urn:uuid:f431e767-d29c-4eaa-b443-ec4dd524df05"
        }
      }
    },
    {
      "fullUrl": "urn:uuid:f431e767-d29c-4eaa-b443-ec4dd524df05",
      "resource": {
        "resourceType": "PractitionerRole",
        "id": "f431e767-d29c-4eaa-b443-ec4dd524df05",
        "meta": {
          "profile": [
            "http://hl7.eu/fhir/base/StructureDefinition/practitionerRole-eu"
          ]
        },
        "text": {
          "status": "generated",
          "div": "<div xmlns=\"http://www.w3.org/1999/xhtml\">Provider Role Id: f431e767-d29c-4eaa-b443-ec4dd524df05</div>"
        },
        "organization": {
          "reference": "urn:uuid:393b9726-b655-484d-837f-518bfde5cc47"
        }
      }
    },
    {
      "fullUrl": "urn:uuid:393b9726-b655-484d-837f-518bfde5cc47",
      "resource": {
        "resourceType": "Organization",
        "id": "393b9726-b655-484d-837f-518bfde5cc47",
        "meta": {
          "profile": [
            "http://hl7.eu/fhir/base/StructureDefinition/organization-eu"
          ]
        },
        "identifier": [
          {
            "assigner": {
              "display": "HL7 Europe"
            },
            "system": "urn:oid:2.16.840.1.113883.2.51.999",
            "value": "61eb454e-79fa-46fa-8969-9764b2d12236"
          }
        ],
        "address": [
          {
            "line": [
              "211 Odós Filellinon"
            ],
            "city": "Patras",
            "postalCode": "262 21",
            "country": "Greece"
          }
        ],
        "text": {
          "status": "generated",
          "div": "<div xmlns=\"http://www.w3.org/1999/xhtml\">Provider Organization: Dr. Dimitris Economou</div>"
        },
        "name": "Dr. Dimitris Economou"
      }
    },
    {
      "fullUrl": "urn:uuid:d5a1746d-04e1-4f71-bf9c-27a72686ddcd",
      "resource": {
        "resourceType": "Specimen",
        "id": "d5a1746d-04e1-4f71-bf9c-27a72686ddcd",
        "meta": {
          "profile": [
            "http://hl7.eu/fhir/laboratory/StructureDefinition/Specimen-eu-lab"
          ]
        },
        "collection": {
          "collectedDateTime": "2023-10-25"
        },
        "text": {
          "status": "generated",
          "div": "<div xmlns=\"http://www.w3.org/1999/xhtml\"><table class=\"hl7__eu__lab__report\"><tr><th>Specimen</th><th>Collection Date</th></tr><tr><td>Acellular blood (serum or plasma) specimen</td><td><span class=\"nb\">25-Oct-2023</span></td></tr></table></div>"
        },
        "type": {
          "coding": [
            {
              "code": "122592007",
              "system": "http://snomed.info/sct",
              "display": "Acellular blood (serum or plasma) specimen"
            }
          ]
        }
      }
    },
    {
      "fullUrl": "urn:uuid:2ae9e4bd-1e00-4c6e-b79d-23ae1e95a208",
      "resource": {
        "resourceType": "Specimen",
        "id": "2ae9e4bd-1e00-4c6e-b79d-23ae1e95a208",
        "meta": {
          "profile": [
            "http://hl7.eu/fhir/laboratory/StructureDefinition/Specimen-eu-lab"
          ]
        },
        "collection": {
          "collectedDateTime": "2023-10-25"
        },
        "text": {
          "status": "generated",
          "div": "<div xmlns=\"http://www.w3.org/1999/xhtml\"><table class=\"hl7__eu__lab__report\"><tr><th>Specimen</th><th>Collection Date</th></tr><tr><td>Urine specimen</td><td><span class=\"nb\">25-Oct-2023</span></td></tr></table></div>"
        },
        "type": {
          "coding": [
            {
              "code": "122575003",
              "system": "http://snomed.info/sct",
              "display": "Urine specimen"
            }
          ]
        }
      }
    },
    {
      "fullUrl": "urn:uuid:fbed763c-10ee-4712-91ad-8a55e3a2c00f",
      "resource": {
        "resourceType": "Specimen",
        "id": "fbed763c-10ee-4712-91ad-8a55e3a2c00f",
        "meta": {
          "profile": [
            "http://hl7.eu/fhir/laboratory/StructureDefinition/Specimen-eu-lab"
          ]
        },
        "collection": {
          "collectedDateTime": "2023-10-25"
        },
        "text": {
          "status": "generated",
          "div": "<div xmlns=\"http://www.w3.org/1999/xhtml\"><table class=\"hl7__eu__lab__report\"><tr><th>Specimen</th><th>Collection Date</th></tr><tr><td>Whole blood specimen (specimen)</td><td><span class=\"nb\">25-Oct-2023</span></td></tr></table></div>"
        },
        "type": {
          "coding": [
            {
              "code": "258580003",
              "system": "http://snomed.info/sct",
              "display": "Whole blood specimen (specimen)"
            }
          ]
        }
      }
    },
    {
      "fullUrl": "urn:uuid:29619e21-c458-475e-b2df-b952ce4a8574",
      "resource": {
        "resourceType": "Observation",
        "id": "29619e21-c458-475e-b2df-b952ce4a8574",
        "meta": {
          "profile": [
            "http://hl7.eu/fhir/laboratory/StructureDefinition/Observation-resultslab-eu-lab"
          ]
        },
        "performer": [
          {
            "display": "The Central European Lab"
          }
        ],
        "category": [
          {
            "coding": [
              {
                "system": "http://terminology.hl7.org/CodeSystem/observation-category",
                "code": "laboratory"
              }
            ]
          }
        ],
        "code": {
          "coding": [
            {
              "code": "2345-7",
              "system": "http://loinc.org",
              "display": "Glucose [Mass/volume] in Serum or Plasma"
            }
          ],
          "text": "Glucose [Mass/volume] in Serum or Plasma"
        },
        "valueQuantity": {
          "system": "http://unitsofmeasure.org",
          "value": 80.1,
          "unit": "mg/dL",
          "code": "mg/dL"
        },
        "referenceRange": [
          {
            "low": {
              "value": 70,
              "code": "mg/dL",
              "system": "http://unitsofmeasure.org"
            }
          },
          {
            "high": {
              "value": 140,
              "code": "mg/dL",
              "system": "http://unitsofmeasure.org"
            }
          }
        ],
        "text": {
          "status": "generated",
          "div": "<div xmlns=\"http://www.w3.org/1999/xhtml\"><table class=\"hl7__eu__lab__report\"><tr><th>Test</th><th>25-Oct-2023</th><th>Reference&#xA0;Range</th><th>Unit</th></tr><tr><td>Glucose [Mass/volume] in Serum or Plasma</td><td>80.1</td><td>70 - 140</td><td></td><td>mg/dL</td></tr></table></div>"
        },
        "status": "final",
        "subject": {
          "reference": "urn:uuid:60b9b288-9040-4bea-86cb-a18373ee58c2",
          "display": "Θεμιστοκλής Λιναρδάκη"
        },
        "effectiveDateTime": "2023-10-25T06:16:00Z",
        "specimen": {
          "reference": "urn:uuid:d5a1746d-04e1-4f71-bf9c-27a72686ddcd"
        }
      }
    },
    {
      "fullUrl": "urn:uuid:bebe5beb-dd24-49b9-9a88-029cdefe6b1e",
      "resource": {
        "resourceType": "Observation",
        "id": "bebe5beb-dd24-49b9-9a88-029cdefe6b1e",
        "meta": {
          "profile": [
            "http://hl7.eu/fhir/laboratory/StructureDefinition/Observation-resultslab-eu-lab"
          ]
        },
        "performer": [
          {
            "display": "The Central European Lab"
          }
        ],
        "category": [
          {
            "coding": [
              {
                "system": "http://terminology.hl7.org/CodeSystem/observation-category",
                "code": "laboratory"
              }
            ]
          }
        ],
        "code": {
          "coding": [
            {
              "code": "3094-0",
              "system": "http://loinc.org",
              "display": "Urea nitrogen [Mass/volume] in Serum or Plasma"
            }
          ],
          "text": "Urea nitrogen [Mass/volume] in Serum or Plasma"
        },
        "valueQuantity": {
          "system": "http://unitsofmeasure.org",
          "value": 10,
          "unit": "mg/dL",
          "code": "mg/dL"
        },
        "referenceRange": [
          {
            "low": {
              "value": 7,
              "code": "mg/dL",
              "system": "http://unitsofmeasure.org"
            }
          },
          {
            "high": {
              "value": 20,
              "code": "mg/dL",
              "system": "http://unitsofmeasure.org"
            }
          }
        ],
        "text": {
          "status": "generated",
          "div": "<div xmlns=\"http://www.w3.org/1999/xhtml\"><table class=\"hl7__eu__lab__report\"><tr><th>Test</th><th>25-Oct-2023</th><th>Reference&#xA0;Range</th><th>Unit</th></tr><tr><td>Urea nitrogen [Mass/volume] in Serum or Plasma</td><td>10.0</td><td>7 - 20</td><td></td><td>mg/dL</td></tr></table></div>"
        },
        "status": "final",
        "subject": {
          "reference": "urn:uuid:60b9b288-9040-4bea-86cb-a18373ee58c2",
          "display": "Θεμιστοκλής Λιναρδάκη"
        },
        "effectiveDateTime": "2023-10-25T06:16:00Z",
        "specimen": {
          "reference": "urn:uuid:d5a1746d-04e1-4f71-bf9c-27a72686ddcd"
        }
      }
    },
    {
      "fullUrl": "urn:uuid:971d5656-2a9e-49a9-8016-97474b2f03ba",
      "resource": {
        "resourceType": "Observation",
        "id": "971d5656-2a9e-49a9-8016-97474b2f03ba",
        "meta": {
          "profile": [
            "http://hl7.eu/fhir/laboratory/StructureDefinition/Observation-resultslab-eu-lab"
          ]
        },
        "performer": [
          {
            "display": "The Central European Lab"
          }
        ],
        "category": [
          {
            "coding": [
              {
                "system": "http://terminology.hl7.org/CodeSystem/observation-category",
                "code": "laboratory"
              }
            ]
          }
        ],
        "code": {
          "coding": [
            {
              "code": "2160-0",
              "system": "http://loinc.org",
              "display": "Creatinine [Mass/volume] in Serum or Plasma"
            }
          ],
          "text": "Creatinine [Mass/volume] in Serum or Plasma"
        },
        "valueQuantity": {
          "system": "http://unitsofmeasure.org",
          "value": 1.9,
          "unit": "mg/dL",
          "code": "mg/dL"
        },
        "referenceRange": [
          {
            "low": {
              "value": 0.9,
              "code": "mg/dL",
              "system": "http://unitsofmeasure.org"
            }
          },
          {
            "high": {
              "value": 1.3,
              "code": "mg/dL",
              "system": "http://unitsofmeasure.org"
            }
          }
        ],
        "interpretation": [
          {
            "coding": [
              {
                "code": "H",
                "system": "http://terminology.hl7.org/CodeSystem/v3-ObservationInterpretation",
                "display": "High"
              }
            ]
          }
        ],
        "text": {
          "status": "generated",
          "div": "<div xmlns=\"http://www.w3.org/1999/xhtml\"><table class=\"hl7__eu__lab__report\"><tr><th>Test</th><th>25-Oct-2023</th><th>Reference&#xA0;Range</th><th>Unit</th></tr><tr><td>Creatinine [Mass/volume] in Serum or Plasma</td><td>1.9</td><td>0.9 - 1.3</td><td>H</td><td>mg/dL</td></tr></table></div>"
        },
        "status": "final",
        "subject": {
          "reference": "urn:uuid:60b9b288-9040-4bea-86cb-a18373ee58c2",
          "display": "Θεμιστοκλής Λιναρδάκη"
        },
        "effectiveDateTime": "2023-10-25T06:16:00Z",
        "specimen": {
          "reference": "urn:uuid:d5a1746d-04e1-4f71-bf9c-27a72686ddcd"
        }
      }
    },
    {
      "fullUrl": "urn:uuid:376f03f8-36c6-4523-a313-dabb999af78c",
      "resource": {
        "resourceType": "Observation",
        "id": "376f03f8-36c6-4523-a313-dabb999af78c",
        "meta": {
          "profile": [
            "http://hl7.eu/fhir/laboratory/StructureDefinition/Observation-resultslab-eu-lab"
          ]
        },
        "performer": [
          {
            "display": "The Central European Lab"
          }
        ],
        "category": [
          {
            "coding": [
              {
                "system": "http://terminology.hl7.org/CodeSystem/observation-category",
                "code": "laboratory"
              }
            ]
          }
        ],
        "code": {
          "coding": [
            {
              "code": "17861-6",
              "system": "http://loinc.org",
              "display": "Calcium [Mass/volume] in Serum or Plasma"
            }
          ],
          "text": "Calcium [Mass/volume] in Serum or Plasma"
        },
        "valueQuantity": {
          "system": "http://unitsofmeasure.org",
          "value": 9,
          "unit": "mg/dL",
          "code": "mg/dL"
        },
        "referenceRange": [
          {
            "low": {
              "value": 8.5,
              "code": "mg/dL",
              "system": "http://unitsofmeasure.org"
            }
          },
          {
            "high": {
              "value": 10.5,
              "code": "mg/dL",
              "system": "http://unitsofmeasure.org"
            }
          }
        ],
        "text": {
          "status": "generated",
          "div": "<div xmlns=\"http://www.w3.org/1999/xhtml\"><table class=\"hl7__eu__lab__report\"><tr><th>Test</th><th>25-Oct-2023</th><th>Reference&#xA0;Range</th><th>Unit</th></tr><tr><td>Calcium [Mass/volume] in Serum or Plasma</td><td>9.0</td><td>8.5 - 10.5</td><td></td><td>mg/dL</td></tr></table></div>"
        },
        "status": "final",
        "subject": {
          "reference": "urn:uuid:60b9b288-9040-4bea-86cb-a18373ee58c2",
          "display": "Θεμιστοκλής Λιναρδάκη"
        },
        "effectiveDateTime": "2023-10-25T06:16:00Z",
        "specimen": {
          "reference": "urn:uuid:d5a1746d-04e1-4f71-bf9c-27a72686ddcd"
        }
      }
    },
    {
      "fullUrl": "urn:uuid:9d40da78-0c20-48f6-a354-8ea0d25add3b",
      "resource": {
        "resourceType": "Observation",
        "id": "9d40da78-0c20-48f6-a354-8ea0d25add3b",
        "meta": {
          "profile": [
            "http://hl7.eu/fhir/laboratory/StructureDefinition/Observation-resultslab-eu-lab"
          ]
        },
        "performer": [
          {
            "display": "The Central European Lab"
          }
        ],
        "category": [
          {
            "coding": [
              {
                "system": "http://terminology.hl7.org/CodeSystem/observation-category",
                "code": "laboratory"
              }
            ]
          }
        ],
        "code": {
          "coding": [
            {
              "code": "2951-2",
              "system": "http://loinc.org",
              "display": "Sodium [Moles/volume] in Serum or Plasma"
            }
          ],
          "text": "Sodium [Moles/volume] in Serum or Plasma"
        },
        "valueQuantity": {
          "system": "http://unitsofmeasure.org",
          "value": 137.7,
          "unit": "mmol/L",
          "code": "mmol/L"
        },
        "referenceRange": [
          {
            "low": {
              "value": 135,
              "code": "mmol/L",
              "system": "http://unitsofmeasure.org"
            }
          },
          {
            "high": {
              "value": 145,
              "code": "mmol/L",
              "system": "http://unitsofmeasure.org"
            }
          }
        ],
        "text": {
          "status": "generated",
          "div": "<div xmlns=\"http://www.w3.org/1999/xhtml\"><table class=\"hl7__eu__lab__report\"><tr><th>Test</th><th>25-Oct-2023</th><th>Reference&#xA0;Range</th><th>Unit</th></tr><tr><td>Sodium [Moles/volume] in Serum or Plasma</td><td>137.7</td><td>135 - 145</td><td></td><td>mmol/L</td></tr></table></div>"
        },
        "status": "final",
        "subject": {
          "reference": "urn:uuid:60b9b288-9040-4bea-86cb-a18373ee58c2",
          "display": "Θεμιστοκλής Λιναρδάκη"
        },
        "effectiveDateTime": "2023-10-25T06:16:00Z",
        "specimen": {
          "reference": "urn:uuid:d5a1746d-04e1-4f71-bf9c-27a72686ddcd"
        }
      }
    },
    {
      "fullUrl": "urn:uuid:9d8a3a95-f7be-47ee-a956-ef302514e0d4",
      "resource": {
        "resourceType": "Observation",
        "id": "9d8a3a95-f7be-47ee-a956-ef302514e0d4",
        "meta": {
          "profile": [
            "http://hl7.eu/fhir/laboratory/StructureDefinition/Observation-resultslab-eu-lab"
          ]
        },
        "performer": [
          {
            "display": "The Central European Lab"
          }
        ],
        "category": [
          {
            "coding": [
              {
                "system": "http://terminology.hl7.org/CodeSystem/observation-category",
                "code": "laboratory"
              }
            ]
          }
        ],
        "code": {
          "coding": [
            {
              "code": "2823-3",
              "system": "http://loinc.org",
              "display": "Potassium [Moles/volume] in Serum or Plasma"
            }
          ],
          "text": "Potassium [Moles/volume] in Serum or Plasma"
        },
        "valueQuantity": {
          "system": "http://unitsofmeasure.org",
          "value": 4.1,
          "unit": "mmol/L",
          "code": "mmol/L"
        },
        "referenceRange": [
          {
            "low": {
              "value": 3.5,
              "code": "mmol/L",
              "system": "http://unitsofmeasure.org"
            }
          },
          {
            "high": {
              "value": 5,
              "code": "mmol/L",
              "system": "http://unitsofmeasure.org"
            }
          }
        ],
        "text": {
          "status": "generated",
          "div": "<div xmlns=\"http://www.w3.org/1999/xhtml\"><table class=\"hl7__eu__lab__report\"><tr><th>Test</th><th>25-Oct-2023</th><th>Reference&#xA0;Range</th><th>Unit</th></tr><tr><td>Potassium [Moles/volume] in Serum or Plasma</td><td>4.1</td><td>3.5 - 5</td><td></td><td>mmol/L</td></tr></table></div>"
        },
        "status": "final",
        "subject": {
          "reference": "urn:uuid:60b9b288-9040-4bea-86cb-a18373ee58c2",
          "display": "Θεμιστοκλής Λιναρδάκη"
        },
        "effectiveDateTime": "2023-10-25T06:16:00Z",
        "specimen": {
          "reference": "urn:uuid:d5a1746d-04e1-4f71-bf9c-27a72686ddcd"
        }
      }
    },
    {
      "fullUrl": "urn:uuid:df13153e-b232-46d3-a323-07751479efdf",
      "resource": {
        "resourceType": "Observation",
        "id": "df13153e-b232-46d3-a323-07751479efdf",
        "meta": {
          "profile": [
            "http://hl7.eu/fhir/laboratory/StructureDefinition/Observation-resultslab-eu-lab"
          ]
        },
        "performer": [
          {
            "display": "The Central European Lab"
          }
        ],
        "category": [
          {
            "coding": [
              {
                "system": "http://terminology.hl7.org/CodeSystem/observation-category",
                "code": "laboratory"
              }
            ]
          }
        ],
        "code": {
          "coding": [
            {
              "code": "2075-0",
              "system": "http://loinc.org",
              "display": "Chloride [Moles/volume] in Serum or Plasma"
            }
          ],
          "text": "Chloride [Moles/volume] in Serum or Plasma"
        },
        "valueQuantity": {
          "system": "http://unitsofmeasure.org",
          "value": 104.6,
          "unit": "mmol/L",
          "code": "mmol/L"
        },
        "referenceRange": [
          {
            "low": {
              "value": 98,
              "code": "mmol/L",
              "system": "http://unitsofmeasure.org"
            }
          },
          {
            "high": {
              "value": 108,
              "code": "mmol/L",
              "system": "http://unitsofmeasure.org"
            }
          }
        ],
        "text": {
          "status": "generated",
          "div": "<div xmlns=\"http://www.w3.org/1999/xhtml\"><table class=\"hl7__eu__lab__report\"><tr><th>Test</th><th>25-Oct-2023</th><th>Reference&#xA0;Range</th><th>Unit</th></tr><tr><td>Chloride [Moles/volume] in Serum or Plasma</td><td>104.6</td><td>98 - 108</td><td></td><td>mmol/L</td></tr></table></div>"
        },
        "status": "final",
        "subject": {
          "reference": "urn:uuid:60b9b288-9040-4bea-86cb-a18373ee58c2",
          "display": "Θεμιστοκλής Λιναρδάκη"
        },
        "effectiveDateTime": "2023-10-25T06:16:00Z",
        "specimen": {
          "reference": "urn:uuid:d5a1746d-04e1-4f71-bf9c-27a72686ddcd"
        }
      }
    },
    {
      "fullUrl": "urn:uuid:47c5a27b-e45f-41cb-a4db-ab6ace3e1bde",
      "resource": {
        "resourceType": "Observation",
        "id": "47c5a27b-e45f-41cb-a4db-ab6ace3e1bde",
        "meta": {
          "profile": [
            "http://hl7.eu/fhir/laboratory/StructureDefinition/Observation-resultslab-eu-lab"
          ]
        },
        "performer": [
          {
            "display": "The Central European Lab"
          }
        ],
        "category": [
          {
            "coding": [
              {
                "system": "http://terminology.hl7.org/CodeSystem/observation-category",
                "code": "laboratory"
              }
            ]
          }
        ],
        "code": {
          "coding": [
            {
              "code": "2028-9",
              "system": "http://loinc.org",
              "display": "Carbon dioxide, total [Moles/volume] in Serum or Plasma"
            }
          ],
          "text": "Carbon dioxide, total [Moles/volume] in Serum or Plasma"
        },
        "valueQuantity": {
          "system": "http://unitsofmeasure.org",
          "value": 27.8,
          "unit": "mmol/L",
          "code": "mmol/L"
        },
        "referenceRange": [
          {
            "low": {
              "value": 22,
              "code": "mmol/L",
              "system": "http://unitsofmeasure.org"
            }
          },
          {
            "high": {
              "value": 29,
              "code": "mmol/L",
              "system": "http://unitsofmeasure.org"
            }
          }
        ],
        "text": {
          "status": "generated",
          "div": "<div xmlns=\"http://www.w3.org/1999/xhtml\"><table class=\"hl7__eu__lab__report\"><tr><th>Test</th><th>25-Oct-2023</th><th>Reference&#xA0;Range</th><th>Unit</th></tr><tr><td>Carbon dioxide, total [Moles/volume] in Serum or Plasma</td><td>27.8</td><td>22 - 29</td><td></td><td>mmol/L</td></tr></table></div>"
        },
        "status": "final",
        "subject": {
          "reference": "urn:uuid:60b9b288-9040-4bea-86cb-a18373ee58c2",
          "display": "Θεμιστοκλής Λιναρδάκη"
        },
        "effectiveDateTime": "2023-10-25T06:16:00Z",
        "specimen": {
          "reference": "urn:uuid:d5a1746d-04e1-4f71-bf9c-27a72686ddcd"
        }
      }
    },
    {
      "fullUrl": "urn:uuid:bbe637d7-f683-4e2f-b267-c6c5d64d1f8a",
      "resource": {
        "resourceType": "Observation",
        "id": "bbe637d7-f683-4e2f-b267-c6c5d64d1f8a",
        "meta": {
          "profile": [
            "http://hl7.eu/fhir/laboratory/StructureDefinition/Observation-resultslab-eu-lab"
          ]
        },
        "performer": [
          {
            "display": "The Central European Lab"
          }
        ],
        "category": [
          {
            "coding": [
              {
                "system": "http://terminology.hl7.org/CodeSystem/observation-category",
                "code": "laboratory"
              }
            ]
          }
        ],
        "code": {
          "coding": [
            {
              "code": "5767-9",
              "system": "http://loinc.org",
              "display": "Appearance of Urine"
            }
          ],
          "text": "Appearance of Urine"
        },
        "text": {
          "status": "generated",
          "div": "<div xmlns=\"http://www.w3.org/1999/xhtml\"><table class=\"hl7__eu__lab__report\"><tr><th>Test</th><th>25-Oct-2023</th><th>Reference&#xA0;Range</th><th>Unit</th></tr><tr><td>Appearance of Urine</td></tr></table></div>"
        },
        "status": "final",
        "subject": {
          "reference": "urn:uuid:60b9b288-9040-4bea-86cb-a18373ee58c2",
          "display": "Θεμιστοκλής Λιναρδάκη"
        },
        "effectiveDateTime": "2023-10-25T06:16:00Z",
        "specimen": {
          "reference": "urn:uuid:2ae9e4bd-1e00-4c6e-b79d-23ae1e95a208"
        }
      }
    },
    {
      "fullUrl": "urn:uuid:657cf98f-9d6c-4e09-a403-c830f85e9c47",
      "resource": {
        "resourceType": "Observation",
        "id": "657cf98f-9d6c-4e09-a403-c830f85e9c47",
        "meta": {
          "profile": [
            "http://hl7.eu/fhir/laboratory/StructureDefinition/Observation-resultslab-eu-lab"
          ]
        },
        "performer": [
          {
            "display": "The Central European Lab"
          }
        ],
        "category": [
          {
            "coding": [
              {
                "system": "http://terminology.hl7.org/CodeSystem/observation-category",
                "code": "laboratory"
              }
            ]
          }
        ],
        "code": {
          "coding": [
            {
              "code": "34533-0",
              "system": "http://loinc.org",
              "display": "Odor of Urine"
            }
          ],
          "text": "Odor of Urine"
        },
        "text": {
          "status": "generated",
          "div": "<div xmlns=\"http://www.w3.org/1999/xhtml\"><table class=\"hl7__eu__lab__report\"><tr><th>Test</th><th>25-Oct-2023</th><th>Reference&#xA0;Range</th><th>Unit</th></tr><tr><td>Odor of Urine</td></tr></table></div>"
        },
        "status": "final",
        "subject": {
          "reference": "urn:uuid:60b9b288-9040-4bea-86cb-a18373ee58c2",
          "display": "Θεμιστοκλής Λιναρδάκη"
        },
        "effectiveDateTime": "2023-10-25T06:16:00Z",
        "specimen": {
          "reference": "urn:uuid:2ae9e4bd-1e00-4c6e-b79d-23ae1e95a208"
        }
      }
    },
    {
      "fullUrl": "urn:uuid:d21109ff-8a4d-4033-b7a6-41174fa069d3",
      "resource": {
        "resourceType": "Observation",
        "id": "d21109ff-8a4d-4033-b7a6-41174fa069d3",
        "meta": {
          "profile": [
            "http://hl7.eu/fhir/laboratory/StructureDefinition/Observation-resultslab-eu-lab"
          ]
        },
        "performer": [
          {
            "display": "The Central European Lab"
          }
        ],
        "category": [
          {
            "coding": [
              {
                "system": "http://terminology.hl7.org/CodeSystem/observation-category",
                "code": "laboratory"
              }
            ]
          }
        ],
        "code": {
          "coding": [
            {
              "code": "32167-9",
              "system": "http://loinc.org",
              "display": "Clarity of Urine"
            }
          ],
          "text": "Clarity of Urine"
        },
        "text": {
          "status": "generated",
          "div": "<div xmlns=\"http://www.w3.org/1999/xhtml\"><table class=\"hl7__eu__lab__report\"><tr><th>Test</th><th>25-Oct-2023</th><th>Reference&#xA0;Range</th><th>Unit</th></tr><tr><td>Clarity of Urine</td></tr></table></div>"
        },
        "status": "final",
        "subject": {
          "reference": "urn:uuid:60b9b288-9040-4bea-86cb-a18373ee58c2",
          "display": "Θεμιστοκλής Λιναρδάκη"
        },
        "effectiveDateTime": "2023-10-25T06:16:00Z",
        "specimen": {
          "reference": "urn:uuid:2ae9e4bd-1e00-4c6e-b79d-23ae1e95a208"
        }
      }
    },
    {
      "fullUrl": "urn:uuid:51f69137-177a-4ed2-906f-28b1dd7f4193",
      "resource": {
        "resourceType": "Observation",
        "id": "51f69137-177a-4ed2-906f-28b1dd7f4193",
        "meta": {
          "profile": [
            "http://hl7.eu/fhir/laboratory/StructureDefinition/Observation-resultslab-eu-lab"
          ]
        },
        "performer": [
          {
            "display": "The Central European Lab"
          }
        ],
        "category": [
          {
            "coding": [
              {
                "system": "http://terminology.hl7.org/CodeSystem/observation-category",
                "code": "laboratory"
              }
            ]
          }
        ],
        "code": {
          "coding": [
            {
              "code": "5778-6",
              "system": "http://loinc.org",
              "display": "Color of Urine"
            }
          ],
          "text": "Color of Urine"
        },
        "text": {
          "status": "generated",
          "div": "<div xmlns=\"http://www.w3.org/1999/xhtml\"><table class=\"hl7__eu__lab__report\"><tr><th>Test</th><th>25-Oct-2023</th><th>Reference&#xA0;Range</th><th>Unit</th></tr><tr><td>Color of Urine</td></tr></table></div>"
        },
        "status": "final",
        "subject": {
          "reference": "urn:uuid:60b9b288-9040-4bea-86cb-a18373ee58c2",
          "display": "Θεμιστοκλής Λιναρδάκη"
        },
        "effectiveDateTime": "2023-10-25T06:16:00Z",
        "specimen": {
          "reference": "urn:uuid:2ae9e4bd-1e00-4c6e-b79d-23ae1e95a208"
        }
      }
    },
    {
      "fullUrl": "urn:uuid:7d9c926e-7507-4796-b483-796ea8b389c7",
      "resource": {
        "resourceType": "Observation",
        "id": "7d9c926e-7507-4796-b483-796ea8b389c7",
        "meta": {
          "profile": [
            "http://hl7.eu/fhir/laboratory/StructureDefinition/Observation-resultslab-eu-lab"
          ]
        },
        "performer": [
          {
            "display": "The Central European Lab"
          }
        ],
        "category": [
          {
            "coding": [
              {
                "system": "http://terminology.hl7.org/CodeSystem/observation-category",
                "code": "laboratory"
              }
            ]
          }
        ],
        "code": {
          "coding": [
            {
              "code": "5792-7",
              "system": "http://loinc.org",
              "display": "Glucose [Mass/volume] in Urine by Test strip"
            }
          ],
          "text": "Glucose [Mass/volume] in Urine by Test strip"
        },
        "valueQuantity": {
          "system": "http://unitsofmeasure.org",
          "value": 1.2,
          "unit": "mg/dL",
          "code": "mg/dL"
        },
        "referenceRange": [
          {
            "low": {
              "value": 0,
              "code": "mg/dL",
              "system": "http://unitsofmeasure.org"
            }
          },
          {
            "high": {
              "value": 0.8,
              "code": "mg/dL",
              "system": "http://unitsofmeasure.org"
            }
          }
        ],
        "interpretation": [
          {
            "coding": [
              {
                "code": "H",
                "system": "http://terminology.hl7.org/CodeSystem/v3-ObservationInterpretation",
                "display": "High"
              }
            ]
          }
        ],
        "text": {
          "status": "generated",
          "div": "<div xmlns=\"http://www.w3.org/1999/xhtml\"><table class=\"hl7__eu__lab__report\"><tr><th>Test</th><th>25-Oct-2023</th><th>Reference&#xA0;Range</th><th>Unit</th></tr><tr><td>Glucose [Mass/volume] in Urine by Test strip</td><td>1.2</td><td>0 - 0.8</td><td>H</td><td>mg/dL</td></tr></table></div>"
        },
        "status": "final",
        "subject": {
          "reference": "urn:uuid:60b9b288-9040-4bea-86cb-a18373ee58c2",
          "display": "Θεμιστοκλής Λιναρδάκη"
        },
        "effectiveDateTime": "2023-10-25T06:16:00Z",
        "specimen": {
          "reference": "urn:uuid:2ae9e4bd-1e00-4c6e-b79d-23ae1e95a208"
        }
      }
    },
    {
      "fullUrl": "urn:uuid:6ecd7034-9534-44e7-811b-651ae40ceeb3",
      "resource": {
        "resourceType": "Observation",
        "id": "6ecd7034-9534-44e7-811b-651ae40ceeb3",
        "meta": {
          "profile": [
            "http://hl7.eu/fhir/laboratory/StructureDefinition/Observation-resultslab-eu-lab"
          ]
        },
        "performer": [
          {
            "display": "The Central European Lab"
          }
        ],
        "category": [
          {
            "coding": [
              {
                "system": "http://terminology.hl7.org/CodeSystem/observation-category",
                "code": "laboratory"
              }
            ]
          }
        ],
        "code": {
          "coding": [
            {
              "code": "25428-4",
              "system": "http://loinc.org",
              "display": "Glucose [Presence] in Urine by Test strip"
            }
          ],
          "text": "Glucose [Presence] in Urine by Test strip"
        },
        "text": {
          "status": "generated",
          "div": "<div xmlns=\"http://www.w3.org/1999/xhtml\"><table class=\"hl7__eu__lab__report\"><tr><th>Test</th><th>25-Oct-2023</th><th>Reference&#xA0;Range</th><th>Unit</th></tr><tr><td>Glucose [Presence] in Urine by Test strip</td></tr></table></div>"
        },
        "status": "final",
        "subject": {
          "reference": "urn:uuid:60b9b288-9040-4bea-86cb-a18373ee58c2",
          "display": "Θεμιστοκλής Λιναρδάκη"
        },
        "effectiveDateTime": "2023-10-25T06:16:00Z",
        "specimen": {
          "reference": "urn:uuid:2ae9e4bd-1e00-4c6e-b79d-23ae1e95a208"
        }
      }
    },
    {
      "fullUrl": "urn:uuid:cd9c86de-ba4e-494a-8a84-a52fa16f772c",
      "resource": {
        "resourceType": "Observation",
        "id": "cd9c86de-ba4e-494a-8a84-a52fa16f772c",
        "meta": {
          "profile": [
            "http://hl7.eu/fhir/laboratory/StructureDefinition/Observation-resultslab-eu-lab"
          ]
        },
        "performer": [
          {
            "display": "The Central European Lab"
          }
        ],
        "category": [
          {
            "coding": [
              {
                "system": "http://terminology.hl7.org/CodeSystem/observation-category",
                "code": "laboratory"
              }
            ]
          }
        ],
        "code": {
          "coding": [
            {
              "code": "20505-4",
              "system": "http://loinc.org",
              "display": "Bilirubin.total [Mass/volume] in Urine by Test strip"
            }
          ],
          "text": "Bilirubin.total [Mass/volume] in Urine by Test strip"
        },
        "valueQuantity": {
          "system": "http://unitsofmeasure.org",
          "value": 1,
          "unit": "mg/dL",
          "code": "mg/dL"
        },
        "referenceRange": [
          {
            "low": {
              "value": 0.2,
              "code": "mg/dL",
              "system": "http://unitsofmeasure.org"
            }
          },
          {
            "high": {
              "value": 1,
              "code": "mg/dL",
              "system": "http://unitsofmeasure.org"
            }
          }
        ],
        "text": {
          "status": "generated",
          "div": "<div xmlns=\"http://www.w3.org/1999/xhtml\"><table class=\"hl7__eu__lab__report\"><tr><th>Test</th><th>25-Oct-2023</th><th>Reference&#xA0;Range</th><th>Unit</th></tr><tr><td>Bilirubin.total [Mass/volume] in Urine by Test strip</td><td>1.0</td><td>0.2 - 1</td><td></td><td>mg/dL</td></tr></table></div>"
        },
        "status": "final",
        "subject": {
          "reference": "urn:uuid:60b9b288-9040-4bea-86cb-a18373ee58c2",
          "display": "Θεμιστοκλής Λιναρδάκη"
        },
        "effectiveDateTime": "2023-10-25T06:16:00Z",
        "specimen": {
          "reference": "urn:uuid:2ae9e4bd-1e00-4c6e-b79d-23ae1e95a208"
        }
      }
    },
    {
      "fullUrl": "urn:uuid:23374483-b97b-4a9b-91b1-2571b73e0725",
      "resource": {
        "resourceType": "Observation",
        "id": "23374483-b97b-4a9b-91b1-2571b73e0725",
        "meta": {
          "profile": [
            "http://hl7.eu/fhir/laboratory/StructureDefinition/Observation-resultslab-eu-lab"
          ]
        },
        "performer": [
          {
            "display": "The Central European Lab"
          }
        ],
        "category": [
          {
            "coding": [
              {
                "system": "http://terminology.hl7.org/CodeSystem/observation-category",
                "code": "laboratory"
              }
            ]
          }
        ],
        "code": {
          "coding": [
            {
              "code": "5770-3",
              "system": "http://loinc.org",
              "display": "Bilirubin.total [Presence] in Urine by Test strip"
            }
          ],
          "text": "Bilirubin.total [Presence] in Urine by Test strip"
        },
        "text": {
          "status": "generated",
          "div": "<div xmlns=\"http://www.w3.org/1999/xhtml\"><table class=\"hl7__eu__lab__report\"><tr><th>Test</th><th>25-Oct-2023</th><th>Reference&#xA0;Range</th><th>Unit</th></tr><tr><td>Bilirubin.total [Presence] in Urine by Test strip</td></tr></table></div>"
        },
        "status": "final",
        "subject": {
          "reference": "urn:uuid:60b9b288-9040-4bea-86cb-a18373ee58c2",
          "display": "Θεμιστοκλής Λιναρδάκη"
        },
        "effectiveDateTime": "2023-10-25T06:16:00Z",
        "specimen": {
          "reference": "urn:uuid:2ae9e4bd-1e00-4c6e-b79d-23ae1e95a208"
        }
      }
    },
    {
      "fullUrl": "urn:uuid:330ad1c0-2ed5-46e8-8c9c-317c94c1ba8c",
      "resource": {
        "resourceType": "Observation",
        "id": "330ad1c0-2ed5-46e8-8c9c-317c94c1ba8c",
        "meta": {
          "profile": [
            "http://hl7.eu/fhir/laboratory/StructureDefinition/Observation-resultslab-eu-lab"
          ]
        },
        "performer": [
          {
            "display": "The Central European Lab"
          }
        ],
        "category": [
          {
            "coding": [
              {
                "system": "http://terminology.hl7.org/CodeSystem/observation-category",
                "code": "laboratory"
              }
            ]
          }
        ],
        "code": {
          "coding": [
            {
              "code": "5797-6",
              "system": "http://loinc.org",
              "display": "Ketones [Mass/volume] in Urine by Test strip"
            }
          ],
          "text": "Ketones [Mass/volume] in Urine by Test strip"
        },
        "valueQuantity": {
          "system": "http://unitsofmeasure.org",
          "value": 4.5,
          "unit": "mg/dL",
          "code": "mg/dL"
        },
        "referenceRange": [
          {
            "low": {
              "value": 0,
              "code": "mg/dL",
              "system": "http://unitsofmeasure.org"
            }
          },
          {
            "high": {
              "value": 5,
              "code": "mg/dL",
              "system": "http://unitsofmeasure.org"
            }
          }
        ],
        "text": {
          "status": "generated",
          "div": "<div xmlns=\"http://www.w3.org/1999/xhtml\"><table class=\"hl7__eu__lab__report\"><tr><th>Test</th><th>25-Oct-2023</th><th>Reference&#xA0;Range</th><th>Unit</th></tr><tr><td>Ketones [Mass/volume] in Urine by Test strip</td><td>4.5</td><td>0 - 5</td><td></td><td>mg/dL</td></tr></table></div>"
        },
        "status": "final",
        "subject": {
          "reference": "urn:uuid:60b9b288-9040-4bea-86cb-a18373ee58c2",
          "display": "Θεμιστοκλής Λιναρδάκη"
        },
        "effectiveDateTime": "2023-10-25T06:16:00Z",
        "specimen": {
          "reference": "urn:uuid:2ae9e4bd-1e00-4c6e-b79d-23ae1e95a208"
        }
      }
    },
    {
      "fullUrl": "urn:uuid:904209f2-f9d7-4a6f-b483-7d6915bd9704",
      "resource": {
        "resourceType": "Observation",
        "id": "904209f2-f9d7-4a6f-b483-7d6915bd9704",
        "meta": {
          "profile": [
            "http://hl7.eu/fhir/laboratory/StructureDefinition/Observation-resultslab-eu-lab"
          ]
        },
        "performer": [
          {
            "display": "The Central European Lab"
          }
        ],
        "category": [
          {
            "coding": [
              {
                "system": "http://terminology.hl7.org/CodeSystem/observation-category",
                "code": "laboratory"
              }
            ]
          }
        ],
        "code": {
          "coding": [
            {
              "code": "2514-8",
              "system": "http://loinc.org",
              "display": "Ketones [Presence] in Urine by Test strip"
            }
          ],
          "text": "Ketones [Presence] in Urine by Test strip"
        },
        "text": {
          "status": "generated",
          "div": "<div xmlns=\"http://www.w3.org/1999/xhtml\"><table class=\"hl7__eu__lab__report\"><tr><th>Test</th><th>25-Oct-2023</th><th>Reference&#xA0;Range</th><th>Unit</th></tr><tr><td>Ketones [Presence] in Urine by Test strip</td></tr></table></div>"
        },
        "status": "final",
        "subject": {
          "reference": "urn:uuid:60b9b288-9040-4bea-86cb-a18373ee58c2",
          "display": "Θεμιστοκλής Λιναρδάκη"
        },
        "effectiveDateTime": "2023-10-25T06:16:00Z",
        "specimen": {
          "reference": "urn:uuid:2ae9e4bd-1e00-4c6e-b79d-23ae1e95a208"
        }
      }
    },
    {
      "fullUrl": "urn:uuid:f97978b0-e559-48cf-af8b-53d700c353e6",
      "resource": {
        "resourceType": "Observation",
        "id": "f97978b0-e559-48cf-af8b-53d700c353e6",
        "meta": {
          "profile": [
            "http://hl7.eu/fhir/laboratory/StructureDefinition/Observation-resultslab-eu-lab"
          ]
        },
        "performer": [
          {
            "display": "The Central European Lab"
          }
        ],
        "category": [
          {
            "coding": [
              {
                "system": "http://terminology.hl7.org/CodeSystem/observation-category",
                "code": "laboratory"
              }
            ]
          }
        ],
        "code": {
          "coding": [
            {
              "code": "5811-5",
              "system": "http://loinc.org",
              "display": "Specific gravity of Urine by Test strip"
            }
          ],
          "text": "Specific gravity of Urine by Test strip"
        },
        "valueQuantity": {
          "system": "http://unitsofmeasure.org",
          "value": 1,
          "unit": "{nominal}",
          "code": "{nominal}"
        },
        "referenceRange": [
          {
            "low": {
              "value": 1.005,
              "code": "g/mL",
              "system": "http://unitsofmeasure.org"
            }
          },
          {
            "high": {
              "value": 1.03,
              "code": "g/mL",
              "system": "http://unitsofmeasure.org"
            }
          }
        ],
        "interpretation": [
          {
            "coding": [
              {
                "code": "L",
                "system": "http://terminology.hl7.org/CodeSystem/v3-ObservationInterpretation",
                "display": "Low"
              }
            ]
          }
        ],
        "text": {
          "status": "generated",
          "div": "<div xmlns=\"http://www.w3.org/1999/xhtml\"><table class=\"hl7__eu__lab__report\"><tr><th>Test</th><th>25-Oct-2023</th><th>Reference&#xA0;Range</th><th>Unit</th></tr><tr><td>Specific gravity of Urine by Test strip</td><td>1.0</td><td>1.005 - 1.03</td><td>L</td><td>{nominal}</td></tr></table></div>"
        },
        "status": "final",
        "subject": {
          "reference": "urn:uuid:60b9b288-9040-4bea-86cb-a18373ee58c2",
          "display": "Θεμιστοκλής Λιναρδάκη"
        },
        "effectiveDateTime": "2023-10-25T06:16:00Z",
        "specimen": {
          "reference": "urn:uuid:2ae9e4bd-1e00-4c6e-b79d-23ae1e95a208"
        }
      }
    },
    {
      "fullUrl": "urn:uuid:e377bfcf-f2bf-471f-a9c1-460381653764",
      "resource": {
        "resourceType": "Observation",
        "id": "e377bfcf-f2bf-471f-a9c1-460381653764",
        "meta": {
          "profile": [
            "http://hl7.eu/fhir/laboratory/StructureDefinition/Observation-resultslab-eu-lab"
          ]
        },
        "performer": [
          {
            "display": "The Central European Lab"
          }
        ],
        "category": [
          {
            "coding": [
              {
                "system": "http://terminology.hl7.org/CodeSystem/observation-category",
                "code": "laboratory"
              }
            ]
          }
        ],
        "code": {
          "coding": [
            {
              "code": "5803-2",
              "system": "http://loinc.org",
              "display": "pH of Urine by Test strip"
            }
          ],
          "text": "pH of Urine by Test strip"
        },
        "valueQuantity": {
          "system": "http://unitsofmeasure.org",
          "value": 5.5,
          "unit": "pH",
          "code": "pH"
        },
        "referenceRange": [
          {
            "low": {
              "value": 4.6,
              "code": "pH",
              "system": "http://unitsofmeasure.org"
            }
          },
          {
            "high": {
              "value": 7,
              "code": "pH",
              "system": "http://unitsofmeasure.org"
            }
          }
        ],
        "text": {
          "status": "generated",
          "div": "<div xmlns=\"http://www.w3.org/1999/xhtml\"><table class=\"hl7__eu__lab__report\"><tr><th>Test</th><th>25-Oct-2023</th><th>Reference&#xA0;Range</th><th>Unit</th></tr><tr><td>pH of Urine by Test strip</td><td>5.5</td><td>4.6 - 7</td><td></td><td>pH</td></tr></table></div>"
        },
        "status": "final",
        "subject": {
          "reference": "urn:uuid:60b9b288-9040-4bea-86cb-a18373ee58c2",
          "display": "Θεμιστοκλής Λιναρδάκη"
        },
        "effectiveDateTime": "2023-10-25T06:16:00Z",
        "specimen": {
          "reference": "urn:uuid:2ae9e4bd-1e00-4c6e-b79d-23ae1e95a208"
        }
      }
    },
    {
      "fullUrl": "urn:uuid:74e3f695-f697-4e97-9277-77873e6751a4",
      "resource": {
        "resourceType": "Observation",
        "id": "74e3f695-f697-4e97-9277-77873e6751a4",
        "meta": {
          "profile": [
            "http://hl7.eu/fhir/laboratory/StructureDefinition/Observation-resultslab-eu-lab"
          ]
        },
        "performer": [
          {
            "display": "The Central European Lab"
          }
        ],
        "category": [
          {
            "coding": [
              {
                "system": "http://terminology.hl7.org/CodeSystem/observation-category",
                "code": "laboratory"
              }
            ]
          }
        ],
        "code": {
          "coding": [
            {
              "code": "5804-0",
              "system": "http://loinc.org",
              "display": "Protein [Mass/volume] in Urine by Test strip"
            }
          ],
          "text": "Protein [Mass/volume] in Urine by Test strip"
        },
        "valueQuantity": {
          "system": "http://unitsofmeasure.org",
          "value": 243.9,
          "unit": "mg/dL",
          "code": "mg/dL"
        },
        "referenceRange": [
          {
            "low": {
              "value": 0,
              "code": "mg/dL",
              "system": "http://unitsofmeasure.org"
            }
          },
          {
            "high": {
              "value": 150,
              "code": "mg/dL",
              "system": "http://unitsofmeasure.org"
            }
          }
        ],
        "interpretation": [
          {
            "coding": [
              {
                "code": "H",
                "system": "http://terminology.hl7.org/CodeSystem/v3-ObservationInterpretation",
                "display": "High"
              }
            ]
          }
        ],
        "text": {
          "status": "generated",
          "div": "<div xmlns=\"http://www.w3.org/1999/xhtml\"><table class=\"hl7__eu__lab__report\"><tr><th>Test</th><th>25-Oct-2023</th><th>Reference&#xA0;Range</th><th>Unit</th></tr><tr><td>Protein [Mass/volume] in Urine by Test strip</td><td>243.9</td><td>0 - 150</td><td>H</td><td>mg/dL</td></tr></table></div>"
        },
        "status": "final",
        "subject": {
          "reference": "urn:uuid:60b9b288-9040-4bea-86cb-a18373ee58c2",
          "display": "Θεμιστοκλής Λιναρδάκη"
        },
        "effectiveDateTime": "2023-10-25T06:16:00Z",
        "specimen": {
          "reference": "urn:uuid:2ae9e4bd-1e00-4c6e-b79d-23ae1e95a208"
        }
      }
    },
    {
      "fullUrl": "urn:uuid:88f35fd9-134b-4371-b225-61b089b15c86",
      "resource": {
        "resourceType": "Observation",
        "id": "88f35fd9-134b-4371-b225-61b089b15c86",
        "meta": {
          "profile": [
            "http://hl7.eu/fhir/laboratory/StructureDefinition/Observation-resultslab-eu-lab"
          ]
        },
        "performer": [
          {
            "display": "The Central European Lab"
          }
        ],
        "category": [
          {
            "coding": [
              {
                "system": "http://terminology.hl7.org/CodeSystem/observation-category",
                "code": "laboratory"
              }
            ]
          }
        ],
        "code": {
          "coding": [
            {
              "code": "20454-5",
              "system": "http://loinc.org",
              "display": "Protein [Presence] in Urine by Test strip"
            }
          ],
          "text": "Protein [Presence] in Urine by Test strip"
        },
        "text": {
          "status": "generated",
          "div": "<div xmlns=\"http://www.w3.org/1999/xhtml\"><table class=\"hl7__eu__lab__report\"><tr><th>Test</th><th>25-Oct-2023</th><th>Reference&#xA0;Range</th><th>Unit</th></tr><tr><td>Protein [Presence] in Urine by Test strip</td></tr></table></div>"
        },
        "status": "final",
        "subject": {
          "reference": "urn:uuid:60b9b288-9040-4bea-86cb-a18373ee58c2",
          "display": "Θεμιστοκλής Λιναρδάκη"
        },
        "effectiveDateTime": "2023-10-25T06:16:00Z",
        "specimen": {
          "reference": "urn:uuid:2ae9e4bd-1e00-4c6e-b79d-23ae1e95a208"
        }
      }
    },
    {
      "fullUrl": "urn:uuid:e0ba8261-741c-44da-b579-bb759989e10e",
      "resource": {
        "resourceType": "Observation",
        "id": "e0ba8261-741c-44da-b579-bb759989e10e",
        "meta": {
          "profile": [
            "http://hl7.eu/fhir/laboratory/StructureDefinition/Observation-resultslab-eu-lab"
          ]
        },
        "performer": [
          {
            "display": "The Central European Lab"
          }
        ],
        "category": [
          {
            "coding": [
              {
                "system": "http://terminology.hl7.org/CodeSystem/observation-category",
                "code": "laboratory"
              }
            ]
          }
        ],
        "code": {
          "coding": [
            {
              "code": "5802-4",
              "system": "http://loinc.org",
              "display": "Nitrite [Presence] in Urine by Test strip"
            }
          ],
          "text": "Nitrite [Presence] in Urine by Test strip"
        },
        "text": {
          "status": "generated",
          "div": "<div xmlns=\"http://www.w3.org/1999/xhtml\"><table class=\"hl7__eu__lab__report\"><tr><th>Test</th><th>25-Oct-2023</th><th>Reference&#xA0;Range</th><th>Unit</th></tr><tr><td>Nitrite [Presence] in Urine by Test strip</td></tr></table></div>"
        },
        "status": "final",
        "subject": {
          "reference": "urn:uuid:60b9b288-9040-4bea-86cb-a18373ee58c2",
          "display": "Θεμιστοκλής Λιναρδάκη"
        },
        "effectiveDateTime": "2023-10-25T06:16:00Z",
        "specimen": {
          "reference": "urn:uuid:2ae9e4bd-1e00-4c6e-b79d-23ae1e95a208"
        }
      }
    },
    {
      "fullUrl": "urn:uuid:ea6dd1a8-0db9-411e-8cac-66e4b8e2ecce",
      "resource": {
        "resourceType": "Observation",
        "id": "ea6dd1a8-0db9-411e-8cac-66e4b8e2ecce",
        "meta": {
          "profile": [
            "http://hl7.eu/fhir/laboratory/StructureDefinition/Observation-resultslab-eu-lab"
          ]
        },
        "performer": [
          {
            "display": "The Central European Lab"
          }
        ],
        "category": [
          {
            "coding": [
              {
                "system": "http://terminology.hl7.org/CodeSystem/observation-category",
                "code": "laboratory"
              }
            ]
          }
        ],
        "code": {
          "coding": [
            {
              "code": "5794-3",
              "system": "http://loinc.org",
              "display": "Hemoglobin [Presence] in Urine by Test strip"
            }
          ],
          "text": "Hemoglobin [Presence] in Urine by Test strip"
        },
        "text": {
          "status": "generated",
          "div": "<div xmlns=\"http://www.w3.org/1999/xhtml\"><table class=\"hl7__eu__lab__report\"><tr><th>Test</th><th>25-Oct-2023</th><th>Reference&#xA0;Range</th><th>Unit</th></tr><tr><td>Hemoglobin [Presence] in Urine by Test strip</td></tr></table></div>"
        },
        "status": "final",
        "subject": {
          "reference": "urn:uuid:60b9b288-9040-4bea-86cb-a18373ee58c2",
          "display": "Θεμιστοκλής Λιναρδάκη"
        },
        "effectiveDateTime": "2023-10-25T06:16:00Z",
        "specimen": {
          "reference": "urn:uuid:2ae9e4bd-1e00-4c6e-b79d-23ae1e95a208"
        }
      }
    },
    {
      "fullUrl": "urn:uuid:10b1ae9f-a390-46d6-9898-b80de4ed259a",
      "resource": {
        "resourceType": "Observation",
        "id": "10b1ae9f-a390-46d6-9898-b80de4ed259a",
        "meta": {
          "profile": [
            "http://hl7.eu/fhir/laboratory/StructureDefinition/Observation-resultslab-eu-lab"
          ]
        },
        "performer": [
          {
            "display": "The Central European Lab"
          }
        ],
        "category": [
          {
            "coding": [
              {
                "system": "http://terminology.hl7.org/CodeSystem/observation-category",
                "code": "laboratory"
              }
            ]
          }
        ],
        "code": {
          "coding": [
            {
              "code": "5799-2",
              "system": "http://loinc.org",
              "display": "Leukocyte esterase [Presence] in Urine by Test strip"
            }
          ],
          "text": "Leukocyte esterase [Presence] in Urine by Test strip"
        },
        "text": {
          "status": "generated",
          "div": "<div xmlns=\"http://www.w3.org/1999/xhtml\"><table class=\"hl7__eu__lab__report\"><tr><th>Test</th><th>25-Oct-2023</th><th>Reference&#xA0;Range</th><th>Unit</th></tr><tr><td>Leukocyte esterase [Presence] in Urine by Test strip</td></tr></table></div>"
        },
        "status": "final",
        "subject": {
          "reference": "urn:uuid:60b9b288-9040-4bea-86cb-a18373ee58c2",
          "display": "Θεμιστοκλής Λιναρδάκη"
        },
        "effectiveDateTime": "2023-10-25T06:16:00Z",
        "specimen": {
          "reference": "urn:uuid:2ae9e4bd-1e00-4c6e-b79d-23ae1e95a208"
        }
      }
    },
    {
      "fullUrl": "urn:uuid:0984b569-3286-4b99-beeb-b3cc49389315",
      "resource": {
        "resourceType": "Observation",
        "id": "0984b569-3286-4b99-beeb-b3cc49389315",
        "meta": {
          "profile": [
            "http://hl7.eu/fhir/laboratory/StructureDefinition/Observation-resultslab-eu-lab"
          ]
        },
        "performer": [
          {
            "display": "The Central European Lab"
          }
        ],
        "category": [
          {
            "coding": [
              {
                "system": "http://terminology.hl7.org/CodeSystem/observation-category",
                "code": "laboratory"
              }
            ]
          }
        ],
        "code": {
          "coding": [
            {
              "code": "4548-4",
              "system": "http://loinc.org",
              "display": "Hemoglobin A1c/Hemoglobin.total in Blood"
            }
          ],
          "text": "Hemoglobin A1c/Hemoglobin.total in Blood"
        },
        "valueQuantity": {
          "system": "http://unitsofmeasure.org",
          "value": 2.8,
          "unit": "%",
          "code": "%"
        },
        "referenceRange": [
          {
            "low": {
              "value": 4.3,
              "code": "%",
              "system": "http://unitsofmeasure.org"
            }
          },
          {
            "high": {
              "value": 6.4,
              "code": "%",
              "system": "http://unitsofmeasure.org"
            }
          }
        ],
        "interpretation": [
          {
            "coding": [
              {
                "code": "L",
                "system": "http://terminology.hl7.org/CodeSystem/v3-ObservationInterpretation",
                "display": "Low"
              }
            ]
          }
        ],
        "text": {
          "status": "generated",
          "div": "<div xmlns=\"http://www.w3.org/1999/xhtml\"><table class=\"hl7__eu__lab__report\"><tr><th>Test</th><th>25-Oct-2023</th><th>Reference&#xA0;Range</th><th>Unit</th></tr><tr><td>Hemoglobin A1c/Hemoglobin.total in Blood</td><td>2.8</td><td>4.3 - 6.4</td><td>L</td><td>%</td></tr></table></div>"
        },
        "status": "final",
        "subject": {
          "reference": "urn:uuid:60b9b288-9040-4bea-86cb-a18373ee58c2",
          "display": "Θεμιστοκλής Λιναρδάκη"
        },
        "effectiveDateTime": "2023-10-25T06:16:00Z",
        "specimen": {
          "reference": "urn:uuid:fbed763c-10ee-4712-91ad-8a55e3a2c00f"
        }
      }
    },
    {
      "fullUrl": "urn:uuid:9852fb3e-cb0c-4af5-ba83-1d6fb9da4542",
      "resource": {
        "resourceType": "Observation",
        "id": "9852fb3e-cb0c-4af5-ba83-1d6fb9da4542",
        "meta": {
          "profile": [
            "http://hl7.eu/fhir/laboratory/StructureDefinition/Observation-resultslab-eu-lab"
          ]
        },
        "performer": [
          {
            "display": "The Central European Lab"
          }
        ],
        "category": [
          {
            "coding": [
              {
                "system": "http://terminology.hl7.org/CodeSystem/observation-category",
                "code": "laboratory"
              }
            ]
          }
        ],
        "code": {
          "coding": [
            {
              "code": "2339-0",
              "system": "http://loinc.org",
              "display": "Glucose [Mass/volume] in Blood"
            }
          ],
          "text": "Glucose [Mass/volume] in Blood"
        },
        "valueQuantity": {
          "system": "http://unitsofmeasure.org",
          "value": 80.1,
          "unit": "mg/dL",
          "code": "mg/dL"
        },
        "referenceRange": [
          {
            "low": {
              "value": 70,
              "code": "mg/dL",
              "system": "http://unitsofmeasure.org"
            }
          },
          {
            "high": {
              "value": 140,
              "code": "mg/dL",
              "system": "http://unitsofmeasure.org"
            }
          }
        ],
        "text": {
          "status": "generated",
          "div": "<div xmlns=\"http://www.w3.org/1999/xhtml\"><table class=\"hl7__eu__lab__report\"><tr><th>Test</th><th>25-Oct-2023</th><th>Reference&#xA0;Range</th><th>Unit</th></tr><tr><td>Glucose [Mass/volume] in Blood</td><td>80.1</td><td>70 - 140</td><td></td><td>mg/dL</td></tr></table></div>"
        },
        "status": "final",
        "subject": {
          "reference": "urn:uuid:60b9b288-9040-4bea-86cb-a18373ee58c2",
          "display": "Θεμιστοκλής Λιναρδάκη"
        },
        "effectiveDateTime": "2023-10-25T06:16:00Z",
        "specimen": {
          "reference": "urn:uuid:fbed763c-10ee-4712-91ad-8a55e3a2c00f"
        }
      }
    },
    {
      "fullUrl": "urn:uuid:35cbae5d-7ff8-47fa-86e1-204d83cb501f",
      "resource": {
        "resourceType": "Observation",
        "id": "35cbae5d-7ff8-47fa-86e1-204d83cb501f",
        "meta": {
          "profile": [
            "http://hl7.eu/fhir/laboratory/StructureDefinition/Observation-resultslab-eu-lab"
          ]
        },
        "performer": [
          {
            "display": "The Central European Lab"
          }
        ],
        "category": [
          {
            "coding": [
              {
                "system": "http://terminology.hl7.org/CodeSystem/observation-category",
                "code": "laboratory"
              }
            ]
          }
        ],
        "code": {
          "coding": [
            {
              "code": "6299-2",
              "system": "http://loinc.org",
              "display": "Urea nitrogen [Mass/volume] in Blood"
            }
          ],
          "text": "Urea nitrogen [Mass/volume] in Blood"
        },
        "valueQuantity": {
          "system": "http://unitsofmeasure.org",
          "value": 10,
          "unit": "mg/dL",
          "code": "mg/dL"
        },
        "referenceRange": [
          {
            "low": {
              "value": 7,
              "code": "mg/dL",
              "system": "http://unitsofmeasure.org"
            }
          },
          {
            "high": {
              "value": 20,
              "code": "mg/dL",
              "system": "http://unitsofmeasure.org"
            }
          }
        ],
        "text": {
          "status": "generated",
          "div": "<div xmlns=\"http://www.w3.org/1999/xhtml\"><table class=\"hl7__eu__lab__report\"><tr><th>Test</th><th>25-Oct-2023</th><th>Reference&#xA0;Range</th><th>Unit</th></tr><tr><td>Urea nitrogen [Mass/volume] in Blood</td><td>10.0</td><td>7 - 20</td><td></td><td>mg/dL</td></tr></table></div>"
        },
        "status": "final",
        "subject": {
          "reference": "urn:uuid:60b9b288-9040-4bea-86cb-a18373ee58c2",
          "display": "Θεμιστοκλής Λιναρδάκη"
        },
        "effectiveDateTime": "2023-10-25T06:16:00Z",
        "specimen": {
          "reference": "urn:uuid:fbed763c-10ee-4712-91ad-8a55e3a2c00f"
        }
      }
    },
    {
      "fullUrl": "urn:uuid:fafd7c1e-2841-40c2-b0a1-d914f0ed8dad",
      "resource": {
        "resourceType": "Observation",
        "id": "fafd7c1e-2841-40c2-b0a1-d914f0ed8dad",
        "meta": {
          "profile": [
            "http://hl7.eu/fhir/laboratory/StructureDefinition/Observation-resultslab-eu-lab"
          ]
        },
        "performer": [
          {
            "display": "The Central European Lab"
          }
        ],
        "category": [
          {
            "coding": [
              {
                "system": "http://terminology.hl7.org/CodeSystem/observation-category",
                "code": "laboratory"
              }
            ]
          }
        ],
        "code": {
          "coding": [
            {
              "code": "38483-4",
              "system": "http://loinc.org",
              "display": "Creatinine [Mass/volume] in Blood"
            }
          ],
          "text": "Creatinine [Mass/volume] in Blood"
        },
        "valueQuantity": {
          "system": "http://unitsofmeasure.org",
          "value": 4.9,
          "unit": "mg/dL",
          "code": "mg/dL"
        },
        "referenceRange": [
          {
            "low": {
              "value": 0.6,
              "code": "mg/dL",
              "system": "http://unitsofmeasure.org"
            }
          },
          {
            "high": {
              "value": 1.3,
              "code": "mg/dL",
              "system": "http://unitsofmeasure.org"
            }
          }
        ],
        "interpretation": [
          {
            "coding": [
              {
                "code": "H",
                "system": "http://terminology.hl7.org/CodeSystem/v3-ObservationInterpretation",
                "display": "High"
              }
            ]
          }
        ],
        "text": {
          "status": "generated",
          "div": "<div xmlns=\"http://www.w3.org/1999/xhtml\"><table class=\"hl7__eu__lab__report\"><tr><th>Test</th><th>25-Oct-2023</th><th>Reference&#xA0;Range</th><th>Unit</th></tr><tr><td>Creatinine [Mass/volume] in Blood</td><td>4.9</td><td>0.6 - 1.3</td><td>H</td><td>mg/dL</td></tr></table></div>"
        },
        "status": "final",
        "subject": {
          "reference": "urn:uuid:60b9b288-9040-4bea-86cb-a18373ee58c2",
          "display": "Θεμιστοκλής Λιναρδάκη"
        },
        "effectiveDateTime": "2023-10-25T06:16:00Z",
        "specimen": {
          "reference": "urn:uuid:fbed763c-10ee-4712-91ad-8a55e3a2c00f"
        }
      }
    },
    {
      "fullUrl": "urn:uuid:f12f842b-0420-4fa9-b651-c87441e8d8dc",
      "resource": {
        "resourceType": "Observation",
        "id": "f12f842b-0420-4fa9-b651-c87441e8d8dc",
        "meta": {
          "profile": [
            "http://hl7.eu/fhir/laboratory/StructureDefinition/Observation-resultslab-eu-lab"
          ]
        },
        "performer": [
          {
            "display": "The Central European Lab"
          }
        ],
        "category": [
          {
            "coding": [
              {
                "system": "http://terminology.hl7.org/CodeSystem/observation-category",
                "code": "laboratory"
              }
            ]
          }
        ],
        "code": {
          "coding": [
            {
              "code": "49765-1",
              "system": "http://loinc.org",
              "display": "Calcium [Mass/volume] in Blood"
            }
          ],
          "text": "Calcium [Mass/volume] in Blood"
        },
        "valueQuantity": {
          "system": "http://unitsofmeasure.org",
          "value": 9,
          "unit": "mg/dL",
          "code": "mg/dL"
        },
        "referenceRange": [
          {
            "low": {
              "value": 8.5,
              "code": "mg/dL",
              "system": "http://unitsofmeasure.org"
            }
          },
          {
            "high": {
              "value": 10.5,
              "code": "mg/dL",
              "system": "http://unitsofmeasure.org"
            }
          }
        ],
        "text": {
          "status": "generated",
          "div": "<div xmlns=\"http://www.w3.org/1999/xhtml\"><table class=\"hl7__eu__lab__report\"><tr><th>Test</th><th>25-Oct-2023</th><th>Reference&#xA0;Range</th><th>Unit</th></tr><tr><td>Calcium [Mass/volume] in Blood</td><td>9.0</td><td>8.5 - 10.5</td><td></td><td>mg/dL</td></tr></table></div>"
        },
        "status": "final",
        "subject": {
          "reference": "urn:uuid:60b9b288-9040-4bea-86cb-a18373ee58c2",
          "display": "Θεμιστοκλής Λιναρδάκη"
        },
        "effectiveDateTime": "2023-10-25T06:16:00Z",
        "specimen": {
          "reference": "urn:uuid:fbed763c-10ee-4712-91ad-8a55e3a2c00f"
        }
      }
    },
    {
      "fullUrl": "urn:uuid:6511b07e-3945-4513-940a-ef1e35c4d625",
      "resource": {
        "resourceType": "Observation",
        "id": "6511b07e-3945-4513-940a-ef1e35c4d625",
        "meta": {
          "profile": [
            "http://hl7.eu/fhir/laboratory/StructureDefinition/Observation-resultslab-eu-lab"
          ]
        },
        "performer": [
          {
            "display": "The Central European Lab"
          }
        ],
        "category": [
          {
            "coding": [
              {
                "system": "http://terminology.hl7.org/CodeSystem/observation-category",
                "code": "laboratory"
              }
            ]
          }
        ],
        "code": {
          "coding": [
            {
              "code": "2947-0",
              "system": "http://loinc.org",
              "display": "Sodium [Moles/volume] in Blood"
            }
          ],
          "text": "Sodium [Moles/volume] in Blood"
        },
        "valueQuantity": {
          "system": "http://unitsofmeasure.org",
          "value": 137.7,
          "unit": "mmol/L",
          "code": "mmol/L"
        },
        "referenceRange": [
          {
            "low": {
              "value": 135,
              "code": "mmol/L",
              "system": "http://unitsofmeasure.org"
            }
          },
          {
            "high": {
              "value": 145,
              "code": "mmol/L",
              "system": "http://unitsofmeasure.org"
            }
          }
        ],
        "text": {
          "status": "generated",
          "div": "<div xmlns=\"http://www.w3.org/1999/xhtml\"><table class=\"hl7__eu__lab__report\"><tr><th>Test</th><th>25-Oct-2023</th><th>Reference&#xA0;Range</th><th>Unit</th></tr><tr><td>Sodium [Moles/volume] in Blood</td><td>137.7</td><td>135 - 145</td><td></td><td>mmol/L</td></tr></table></div>"
        },
        "status": "final",
        "subject": {
          "reference": "urn:uuid:60b9b288-9040-4bea-86cb-a18373ee58c2",
          "display": "Θεμιστοκλής Λιναρδάκη"
        },
        "effectiveDateTime": "2023-10-25T06:16:00Z",
        "specimen": {
          "reference": "urn:uuid:fbed763c-10ee-4712-91ad-8a55e3a2c00f"
        }
      }
    },
    {
      "fullUrl": "urn:uuid:f754cb62-59c2-4953-a8c8-a86bf6ce2148",
      "resource": {
        "resourceType": "Observation",
        "id": "f754cb62-59c2-4953-a8c8-a86bf6ce2148",
        "meta": {
          "profile": [
            "http://hl7.eu/fhir/laboratory/StructureDefinition/Observation-resultslab-eu-lab"
          ]
        },
        "performer": [
          {
            "display": "The Central European Lab"
          }
        ],
        "category": [
          {
            "coding": [
              {
                "system": "http://terminology.hl7.org/CodeSystem/observation-category",
                "code": "laboratory"
              }
            ]
          }
        ],
        "code": {
          "coding": [
            {
              "code": "6298-4",
              "system": "http://loinc.org",
              "display": "Potassium [Moles/volume] in Blood"
            }
          ],
          "text": "Potassium [Moles/volume] in Blood"
        },
        "valueQuantity": {
          "system": "http://unitsofmeasure.org",
          "value": 4.1,
          "unit": "mmol/L",
          "code": "mmol/L"
        },
        "referenceRange": [
          {
            "low": {
              "value": 3.5,
              "code": "mmol/L",
              "system": "http://unitsofmeasure.org"
            }
          },
          {
            "high": {
              "value": 5.3,
              "code": "mmol/L",
              "system": "http://unitsofmeasure.org"
            }
          }
        ],
        "text": {
          "status": "generated",
          "div": "<div xmlns=\"http://www.w3.org/1999/xhtml\"><table class=\"hl7__eu__lab__report\"><tr><th>Test</th><th>25-Oct-2023</th><th>Reference&#xA0;Range</th><th>Unit</th></tr><tr><td>Potassium [Moles/volume] in Blood</td><td>4.1</td><td>3.5 - 5.3</td><td></td><td>mmol/L</td></tr></table></div>"
        },
        "status": "final",
        "subject": {
          "reference": "urn:uuid:60b9b288-9040-4bea-86cb-a18373ee58c2",
          "display": "Θεμιστοκλής Λιναρδάκη"
        },
        "effectiveDateTime": "2023-10-25T06:16:00Z",
        "specimen": {
          "reference": "urn:uuid:fbed763c-10ee-4712-91ad-8a55e3a2c00f"
        }
      }
    },
    {
      "fullUrl": "urn:uuid:dfff55cd-fe93-438c-b169-35ebec7c93c4",
      "resource": {
        "resourceType": "Observation",
        "id": "dfff55cd-fe93-438c-b169-35ebec7c93c4",
        "meta": {
          "profile": [
            "http://hl7.eu/fhir/laboratory/StructureDefinition/Observation-resultslab-eu-lab"
          ]
        },
        "performer": [
          {
            "display": "The Central European Lab"
          }
        ],
        "category": [
          {
            "coding": [
              {
                "system": "http://terminology.hl7.org/CodeSystem/observation-category",
                "code": "laboratory"
              }
            ]
          }
        ],
        "code": {
          "coding": [
            {
              "code": "2069-3",
              "system": "http://loinc.org",
              "display": "Chloride [Moles/volume] in Blood"
            }
          ],
          "text": "Chloride [Moles/volume] in Blood"
        },
        "valueQuantity": {
          "system": "http://unitsofmeasure.org",
          "value": 104.6,
          "unit": "mmol/L",
          "code": "mmol/L"
        },
        "referenceRange": [
          {
            "low": {
              "value": 98,
              "code": "mmol/L",
              "system": "http://unitsofmeasure.org"
            }
          },
          {
            "high": {
              "value": 110,
              "code": "mmol/L",
              "system": "http://unitsofmeasure.org"
            }
          }
        ],
        "text": {
          "status": "generated",
          "div": "<div xmlns=\"http://www.w3.org/1999/xhtml\"><table class=\"hl7__eu__lab__report\"><tr><th>Test</th><th>25-Oct-2023</th><th>Reference&#xA0;Range</th><th>Unit</th></tr><tr><td>Chloride [Moles/volume] in Blood</td><td>104.6</td><td>98 - 110</td><td></td><td>mmol/L</td></tr></table></div>"
        },
        "status": "final",
        "subject": {
          "reference": "urn:uuid:60b9b288-9040-4bea-86cb-a18373ee58c2",
          "display": "Θεμιστοκλής Λιναρδάκη"
        },
        "effectiveDateTime": "2023-10-25T06:16:00Z",
        "specimen": {
          "reference": "urn:uuid:fbed763c-10ee-4712-91ad-8a55e3a2c00f"
        }
      }
    },
    {
      "fullUrl": "urn:uuid:e2c630f2-d428-4dbe-bc0e-89af39c92085",
      "resource": {
        "resourceType": "Observation",
        "id": "e2c630f2-d428-4dbe-bc0e-89af39c92085",
        "meta": {
          "profile": [
            "http://hl7.eu/fhir/laboratory/StructureDefinition/Observation-resultslab-eu-lab"
          ]
        },
        "performer": [
          {
            "display": "The Central European Lab"
          }
        ],
        "category": [
          {
            "coding": [
              {
                "system": "http://terminology.hl7.org/CodeSystem/observation-category",
                "code": "laboratory"
              }
            ]
          }
        ],
        "code": {
          "coding": [
            {
              "code": "20565-8",
              "system": "http://loinc.org",
              "display": "Carbon dioxide, total [Moles/volume] in Blood"
            }
          ],
          "text": "Carbon dioxide, total [Moles/volume] in Blood"
        },
        "valueQuantity": {
          "system": "http://unitsofmeasure.org",
          "value": 27.8,
          "unit": "mmol/L",
          "code": "mmol/L"
        },
        "referenceRange": [
          {
            "low": {
              "value": 22,
              "code": "mmol/L",
              "system": "http://unitsofmeasure.org"
            }
          },
          {
            "high": {
              "value": 29,
              "code": "mmol/L",
              "system": "http://unitsofmeasure.org"
            }
          }
        ],
        "text": {
          "status": "generated",
          "div": "<div xmlns=\"http://www.w3.org/1999/xhtml\"><table class=\"hl7__eu__lab__report\"><tr><th>Test</th><th>25-Oct-2023</th><th>Reference&#xA0;Range</th><th>Unit</th></tr><tr><td>Carbon dioxide, total [Moles/volume] in Blood</td><td>27.8</td><td>22 - 29</td><td></td><td>mmol/L</td></tr></table></div>"
        },
        "status": "final",
        "subject": {
          "reference": "urn:uuid:60b9b288-9040-4bea-86cb-a18373ee58c2",
          "display": "Θεμιστοκλής Λιναρδάκη"
        },
        "effectiveDateTime": "2023-10-25T06:16:00Z",
        "specimen": {
          "reference": "urn:uuid:fbed763c-10ee-4712-91ad-8a55e3a2c00f"
        }
      }
    },
    {
      "fullUrl": "urn:uuid:f2d259f3-e075-4543-ad79-a441474f7af2",
      "resource": {
        "resourceType": "Device",
        "id": "f2d259f3-e075-4543-ad79-a441474f7af2",
        "deviceName": [
          {
            "name": "SYNDERAI Synthetic Generator",
            "type": "manufacturer-name"
          }
        ],
        "version": [
          {
            "value": "5.0"
          }
        ],
        "text": {
          "status": "generated",
          "div": "<div xmlns=\"http://www.w3.org/1999/xhtml\">SYNDERAI Synthetic Generator v5.0</div>"
        },
        "status": "active\"",
        "distinctIdentifier": "synderai-generator-50",
        "manufacturer": "SYNDERAI Project"
      }
    },
    {
      "fullUrl": "urn:uuid:ffd0f057-2715-4ec0-b135-f4ed8a2e2848",
      "resource": {
        "resourceType": "Provenance",
        "id": "ffd0f057-2715-4ec0-b135-f4ed8a2e2848",
        "target": [
          {
            "reference": "Patient/60b9b288-9040-4bea-86cb-a18373ee58c2"
          },
          {
            "reference": "Bundle/e52bfb59-3f6e-4bd9-bedc-4f5ba167fb34"
          },
          {
            "reference": "Composition/31a08cda-3c28-4252-b599-05a6e0683d77"
          },
          {
            "reference": "PractitionerRole/66d1647d-5aed-4d61-a589-7dcfa4b6a225"
          },
          {
            "reference": "Practitioner/b0cd2129-20cc-470e-b41c-f8325fd3076c"
          },
          {
            "reference": "PractitionerRole/f431e767-d29c-4eaa-b443-ec4dd524df05"
          },
          {
            "reference": "Organization/393b9726-b655-484d-837f-518bfde5cc47"
          }
        ],
        "activity": {
          "text": "Synthetic Example Data Generation"
        },
        "policy": [
          "https://synderai.net/synderai-synthetic-data-policy"
        ],
        "agent": [
          {
            "type": {
              "text": "author"
            },
            "who": {
              "reference": "Device/f2d259f3-e075-4543-ad79-a441474f7af2"
            }
          }
        ],
        "reason": [
          {
            "text": "Interoperability Testing and Training (non-clinical use)"
          }
        ],
        "text": {
          "status": "generated",
          "div": "<div xmlns=\"http://www.w3.org/1999/xhtml\">Provenance for SYNDERAI Synthetic Example Data Resource</div>"
        },
        "recorded": "2023-10-25T08:16:00Z"
      }
    },
    {
      "fullUrl": "urn:uuid:66d1647d-5aed-4d61-a589-7dcfa4b6a225",
      "resource": {
        "resourceType": "PractitionerRole",
        "id": "66d1647d-5aed-4d61-a589-7dcfa4b6a225",
        "meta": {
          "profile": [
            "http://hl7.eu/fhir/base/StructureDefinition/practitionerRole-eu"
          ]
        },
        "text": {
          "status": "generated",
          "div": "<div xmlns=\"http://www.w3.org/1999/xhtml\">Laboratory Role Id: 66d1647d-5aed-4d61-a589-7dcfa4b6a225</div>"
        },
        "practitioner": {
          "reference": "urn:uuid:b0cd2129-20cc-470e-b41c-f8325fd3076c"
        }
      }
    },
    {
      "fullUrl": "urn:uuid:b0cd2129-20cc-470e-b41c-f8325fd3076c",
      "resource": {
        "resourceType": "Practitioner",
        "id": "b0cd2129-20cc-470e-b41c-f8325fd3076c",
        "meta": {
          "profile": [
            "http://hl7.eu/fhir/base/StructureDefinition/practitioner-eu"
          ]
        },
        "identifier": [
          {
            "assigner": {
              "display": "HL7 Europe"
            },
            "system": "urn:oid:2.16.840.1.113883.2.51.999",
            "value": "271898c3-3b55-44d2-a0a7-eaffe144487d"
          }
        ],
        "name": [
          {
            "prefix": [
              "dr"
            ],
            "given": [
              "Ex"
            ],
            "family": "Ample"
          }
        ],
        "address": [
          {
            "line": [
              "Laboratoire Central Européenne",
              "Boulevard du Jardin Botanique 32"
            ],
            "postalCode": "1000",
            "city": "Brussels",
            "country": "Belgium"
          }
        ],
        "text": {
          "status": "generated",
          "div": "<div xmlns=\"http://www.w3.org/1999/xhtml\">Laboratory: Laboratoire Central Européenne, 1000 Brussels, Belgium</div>"
        }
      }
    }
  ],
  "type": "document",
  "timestamp": "2023-10-25T08:16:00Z"
}
