{
  "resourceType": "Bundle",
  "id": "43fc6bb4-391a-4358-8d94-c0690328dca2",
  "meta": {
    "profile": [
      "http://hl7.eu/fhir/laboratory/StructureDefinition/Bundle-eu-lab"
    ]
  },
  "identifier": {
    "assigner": {
      "display": "HL7 Europe"
    },
    "system": "urn:oid:2.16.840.1.113883.2.51.999",
    "value": "00bee99b-5751-4fb5-95bc-ea21410669fa"
  },
  "entry": [
    {
      "fullUrl": "urn:uuid:e850721c-9deb-4a87-9341-49f605fa162e",
      "resource": {
        "resourceType": "Composition",
        "id": "e850721c-9deb-4a87-9341-49f605fa162e",
        "meta": {
          "profile": [
            "http://hl7.eu/fhir/laboratory/StructureDefinition/Composition-eu-lab"
          ]
        },
        "identifier": {
          "assigner": {
            "display": "HL7 Europe"
          },
          "system": "urn:oid:2.16.840.1.113883.2.51.999",
          "value": "d9485708-65c0-4a3f-8306-043ee9c69bb5"
        },
        "author": [
          {
            "reference": "urn:uuid:bfa3bdf3-f9e3-4148-b4f9-2721dc744eba"
          }
        ],
        "category": [
          {
            "coding": [
              {
                "code": "26436-6",
                "system": "http://loinc.org",
                "display": "Laboratory studies (set)"
              }
            ]
          }
        ],
        "type": {
          "coding": [
            {
              "code": "11502-2",
              "system": "http://loinc.org",
              "display": "Laboratory report"
            }
          ],
          "text": "Laboratory Report"
        },
        "section": [
          {
            "code": {
              "coding": [
                {
                  "code": "26436-6",
                  "system": "http://loinc.org",
                  "display": "Laboratory studies (set)"
                }
              ],
              "text": "Laboratory studies"
            },
            "section": [
              {
                "code": {
                  "coding": [
                    {
                      "code": "$18719-5",
                      "system": "http://loinc.org",
                      "display": "Chemistry studies (set)"
                    }
                  ],
                  "text": "Chemistry"
                },
                "entry": [
                  {
                    "reference": "urn:uuid:c54d165a-1356-4f12-a71f-79f04b3f4d07"
                  },
                  {
                    "reference": "urn:uuid:3b2e124a-157c-40a6-991d-bea3f4b4d32b"
                  },
                  {
                    "reference": "urn:uuid:43463ec2-28ff-40f3-9041-21c1f6497cf5"
                  },
                  {
                    "reference": "urn:uuid:49ac55f2-2b3c-42f9-8fa1-29c9c4327bc6"
                  },
                  {
                    "reference": "urn:uuid:bf6aa8a0-42fa-4db6-9682-acbdfadddb93"
                  },
                  {
                    "reference": "urn:uuid:6fe352a9-ae85-41c3-b649-4c01b5b25ae5"
                  },
                  {
                    "reference": "urn:uuid:cdbf97cf-7012-4fdc-9cc5-b28b1af66155"
                  },
                  {
                    "reference": "urn:uuid:1448b913-0436-4894-a61f-5bc46a980d7f"
                  },
                  {
                    "reference": "urn:uuid:37e9a5d7-461c-4e5e-ae1e-de8e9e9891cf"
                  },
                  {
                    "reference": "urn:uuid:5ba31d68-7e2c-48a4-b54a-4d4542886ea6"
                  },
                  {
                    "reference": "urn:uuid:b6049f8c-a9c4-4d1b-9e9a-f2e8586b1c86"
                  },
                  {
                    "reference": "urn:uuid:f28ca973-5e45-46e7-a4ef-77f6d9f01420"
                  },
                  {
                    "reference": "urn:uuid:4334d932-873a-4d33-b143-0b85b1f596af"
                  },
                  {
                    "reference": "urn:uuid:bba695e6-94e7-4782-8fcf-541b15fe3cb5"
                  },
                  {
                    "reference": "urn:uuid:bae37b94-6116-44b7-8b83-19a1bef86891"
                  },
                  {
                    "reference": "urn:uuid:8d55a148-0be3-436d-8275-a0febbc18e47"
                  },
                  {
                    "reference": "urn:uuid:97c31b71-3d60-4748-8ec1-918e573caa5e"
                  },
                  {
                    "reference": "urn:uuid:86a1b337-3259-42f9-9d69-a71aecf8d694"
                  }
                ],
                "text": {
                  "status": "generated",
                  "div": "<div xmlns=\"http://www.w3.org/1999/xhtml\"><h3>Chemistry</h3><table class=\"hl7__eu__lab__report\"><thead><tr><th>Test</th><th>16-JUL-2020</th><th>Reference&#xA0;Range</th><th>Unit</th></tr></thead><tbody><tr><td>Glucose [Mass/volume] in Serum or Plasma</td><td>81.5</td><td>70 - 139</td><td>mg/dL</td></tr><tr><td>Urea nitrogen [Mass/volume] in Serum or Plasma</td><td>11.7</td><td>7 - 20</td><td>mg/dL</td></tr><tr><td>Creatinine [Mass/volume] in Serum or Plasma</td><td><strong>2.1 H</strong></td><td>0.6 - 1.1</td><td>mg/dL</td></tr><tr><td>Calcium [Mass/volume] in Serum or Plasma</td><td>9.1</td><td>8.5 - 10.4</td><td>mg/dL</td></tr><tr><td>Sodium [Moles/volume] in Serum or Plasma</td><td>142.5</td><td>135 - 145</td><td>mmol/L</td></tr><tr><td>Potassium [Moles/volume] in Serum or Plasma</td><td>4.3</td><td>3.5 - 5.1</td><td>mmol/L</td></tr><tr><td>Chloride [Moles/volume] in Serum or Plasma</td><td>105.7</td><td>98 - 110</td><td>mmol/L</td></tr><tr><td>Carbon dioxide, total [Moles/volume] in Serum or Plasma</td><td>27.1</td><td>22 - 32</td><td>mmol/L</td></tr><tr><td>Ketones [Presence] in Urine by Test strip</td><td>Urine ketone test = +</td><td></td><td></td></tr><tr><td>Hemoglobin A1c/Hemoglobin.total in Blood</td><td><strong>3.1 L</strong></td><td>4 - 6</td><td>%</td></tr><tr><td>Glucose [Mass/volume] in Blood</td><td>81.5</td><td>70 - 100</td><td>mg/dL</td></tr><tr><td>Urea nitrogen [Mass/volume] in Blood</td><td>11.7</td><td>7 - 20</td><td>mg/dL</td></tr><tr><td>Creatinine [Mass/volume] in Blood</td><td><strong>1.6 H</strong></td><td>0.6 - 1.3</td><td>mg/dL</td></tr><tr><td>Calcium [Mass/volume] in Blood</td><td>9.1</td><td>8.6 - 10.4</td><td>mg/dL</td></tr><tr><td>Sodium [Moles/volume] in Blood</td><td>142.5</td><td>135 - 145</td><td>mmol/L</td></tr><tr><td>Potassium [Moles/volume] in Blood</td><td>4.3</td><td>3.5 - 5.1</td><td>mmol/L</td></tr><tr><td>Chloride [Moles/volume] in Blood</td><td>105.7</td><td>98 - 110</td><td>mmol/L</td></tr><tr><td>Carbon dioxide, total [Moles/volume] in Blood</td><td>27.1</td><td>22 - 29</td><td>mmol/L</td></tr></tbody></table></div>"
                },
                "title": "Chemistry"
              },
              {
                "code": {
                  "coding": [
                    {
                      "code": "$18729-4",
                      "system": "http://loinc.org",
                      "display": "Urinalysis studies (set)"
                    }
                  ],
                  "text": "Urinalysis"
                },
                "entry": [
                  {
                    "reference": "urn:uuid:5a283895-15ae-4879-a25f-b434d4e05a75"
                  },
                  {
                    "reference": "urn:uuid:1605052e-2cef-48f0-bcc0-ebebbcbbe74e"
                  },
                  {
                    "reference": "urn:uuid:84b010dd-0b20-447e-9865-d2b9917e6eef"
                  },
                  {
                    "reference": "urn:uuid:fcbbab9c-a5e2-4bb8-9070-460d3bc5b751"
                  },
                  {
                    "reference": "urn:uuid:cf3ed8d9-18b9-4048-8f23-82a49496d29c"
                  },
                  {
                    "reference": "urn:uuid:ba7df475-7c52-4443-bbd3-6e2648f4515a"
                  },
                  {
                    "reference": "urn:uuid:8e5b2333-1d27-46c2-9d4e-11848a2d4706"
                  },
                  {
                    "reference": "urn:uuid:1b862fe8-cbed-4a62-8349-85eff52d693f"
                  },
                  {
                    "reference": "urn:uuid:9631ac25-954b-4b37-90d8-a3687f2163fa"
                  },
                  {
                    "reference": "urn:uuid:04a063c7-c395-4052-ad64-54096dfc3fd3"
                  },
                  {
                    "reference": "urn:uuid:8ad1ee33-e00c-47e7-9d59-b359f18b4416"
                  },
                  {
                    "reference": "urn:uuid:55f012c7-b510-4d7a-a0f0-74d9495ff0e5"
                  }
                ],
                "text": {
                  "status": "generated",
                  "div": "<div xmlns=\"http://www.w3.org/1999/xhtml\"><h3>Urinalysis</h3><table class=\"hl7__eu__lab__report\"><thead><tr><th>Test</th><th>16-JUL-2020</th><th>Reference&#xA0;Range</th><th>Unit</th></tr></thead><tbody><tr><td>Glucose [Mass/volume] in Urine by Test strip</td><td><strong>1.3 H</strong></td><td>0 - 0</td><td>mg/dL</td></tr><tr><td>Glucose [Presence] in Urine by Test strip</td><td>++</td><td></td><td></td></tr><tr><td>Bilirubin.total [Mass/volume] in Urine by Test strip</td><td>0.4</td><td>0 - 1.6</td><td>mg/dL</td></tr><tr><td>Bilirubin.total [Presence] in Urine by Test strip</td><td>Finding of bilirubin in urine</td><td></td><td></td></tr><tr><td>Ketones [Mass/volume] in Urine by Test strip</td><td><strong>5.2 H</strong></td><td>0 - 0.5</td><td>mg/dL</td></tr><tr><td>Specific gravity of Urine by Test strip</td><td><strong>1.0 L</strong></td><td>1.005 - 1.03</td><td>{nominal}</td></tr><tr><td>pH of Urine by Test strip</td><td>5.9</td><td>4.5 - 7.5</td><td>pH</td></tr><tr><td>Protein [Mass/volume] in Urine by Test strip</td><td><strong>269.6 H</strong></td><td>0 - 15</td><td>mg/dL</td></tr><tr><td>Protein [Presence] in Urine by Test strip</td><td>Urine protein test = ++</td><td></td><td></td></tr><tr><td>Nitrite [Presence] in Urine by Test strip</td><td>Urine nitrite negative</td><td></td><td></td></tr><tr><td>Hemoglobin [Presence] in Urine by Test strip</td><td>Urine blood test = negative</td><td></td><td></td></tr><tr><td>Leukocyte esterase [Presence] in Urine by Test strip</td><td>Urine leukocyte test negative</td><td></td><td></td></tr></tbody></table></div>"
                },
                "title": "Urinalysis"
              },
              {
                "code": {
                  "coding": [
                    {
                      "code": "$LP7846-1",
                      "system": "http://loinc.org",
                      "display": "Specimen information"
                    }
                  ],
                  "text": "Specimen information"
                },
                "entry": [
                  {
                    "reference": "urn:uuid:51f2973c-a53e-4fac-8d36-3b663476aebd"
                  },
                  {
                    "reference": "urn:uuid:91b9aa3f-e966-4105-84d4-8992beadaa60"
                  },
                  {
                    "reference": "urn:uuid:b01d4fb7-8771-41b5-b890-335da38edaed"
                  },
                  {
                    "reference": "urn:uuid:f48ccd36-2422-4a8d-8671-b58de162b928"
                  }
                ],
                "text": {
                  "status": "generated",
                  "div": "<div xmlns=\"http://www.w3.org/1999/xhtml\"><h3>Specimen information</h3><table class=\"hl7__eu__lab__report\"><thead><tr><th>Test</th><th>16-JUL-2020</th><th>Specimen</th><th></th></tr></thead><tbody><tr><td>Appearance of Urine</td><td>Cloudy urine</td><td>Urine</td><td></td></tr><tr><td>Odor of Urine</td><td>Urine smell ammoniacal</td><td>Urine</td><td></td></tr><tr><td>Clarity of Urine</td><td>Translucent</td><td>Urine</td><td></td></tr><tr><td>Color of Urine</td><td>Brown color</td><td>Urine</td><td></td></tr></tbody></table></div>"
                },
                "title": "Specimen information"
              }
            ],
            "title": "Laboratory Report"
          },
          {
            "text": {
              "status": "generated",
              "div": "<div xmlns=\"http://www.w3.org/1999/xhtml\"><h3>Annotation</h3><table class=\"hl7__eu__lab__report\"><tr><th>Conclusion and Recommendations based on this report and previous findings known to us</th></tr><tr><td>The patient shows elevated creatinine, significant proteinuria, glycosuria, and ketonuria, with low urine specific gravity and low HbA1c. These findings suggest impaired renal function, likely chronic kidney disease, and possible tubular dysfunction. The presence of glucose and ketones in urine with normal blood glucose and low HbA1c may indicate renal glycosuria and ketonuria rather than diabetes. Urine abnormalities (cloudy, brown) warrant further nephrological evaluation and assessment for possible underlying renal pathology.</td></tr></table></div>"
            },
            "code": {
              "coding": [
                {
                  "system": "http://loinc.org",
                  "code": "48767-8",
                  "display": "Annotation comment"
                }
              ]
            },
            "title": "Annotation comment"
          }
        ],
        "status": "final",
        "subject": {
          "reference": "urn:uuid:3925e843-145b-4521-9ed8-bfa3acbe1ae5",
          "display": "Molly Jenkins"
        },
        "date": "2020-07-16T16:42:11Z",
        "title": "Laboratory Report",
        "confidentiality": "N"
      }
    },
    {
      "fullUrl": "urn:uuid:65030d1f-2189-4c26-9474-2e7dc146e2b3",
      "resource": {
        "resourceType": "DiagnosticReport",
        "id": "65030d1f-2189-4c26-9474-2e7dc146e2b3",
        "meta": {
          "profile": [
            "http://hl7.eu/fhir/laboratory/StructureDefinition/DiagnosticReport-eu-lab"
          ]
        },
        "identifier": [
          {
            "assigner": {
              "display": "HL7 Europe"
            },
            "system": "urn:oid:2.16.840.1.113883.2.51.999",
            "value": "3ab5239d-3e0c-4582-80c5-469f6185decd"
          }
        ],
        "extension": [
          {
            "url": "http://hl7.org/fhir/5.0/StructureDefinition/extension-DiagnosticReport.composition",
            "valueReference": {
              "reference": "urn:uuid:d9485708-65c0-4a3f-8306-043ee9c69bb5"
            }
          }
        ],
        "category": [
          {
            "coding": [
              {
                "code": "26436-6",
                "system": "http://loinc.org",
                "display": "Laboratory studies (set)"
              }
            ]
          }
        ],
        "specimen": [
          {
            "reference": "urn:uuid:a12665d7-d191-421d-92fc-310adbffb29b"
          },
          {
            "reference": "urn:uuid:1c4fa926-b646-4ee3-9dc0-31c4f622f925"
          },
          {
            "reference": "urn:uuid:1994bb42-5b28-4a63-82de-5b56673d7289"
          }
        ],
        "result": [
          {
            "reference": "urn:uuid:c54d165a-1356-4f12-a71f-79f04b3f4d07"
          },
          {
            "reference": "urn:uuid:3b2e124a-157c-40a6-991d-bea3f4b4d32b"
          },
          {
            "reference": "urn:uuid:43463ec2-28ff-40f3-9041-21c1f6497cf5"
          },
          {
            "reference": "urn:uuid:49ac55f2-2b3c-42f9-8fa1-29c9c4327bc6"
          },
          {
            "reference": "urn:uuid:bf6aa8a0-42fa-4db6-9682-acbdfadddb93"
          },
          {
            "reference": "urn:uuid:6fe352a9-ae85-41c3-b649-4c01b5b25ae5"
          },
          {
            "reference": "urn:uuid:cdbf97cf-7012-4fdc-9cc5-b28b1af66155"
          },
          {
            "reference": "urn:uuid:1448b913-0436-4894-a61f-5bc46a980d7f"
          },
          {
            "reference": "urn:uuid:51f2973c-a53e-4fac-8d36-3b663476aebd"
          },
          {
            "reference": "urn:uuid:91b9aa3f-e966-4105-84d4-8992beadaa60"
          },
          {
            "reference": "urn:uuid:b01d4fb7-8771-41b5-b890-335da38edaed"
          },
          {
            "reference": "urn:uuid:f48ccd36-2422-4a8d-8671-b58de162b928"
          },
          {
            "reference": "urn:uuid:5a283895-15ae-4879-a25f-b434d4e05a75"
          },
          {
            "reference": "urn:uuid:1605052e-2cef-48f0-bcc0-ebebbcbbe74e"
          },
          {
            "reference": "urn:uuid:84b010dd-0b20-447e-9865-d2b9917e6eef"
          },
          {
            "reference": "urn:uuid:fcbbab9c-a5e2-4bb8-9070-460d3bc5b751"
          },
          {
            "reference": "urn:uuid:cf3ed8d9-18b9-4048-8f23-82a49496d29c"
          },
          {
            "reference": "urn:uuid:37e9a5d7-461c-4e5e-ae1e-de8e9e9891cf"
          },
          {
            "reference": "urn:uuid:ba7df475-7c52-4443-bbd3-6e2648f4515a"
          },
          {
            "reference": "urn:uuid:8e5b2333-1d27-46c2-9d4e-11848a2d4706"
          },
          {
            "reference": "urn:uuid:1b862fe8-cbed-4a62-8349-85eff52d693f"
          },
          {
            "reference": "urn:uuid:9631ac25-954b-4b37-90d8-a3687f2163fa"
          },
          {
            "reference": "urn:uuid:04a063c7-c395-4052-ad64-54096dfc3fd3"
          },
          {
            "reference": "urn:uuid:8ad1ee33-e00c-47e7-9d59-b359f18b4416"
          },
          {
            "reference": "urn:uuid:55f012c7-b510-4d7a-a0f0-74d9495ff0e5"
          },
          {
            "reference": "urn:uuid:5ba31d68-7e2c-48a4-b54a-4d4542886ea6"
          },
          {
            "reference": "urn:uuid:b6049f8c-a9c4-4d1b-9e9a-f2e8586b1c86"
          },
          {
            "reference": "urn:uuid:f28ca973-5e45-46e7-a4ef-77f6d9f01420"
          },
          {
            "reference": "urn:uuid:4334d932-873a-4d33-b143-0b85b1f596af"
          },
          {
            "reference": "urn:uuid:bba695e6-94e7-4782-8fcf-541b15fe3cb5"
          },
          {
            "reference": "urn:uuid:bae37b94-6116-44b7-8b83-19a1bef86891"
          },
          {
            "reference": "urn:uuid:8d55a148-0be3-436d-8275-a0febbc18e47"
          },
          {
            "reference": "urn:uuid:97c31b71-3d60-4748-8ec1-918e573caa5e"
          },
          {
            "reference": "urn:uuid:86a1b337-3259-42f9-9d69-a71aecf8d694"
          }
        ],
        "status": "registered",
        "code": {
          "coding": [
            {
              "code": "11502-2",
              "system": "http://loinc.org",
              "display": "Laboratory report"
            }
          ]
        },
        "subject": {
          "reference": "urn:uuid:3925e843-145b-4521-9ed8-bfa3acbe1ae5",
          "display": "Molly Jenkins"
        }
      }
    },
    {
      "fullUrl": "urn:uuid:3925e843-145b-4521-9ed8-bfa3acbe1ae5",
      "resource": {
        "resourceType": "Patient",
        "id": "3925e843-145b-4521-9ed8-bfa3acbe1ae5",
        "meta": {
          "security": [
            {
              "system": "http://terminology.hl7.org/CodeSystem/v3-ActReason",
              "code": "HTEST"
            },
            {
              "system": "http://terminology.hl7.org/CodeSystem/v3-ActReason",
              "code": "TRAIN"
            }
          ],
          "tag": [
            {
              "system": "https://synderai.net/fhir/CodeSystem/tags",
              "code": "synthetic",
              "display": "SYNDERAI Synthetic data"
            }
          ],
          "profile": [
            "http://hl7.eu/fhir/base/StructureDefinition/patient-eu-core"
          ]
        },
        "identifier": [
          {
            "type": {
              "coding": [
                {
                  "code": "PT",
                  "system": "http://terminology.hl7.org/CodeSystem/v2-0203"
                }
              ]
            },
            "system": "http://ec.europa.eu/identifier/eci",
            "value": "7634-012682-0"
          },
          {
            "type": {
              "coding": [
                {
                  "code": "MR",
                  "system": "http://terminology.hl7.org/CodeSystem/v2-0203"
                }
              ]
            },
            "system": "http://local.setting.eu/identifier",
            "value": "9934a8eb-b6e1-34e1-edf5-57a0262d1bea"
          }
        ],
        "name": [
          {
            "family": "Jenkins"
          },
          {
            "given": [
              "Molly"
            ]
          },
          {
            "text": "Molly Jenkins"
          }
        ],
        "address": [
          {
            "line": [
              "98 Ali field"
            ],
            "use": "home",
            "type": "physical",
            "postalCode": "AB42",
            "city": "Port Jennamouth",
            "country": "United Kingdom"
          }
        ],
        "telecom": [
          {
            "system": "phone",
            "value": "(0118) 496 0334"
          }
        ],
        "extension": [
          {
            "url": "http://hl7.org/fhir/StructureDefinition/patient-nationality",
            "valueCodeableConcept": {
              "coding": [
                {
                  "code": "GB",
                  "system": "http://hl7.org/fhir/ValueSet/country"
                }
              ]
            }
          }
        ],
        "text": {
          "status": "generated",
          "div": "<div xmlns=\"http://www.w3.org/1999/xhtml\"><table class=\"hl7__ips\"><tr><td>Molly Jenkins</td><td>female</td><td>14-Aug-1967</td></tr></table></div>"
        },
        "gender": "female",
        "birthDate": "1967-08-14"
      }
    },
    {
      "fullUrl": "urn:uuid:b0fee233-71ca-478d-83f4-9f2daa871b66",
      "resource": {
        "resourceType": "ServiceRequest",
        "id": "b0fee233-71ca-478d-83f4-9f2daa871b66",
        "meta": {
          "profile": [
            "http://hl7.eu/fhir/laboratory/StructureDefinition/ServiceRequest-eu-lab"
          ]
        },
        "identifier": [
          {
            "system": "http://example.org",
            "value": "e4bc2554-0735-4b1e-9b91-428ca916e060"
          }
        ],
        "specimen": [
          {
            "reference": "urn:uuid:a12665d7-d191-421d-92fc-310adbffb29b"
          },
          {
            "reference": "urn:uuid:1c4fa926-b646-4ee3-9dc0-31c4f622f925"
          },
          {
            "reference": "urn:uuid:1994bb42-5b28-4a63-82de-5b56673d7289"
          }
        ],
        "reasonCode": [
          {
            "coding": [
              {
                "code": "431856006",
                "system": "http://snomed.info/sct",
                "display": "Chronic kidney disease stage 2"
              }
            ]
          },
          {
            "coding": [
              {
                "code": "90781000119102",
                "system": "http://snomed.info/sct",
                "display": "Microalbuminuria due to type 2 diabetes mellitus"
              }
            ]
          },
          {
            "coding": [
              {
                "code": "127013003",
                "system": "http://snomed.info/sct",
                "display": "Disorder of kidney due to diabetes mellitus"
              }
            ]
          },
          {
            "coding": [
              {
                "code": "431855005",
                "system": "http://snomed.info/sct",
                "display": "Chronic kidney disease stage 1"
              }
            ]
          },
          {
            "coding": [
              {
                "code": "15777000",
                "system": "http://snomed.info/sct",
                "display": "Prediabetes"
              }
            ]
          },
          {
            "coding": [
              {
                "code": "59621000",
                "system": "http://snomed.info/sct",
                "display": "Essential hypertension"
              }
            ]
          },
          {
            "coding": [
              {
                "code": "53827007",
                "system": "http://snomed.info/sct",
                "display": "Excessive salivation"
              }
            ]
          },
          {
            "coding": [
              {
                "code": "64859006",
                "system": "http://snomed.info/sct",
                "display": "Osteoporosis"
              }
            ]
          },
          {
            "coding": [
              {
                "code": "128188000",
                "system": "http://snomed.info/sct",
                "display": "Cerebral palsy"
              }
            ]
          },
          {
            "coding": [
              {
                "code": "235595009",
                "system": "http://snomed.info/sct",
                "display": "Gastroesophageal reflux disease"
              }
            ]
          }
        ],
        "status": "active",
        "intent": "order",
        "code": {
          "coding": [
            {
              "code": "108252007",
              "system": "http://snomed.info/sct",
              "display": "Laboratory procedure"
            }
          ]
        },
        "subject": {
          "reference": "urn:uuid:3925e843-145b-4521-9ed8-bfa3acbe1ae5",
          "display": "Molly Jenkins"
        },
        "requester": {
          "reference": "urn:uuid:e298a830-9dde-476b-9cae-186c3aa4255e"
        }
      }
    },
    {
      "fullUrl": "urn:uuid:e298a830-9dde-476b-9cae-186c3aa4255e",
      "resource": {
        "resourceType": "PractitionerRole",
        "id": "e298a830-9dde-476b-9cae-186c3aa4255e",
        "meta": {
          "profile": [
            "http://hl7.eu/fhir/base/StructureDefinition/practitionerRole-eu"
          ]
        },
        "text": {
          "status": "generated",
          "div": "<div xmlns=\"http://www.w3.org/1999/xhtml\">Provider Role Id: e298a830-9dde-476b-9cae-186c3aa4255e</div>"
        },
        "organization": {
          "reference": "urn:uuid:1890256f-afff-4a1f-ab69-9c846cee315f"
        }
      }
    },
    {
      "fullUrl": "urn:uuid:1890256f-afff-4a1f-ab69-9c846cee315f",
      "resource": {
        "resourceType": "Organization",
        "id": "1890256f-afff-4a1f-ab69-9c846cee315f",
        "meta": {
          "profile": [
            "http://hl7.eu/fhir/base/StructureDefinition/organization-eu"
          ]
        },
        "identifier": [
          {
            "assigner": {
              "display": "HL7 Europe"
            },
            "system": "urn:oid:2.16.840.1.113883.2.51.999",
            "value": "33dceed0-5edc-4d18-9b13-e29d13793376"
          }
        ],
        "address": [
          {
            "city": "Aberdeen",
            "postalCode": "AB11 6",
            "country": "United Kingdom"
          }
        ],
        "text": {
          "status": "generated",
          "div": "<div xmlns=\"http://www.w3.org/1999/xhtml\">Provider Organization: Aberdeen Community Health and Care Village</div>"
        },
        "name": "Aberdeen Community Health and Care Village"
      }
    },
    {
      "fullUrl": "urn:uuid:a12665d7-d191-421d-92fc-310adbffb29b",
      "resource": {
        "resourceType": "Specimen",
        "id": "a12665d7-d191-421d-92fc-310adbffb29b",
        "meta": {
          "profile": [
            "http://hl7.eu/fhir/laboratory/StructureDefinition/Specimen-eu-lab"
          ]
        },
        "collection": {
          "collectedDateTime": "2020-07-16"
        },
        "text": {
          "status": "generated",
          "div": "<div xmlns=\"http://www.w3.org/1999/xhtml\"><table class=\"hl7__eu__lab__report\"><tr><th>Specimen</th><th>Collection Date</th></tr><tr><td>Acellular blood (serum or plasma) specimen</td><td><span class=\"nb\">16-Jul-2020</span></td></tr></table></div>"
        },
        "type": {
          "coding": [
            {
              "code": "122592007",
              "system": "http://snomed.info/sct",
              "display": "Acellular blood (serum or plasma) specimen"
            }
          ]
        }
      }
    },
    {
      "fullUrl": "urn:uuid:1c4fa926-b646-4ee3-9dc0-31c4f622f925",
      "resource": {
        "resourceType": "Specimen",
        "id": "1c4fa926-b646-4ee3-9dc0-31c4f622f925",
        "meta": {
          "profile": [
            "http://hl7.eu/fhir/laboratory/StructureDefinition/Specimen-eu-lab"
          ]
        },
        "collection": {
          "collectedDateTime": "2020-07-16"
        },
        "text": {
          "status": "generated",
          "div": "<div xmlns=\"http://www.w3.org/1999/xhtml\"><table class=\"hl7__eu__lab__report\"><tr><th>Specimen</th><th>Collection Date</th></tr><tr><td>Urine specimen</td><td><span class=\"nb\">16-Jul-2020</span></td></tr></table></div>"
        },
        "type": {
          "coding": [
            {
              "code": "122575003",
              "system": "http://snomed.info/sct",
              "display": "Urine specimen"
            }
          ]
        }
      }
    },
    {
      "fullUrl": "urn:uuid:1994bb42-5b28-4a63-82de-5b56673d7289",
      "resource": {
        "resourceType": "Specimen",
        "id": "1994bb42-5b28-4a63-82de-5b56673d7289",
        "meta": {
          "profile": [
            "http://hl7.eu/fhir/laboratory/StructureDefinition/Specimen-eu-lab"
          ]
        },
        "collection": {
          "collectedDateTime": "2020-07-16"
        },
        "text": {
          "status": "generated",
          "div": "<div xmlns=\"http://www.w3.org/1999/xhtml\"><table class=\"hl7__eu__lab__report\"><tr><th>Specimen</th><th>Collection Date</th></tr><tr><td>Whole blood specimen (specimen)</td><td><span class=\"nb\">16-Jul-2020</span></td></tr></table></div>"
        },
        "type": {
          "coding": [
            {
              "code": "258580003",
              "system": "http://snomed.info/sct",
              "display": "Whole blood specimen (specimen)"
            }
          ]
        }
      }
    },
    {
      "fullUrl": "urn:uuid:c54d165a-1356-4f12-a71f-79f04b3f4d07",
      "resource": {
        "resourceType": "Observation",
        "id": "c54d165a-1356-4f12-a71f-79f04b3f4d07",
        "meta": {
          "profile": [
            "http://hl7.eu/fhir/laboratory/StructureDefinition/Observation-resultslab-eu-lab"
          ]
        },
        "performer": [
          {
            "display": "The Central European Lab"
          }
        ],
        "category": [
          {
            "coding": [
              {
                "system": "http://terminology.hl7.org/CodeSystem/observation-category",
                "code": "laboratory"
              }
            ]
          }
        ],
        "code": {
          "coding": [
            {
              "code": "2345-7",
              "system": "http://loinc.org",
              "display": "Glucose [Mass/volume] in Serum or Plasma"
            }
          ],
          "text": "Glucose [Mass/volume] in Serum or Plasma"
        },
        "valueQuantity": {
          "system": "http://unitsofmeasure.org",
          "value": 81.5,
          "unit": "mg/dL",
          "code": "mg/dL"
        },
        "referenceRange": [
          {
            "low": {
              "value": 70,
              "code": "mg/dL",
              "system": "http://unitsofmeasure.org"
            }
          },
          {
            "high": {
              "value": 139,
              "code": "mg/dL",
              "system": "http://unitsofmeasure.org"
            }
          }
        ],
        "text": {
          "status": "generated",
          "div": "<div xmlns=\"http://www.w3.org/1999/xhtml\"><table class=\"hl7__eu__lab__report\"><tr><th>Test</th><th>16-Jul-2020</th><th>Reference&#xA0;Range</th><th>Unit</th></tr><tr><td>Glucose [Mass/volume] in Serum or Plasma</td><td>81.5</td><td>70 - 139</td><td></td><td>mg/dL</td></tr></table></div>"
        },
        "status": "final",
        "subject": {
          "reference": "urn:uuid:3925e843-145b-4521-9ed8-bfa3acbe1ae5",
          "display": "Molly Jenkins"
        },
        "effectiveDateTime": "2020-07-16T14:42:11Z",
        "specimen": {
          "reference": "urn:uuid:a12665d7-d191-421d-92fc-310adbffb29b"
        }
      }
    },
    {
      "fullUrl": "urn:uuid:3b2e124a-157c-40a6-991d-bea3f4b4d32b",
      "resource": {
        "resourceType": "Observation",
        "id": "3b2e124a-157c-40a6-991d-bea3f4b4d32b",
        "meta": {
          "profile": [
            "http://hl7.eu/fhir/laboratory/StructureDefinition/Observation-resultslab-eu-lab"
          ]
        },
        "performer": [
          {
            "display": "The Central European Lab"
          }
        ],
        "category": [
          {
            "coding": [
              {
                "system": "http://terminology.hl7.org/CodeSystem/observation-category",
                "code": "laboratory"
              }
            ]
          }
        ],
        "code": {
          "coding": [
            {
              "code": "3094-0",
              "system": "http://loinc.org",
              "display": "Urea nitrogen [Mass/volume] in Serum or Plasma"
            }
          ],
          "text": "Urea nitrogen [Mass/volume] in Serum or Plasma"
        },
        "valueQuantity": {
          "system": "http://unitsofmeasure.org",
          "value": 11.7,
          "unit": "mg/dL",
          "code": "mg/dL"
        },
        "referenceRange": [
          {
            "low": {
              "value": 7,
              "code": "mg/dL",
              "system": "http://unitsofmeasure.org"
            }
          },
          {
            "high": {
              "value": 20,
              "code": "mg/dL",
              "system": "http://unitsofmeasure.org"
            }
          }
        ],
        "text": {
          "status": "generated",
          "div": "<div xmlns=\"http://www.w3.org/1999/xhtml\"><table class=\"hl7__eu__lab__report\"><tr><th>Test</th><th>16-Jul-2020</th><th>Reference&#xA0;Range</th><th>Unit</th></tr><tr><td>Urea nitrogen [Mass/volume] in Serum or Plasma</td><td>11.7</td><td>7 - 20</td><td></td><td>mg/dL</td></tr></table></div>"
        },
        "status": "final",
        "subject": {
          "reference": "urn:uuid:3925e843-145b-4521-9ed8-bfa3acbe1ae5",
          "display": "Molly Jenkins"
        },
        "effectiveDateTime": "2020-07-16T14:42:11Z",
        "specimen": {
          "reference": "urn:uuid:a12665d7-d191-421d-92fc-310adbffb29b"
        }
      }
    },
    {
      "fullUrl": "urn:uuid:43463ec2-28ff-40f3-9041-21c1f6497cf5",
      "resource": {
        "resourceType": "Observation",
        "id": "43463ec2-28ff-40f3-9041-21c1f6497cf5",
        "meta": {
          "profile": [
            "http://hl7.eu/fhir/laboratory/StructureDefinition/Observation-resultslab-eu-lab"
          ]
        },
        "performer": [
          {
            "display": "The Central European Lab"
          }
        ],
        "category": [
          {
            "coding": [
              {
                "system": "http://terminology.hl7.org/CodeSystem/observation-category",
                "code": "laboratory"
              }
            ]
          }
        ],
        "code": {
          "coding": [
            {
              "code": "2160-0",
              "system": "http://loinc.org",
              "display": "Creatinine [Mass/volume] in Serum or Plasma"
            }
          ],
          "text": "Creatinine [Mass/volume] in Serum or Plasma"
        },
        "valueQuantity": {
          "system": "http://unitsofmeasure.org",
          "value": 2.1,
          "unit": "mg/dL",
          "code": "mg/dL"
        },
        "referenceRange": [
          {
            "low": {
              "value": 0.6,
              "code": "mg/dL",
              "system": "http://unitsofmeasure.org"
            }
          },
          {
            "high": {
              "value": 1.1,
              "code": "mg/dL",
              "system": "http://unitsofmeasure.org"
            }
          }
        ],
        "interpretation": [
          {
            "coding": [
              {
                "code": "H",
                "system": "http://terminology.hl7.org/CodeSystem/v3-ObservationInterpretation",
                "display": "High"
              }
            ]
          }
        ],
        "text": {
          "status": "generated",
          "div": "<div xmlns=\"http://www.w3.org/1999/xhtml\"><table class=\"hl7__eu__lab__report\"><tr><th>Test</th><th>16-Jul-2020</th><th>Reference&#xA0;Range</th><th>Unit</th></tr><tr><td>Creatinine [Mass/volume] in Serum or Plasma</td><td>2.1</td><td>0.6 - 1.1</td><td>H</td><td>mg/dL</td></tr></table></div>"
        },
        "status": "final",
        "subject": {
          "reference": "urn:uuid:3925e843-145b-4521-9ed8-bfa3acbe1ae5",
          "display": "Molly Jenkins"
        },
        "effectiveDateTime": "2020-07-16T14:42:11Z",
        "specimen": {
          "reference": "urn:uuid:a12665d7-d191-421d-92fc-310adbffb29b"
        }
      }
    },
    {
      "fullUrl": "urn:uuid:49ac55f2-2b3c-42f9-8fa1-29c9c4327bc6",
      "resource": {
        "resourceType": "Observation",
        "id": "49ac55f2-2b3c-42f9-8fa1-29c9c4327bc6",
        "meta": {
          "profile": [
            "http://hl7.eu/fhir/laboratory/StructureDefinition/Observation-resultslab-eu-lab"
          ]
        },
        "performer": [
          {
            "display": "The Central European Lab"
          }
        ],
        "category": [
          {
            "coding": [
              {
                "system": "http://terminology.hl7.org/CodeSystem/observation-category",
                "code": "laboratory"
              }
            ]
          }
        ],
        "code": {
          "coding": [
            {
              "code": "17861-6",
              "system": "http://loinc.org",
              "display": "Calcium [Mass/volume] in Serum or Plasma"
            }
          ],
          "text": "Calcium [Mass/volume] in Serum or Plasma"
        },
        "valueQuantity": {
          "system": "http://unitsofmeasure.org",
          "value": 9.1,
          "unit": "mg/dL",
          "code": "mg/dL"
        },
        "referenceRange": [
          {
            "low": {
              "value": 8.5,
              "code": "mg/dL",
              "system": "http://unitsofmeasure.org"
            }
          },
          {
            "high": {
              "value": 10.4,
              "code": "mg/dL",
              "system": "http://unitsofmeasure.org"
            }
          }
        ],
        "text": {
          "status": "generated",
          "div": "<div xmlns=\"http://www.w3.org/1999/xhtml\"><table class=\"hl7__eu__lab__report\"><tr><th>Test</th><th>16-Jul-2020</th><th>Reference&#xA0;Range</th><th>Unit</th></tr><tr><td>Calcium [Mass/volume] in Serum or Plasma</td><td>9.1</td><td>8.5 - 10.4</td><td></td><td>mg/dL</td></tr></table></div>"
        },
        "status": "final",
        "subject": {
          "reference": "urn:uuid:3925e843-145b-4521-9ed8-bfa3acbe1ae5",
          "display": "Molly Jenkins"
        },
        "effectiveDateTime": "2020-07-16T14:42:11Z",
        "specimen": {
          "reference": "urn:uuid:a12665d7-d191-421d-92fc-310adbffb29b"
        }
      }
    },
    {
      "fullUrl": "urn:uuid:bf6aa8a0-42fa-4db6-9682-acbdfadddb93",
      "resource": {
        "resourceType": "Observation",
        "id": "bf6aa8a0-42fa-4db6-9682-acbdfadddb93",
        "meta": {
          "profile": [
            "http://hl7.eu/fhir/laboratory/StructureDefinition/Observation-resultslab-eu-lab"
          ]
        },
        "performer": [
          {
            "display": "The Central European Lab"
          }
        ],
        "category": [
          {
            "coding": [
              {
                "system": "http://terminology.hl7.org/CodeSystem/observation-category",
                "code": "laboratory"
              }
            ]
          }
        ],
        "code": {
          "coding": [
            {
              "code": "2951-2",
              "system": "http://loinc.org",
              "display": "Sodium [Moles/volume] in Serum or Plasma"
            }
          ],
          "text": "Sodium [Moles/volume] in Serum or Plasma"
        },
        "valueQuantity": {
          "system": "http://unitsofmeasure.org",
          "value": 142.5,
          "unit": "mmol/L",
          "code": "mmol/L"
        },
        "referenceRange": [
          {
            "low": {
              "value": 135,
              "code": "mmol/L",
              "system": "http://unitsofmeasure.org"
            }
          },
          {
            "high": {
              "value": 145,
              "code": "mmol/L",
              "system": "http://unitsofmeasure.org"
            }
          }
        ],
        "text": {
          "status": "generated",
          "div": "<div xmlns=\"http://www.w3.org/1999/xhtml\"><table class=\"hl7__eu__lab__report\"><tr><th>Test</th><th>16-Jul-2020</th><th>Reference&#xA0;Range</th><th>Unit</th></tr><tr><td>Sodium [Moles/volume] in Serum or Plasma</td><td>142.5</td><td>135 - 145</td><td></td><td>mmol/L</td></tr></table></div>"
        },
        "status": "final",
        "subject": {
          "reference": "urn:uuid:3925e843-145b-4521-9ed8-bfa3acbe1ae5",
          "display": "Molly Jenkins"
        },
        "effectiveDateTime": "2020-07-16T14:42:11Z",
        "specimen": {
          "reference": "urn:uuid:a12665d7-d191-421d-92fc-310adbffb29b"
        }
      }
    },
    {
      "fullUrl": "urn:uuid:6fe352a9-ae85-41c3-b649-4c01b5b25ae5",
      "resource": {
        "resourceType": "Observation",
        "id": "6fe352a9-ae85-41c3-b649-4c01b5b25ae5",
        "meta": {
          "profile": [
            "http://hl7.eu/fhir/laboratory/StructureDefinition/Observation-resultslab-eu-lab"
          ]
        },
        "performer": [
          {
            "display": "The Central European Lab"
          }
        ],
        "category": [
          {
            "coding": [
              {
                "system": "http://terminology.hl7.org/CodeSystem/observation-category",
                "code": "laboratory"
              }
            ]
          }
        ],
        "code": {
          "coding": [
            {
              "code": "2823-3",
              "system": "http://loinc.org",
              "display": "Potassium [Moles/volume] in Serum or Plasma"
            }
          ],
          "text": "Potassium [Moles/volume] in Serum or Plasma"
        },
        "valueQuantity": {
          "system": "http://unitsofmeasure.org",
          "value": 4.3,
          "unit": "mmol/L",
          "code": "mmol/L"
        },
        "referenceRange": [
          {
            "low": {
              "value": 3.5,
              "code": "mmol/L",
              "system": "http://unitsofmeasure.org"
            }
          },
          {
            "high": {
              "value": 5.1,
              "code": "mmol/L",
              "system": "http://unitsofmeasure.org"
            }
          }
        ],
        "text": {
          "status": "generated",
          "div": "<div xmlns=\"http://www.w3.org/1999/xhtml\"><table class=\"hl7__eu__lab__report\"><tr><th>Test</th><th>16-Jul-2020</th><th>Reference&#xA0;Range</th><th>Unit</th></tr><tr><td>Potassium [Moles/volume] in Serum or Plasma</td><td>4.3</td><td>3.5 - 5.1</td><td></td><td>mmol/L</td></tr></table></div>"
        },
        "status": "final",
        "subject": {
          "reference": "urn:uuid:3925e843-145b-4521-9ed8-bfa3acbe1ae5",
          "display": "Molly Jenkins"
        },
        "effectiveDateTime": "2020-07-16T14:42:11Z",
        "specimen": {
          "reference": "urn:uuid:a12665d7-d191-421d-92fc-310adbffb29b"
        }
      }
    },
    {
      "fullUrl": "urn:uuid:cdbf97cf-7012-4fdc-9cc5-b28b1af66155",
      "resource": {
        "resourceType": "Observation",
        "id": "cdbf97cf-7012-4fdc-9cc5-b28b1af66155",
        "meta": {
          "profile": [
            "http://hl7.eu/fhir/laboratory/StructureDefinition/Observation-resultslab-eu-lab"
          ]
        },
        "performer": [
          {
            "display": "The Central European Lab"
          }
        ],
        "category": [
          {
            "coding": [
              {
                "system": "http://terminology.hl7.org/CodeSystem/observation-category",
                "code": "laboratory"
              }
            ]
          }
        ],
        "code": {
          "coding": [
            {
              "code": "2075-0",
              "system": "http://loinc.org",
              "display": "Chloride [Moles/volume] in Serum or Plasma"
            }
          ],
          "text": "Chloride [Moles/volume] in Serum or Plasma"
        },
        "valueQuantity": {
          "system": "http://unitsofmeasure.org",
          "value": 105.7,
          "unit": "mmol/L",
          "code": "mmol/L"
        },
        "referenceRange": [
          {
            "low": {
              "value": 98,
              "code": "mmol/L",
              "system": "http://unitsofmeasure.org"
            }
          },
          {
            "high": {
              "value": 110,
              "code": "mmol/L",
              "system": "http://unitsofmeasure.org"
            }
          }
        ],
        "text": {
          "status": "generated",
          "div": "<div xmlns=\"http://www.w3.org/1999/xhtml\"><table class=\"hl7__eu__lab__report\"><tr><th>Test</th><th>16-Jul-2020</th><th>Reference&#xA0;Range</th><th>Unit</th></tr><tr><td>Chloride [Moles/volume] in Serum or Plasma</td><td>105.7</td><td>98 - 110</td><td></td><td>mmol/L</td></tr></table></div>"
        },
        "status": "final",
        "subject": {
          "reference": "urn:uuid:3925e843-145b-4521-9ed8-bfa3acbe1ae5",
          "display": "Molly Jenkins"
        },
        "effectiveDateTime": "2020-07-16T14:42:11Z",
        "specimen": {
          "reference": "urn:uuid:a12665d7-d191-421d-92fc-310adbffb29b"
        }
      }
    },
    {
      "fullUrl": "urn:uuid:1448b913-0436-4894-a61f-5bc46a980d7f",
      "resource": {
        "resourceType": "Observation",
        "id": "1448b913-0436-4894-a61f-5bc46a980d7f",
        "meta": {
          "profile": [
            "http://hl7.eu/fhir/laboratory/StructureDefinition/Observation-resultslab-eu-lab"
          ]
        },
        "performer": [
          {
            "display": "The Central European Lab"
          }
        ],
        "category": [
          {
            "coding": [
              {
                "system": "http://terminology.hl7.org/CodeSystem/observation-category",
                "code": "laboratory"
              }
            ]
          }
        ],
        "code": {
          "coding": [
            {
              "code": "2028-9",
              "system": "http://loinc.org",
              "display": "Carbon dioxide, total [Moles/volume] in Serum or Plasma"
            }
          ],
          "text": "Carbon dioxide, total [Moles/volume] in Serum or Plasma"
        },
        "valueQuantity": {
          "system": "http://unitsofmeasure.org",
          "value": 27.1,
          "unit": "mmol/L",
          "code": "mmol/L"
        },
        "referenceRange": [
          {
            "low": {
              "value": 22,
              "code": "mmol/L",
              "system": "http://unitsofmeasure.org"
            }
          },
          {
            "high": {
              "value": 32,
              "code": "mmol/L",
              "system": "http://unitsofmeasure.org"
            }
          }
        ],
        "text": {
          "status": "generated",
          "div": "<div xmlns=\"http://www.w3.org/1999/xhtml\"><table class=\"hl7__eu__lab__report\"><tr><th>Test</th><th>16-Jul-2020</th><th>Reference&#xA0;Range</th><th>Unit</th></tr><tr><td>Carbon dioxide, total [Moles/volume] in Serum or Plasma</td><td>27.1</td><td>22 - 32</td><td></td><td>mmol/L</td></tr></table></div>"
        },
        "status": "final",
        "subject": {
          "reference": "urn:uuid:3925e843-145b-4521-9ed8-bfa3acbe1ae5",
          "display": "Molly Jenkins"
        },
        "effectiveDateTime": "2020-07-16T14:42:11Z",
        "specimen": {
          "reference": "urn:uuid:a12665d7-d191-421d-92fc-310adbffb29b"
        }
      }
    },
    {
      "fullUrl": "urn:uuid:51f2973c-a53e-4fac-8d36-3b663476aebd",
      "resource": {
        "resourceType": "Observation",
        "id": "51f2973c-a53e-4fac-8d36-3b663476aebd",
        "meta": {
          "profile": [
            "http://hl7.eu/fhir/laboratory/StructureDefinition/Observation-resultslab-eu-lab"
          ]
        },
        "performer": [
          {
            "display": "The Central European Lab"
          }
        ],
        "category": [
          {
            "coding": [
              {
                "system": "http://terminology.hl7.org/CodeSystem/observation-category",
                "code": "laboratory"
              }
            ]
          }
        ],
        "code": {
          "coding": [
            {
              "code": "5767-9",
              "system": "http://loinc.org",
              "display": "Appearance of Urine"
            }
          ],
          "text": "Appearance of Urine"
        },
        "text": {
          "status": "generated",
          "div": "<div xmlns=\"http://www.w3.org/1999/xhtml\"><table class=\"hl7__eu__lab__report\"><tr><th>Test</th><th>16-Jul-2020</th><th>Reference&#xA0;Range</th><th>Unit</th></tr><tr><td>Appearance of Urine</td></tr></table></div>"
        },
        "status": "final",
        "subject": {
          "reference": "urn:uuid:3925e843-145b-4521-9ed8-bfa3acbe1ae5",
          "display": "Molly Jenkins"
        },
        "effectiveDateTime": "2020-07-16T14:42:11Z",
        "specimen": {
          "reference": "urn:uuid:1c4fa926-b646-4ee3-9dc0-31c4f622f925"
        }
      }
    },
    {
      "fullUrl": "urn:uuid:91b9aa3f-e966-4105-84d4-8992beadaa60",
      "resource": {
        "resourceType": "Observation",
        "id": "91b9aa3f-e966-4105-84d4-8992beadaa60",
        "meta": {
          "profile": [
            "http://hl7.eu/fhir/laboratory/StructureDefinition/Observation-resultslab-eu-lab"
          ]
        },
        "performer": [
          {
            "display": "The Central European Lab"
          }
        ],
        "category": [
          {
            "coding": [
              {
                "system": "http://terminology.hl7.org/CodeSystem/observation-category",
                "code": "laboratory"
              }
            ]
          }
        ],
        "code": {
          "coding": [
            {
              "code": "34533-0",
              "system": "http://loinc.org",
              "display": "Odor of Urine"
            }
          ],
          "text": "Odor of Urine"
        },
        "text": {
          "status": "generated",
          "div": "<div xmlns=\"http://www.w3.org/1999/xhtml\"><table class=\"hl7__eu__lab__report\"><tr><th>Test</th><th>16-Jul-2020</th><th>Reference&#xA0;Range</th><th>Unit</th></tr><tr><td>Odor of Urine</td></tr></table></div>"
        },
        "status": "final",
        "subject": {
          "reference": "urn:uuid:3925e843-145b-4521-9ed8-bfa3acbe1ae5",
          "display": "Molly Jenkins"
        },
        "effectiveDateTime": "2020-07-16T14:42:11Z",
        "specimen": {
          "reference": "urn:uuid:1c4fa926-b646-4ee3-9dc0-31c4f622f925"
        }
      }
    },
    {
      "fullUrl": "urn:uuid:b01d4fb7-8771-41b5-b890-335da38edaed",
      "resource": {
        "resourceType": "Observation",
        "id": "b01d4fb7-8771-41b5-b890-335da38edaed",
        "meta": {
          "profile": [
            "http://hl7.eu/fhir/laboratory/StructureDefinition/Observation-resultslab-eu-lab"
          ]
        },
        "performer": [
          {
            "display": "The Central European Lab"
          }
        ],
        "category": [
          {
            "coding": [
              {
                "system": "http://terminology.hl7.org/CodeSystem/observation-category",
                "code": "laboratory"
              }
            ]
          }
        ],
        "code": {
          "coding": [
            {
              "code": "32167-9",
              "system": "http://loinc.org",
              "display": "Clarity of Urine"
            }
          ],
          "text": "Clarity of Urine"
        },
        "text": {
          "status": "generated",
          "div": "<div xmlns=\"http://www.w3.org/1999/xhtml\"><table class=\"hl7__eu__lab__report\"><tr><th>Test</th><th>16-Jul-2020</th><th>Reference&#xA0;Range</th><th>Unit</th></tr><tr><td>Clarity of Urine</td></tr></table></div>"
        },
        "status": "final",
        "subject": {
          "reference": "urn:uuid:3925e843-145b-4521-9ed8-bfa3acbe1ae5",
          "display": "Molly Jenkins"
        },
        "effectiveDateTime": "2020-07-16T14:42:11Z",
        "specimen": {
          "reference": "urn:uuid:1c4fa926-b646-4ee3-9dc0-31c4f622f925"
        }
      }
    },
    {
      "fullUrl": "urn:uuid:f48ccd36-2422-4a8d-8671-b58de162b928",
      "resource": {
        "resourceType": "Observation",
        "id": "f48ccd36-2422-4a8d-8671-b58de162b928",
        "meta": {
          "profile": [
            "http://hl7.eu/fhir/laboratory/StructureDefinition/Observation-resultslab-eu-lab"
          ]
        },
        "performer": [
          {
            "display": "The Central European Lab"
          }
        ],
        "category": [
          {
            "coding": [
              {
                "system": "http://terminology.hl7.org/CodeSystem/observation-category",
                "code": "laboratory"
              }
            ]
          }
        ],
        "code": {
          "coding": [
            {
              "code": "5778-6",
              "system": "http://loinc.org",
              "display": "Color of Urine"
            }
          ],
          "text": "Color of Urine"
        },
        "text": {
          "status": "generated",
          "div": "<div xmlns=\"http://www.w3.org/1999/xhtml\"><table class=\"hl7__eu__lab__report\"><tr><th>Test</th><th>16-Jul-2020</th><th>Reference&#xA0;Range</th><th>Unit</th></tr><tr><td>Color of Urine</td></tr></table></div>"
        },
        "status": "final",
        "subject": {
          "reference": "urn:uuid:3925e843-145b-4521-9ed8-bfa3acbe1ae5",
          "display": "Molly Jenkins"
        },
        "effectiveDateTime": "2020-07-16T14:42:11Z",
        "specimen": {
          "reference": "urn:uuid:1c4fa926-b646-4ee3-9dc0-31c4f622f925"
        }
      }
    },
    {
      "fullUrl": "urn:uuid:5a283895-15ae-4879-a25f-b434d4e05a75",
      "resource": {
        "resourceType": "Observation",
        "id": "5a283895-15ae-4879-a25f-b434d4e05a75",
        "meta": {
          "profile": [
            "http://hl7.eu/fhir/laboratory/StructureDefinition/Observation-resultslab-eu-lab"
          ]
        },
        "performer": [
          {
            "display": "The Central European Lab"
          }
        ],
        "category": [
          {
            "coding": [
              {
                "system": "http://terminology.hl7.org/CodeSystem/observation-category",
                "code": "laboratory"
              }
            ]
          }
        ],
        "code": {
          "coding": [
            {
              "code": "5792-7",
              "system": "http://loinc.org",
              "display": "Glucose [Mass/volume] in Urine by Test strip"
            }
          ],
          "text": "Glucose [Mass/volume] in Urine by Test strip"
        },
        "valueQuantity": {
          "system": "http://unitsofmeasure.org",
          "value": 1.3,
          "unit": "mg/dL",
          "code": "mg/dL"
        },
        "referenceRange": [
          {
            "low": {
              "value": 0,
              "code": "mg/dL",
              "system": "http://unitsofmeasure.org"
            }
          },
          {
            "high": {
              "value": 0,
              "code": "mg/dL",
              "system": "http://unitsofmeasure.org"
            }
          }
        ],
        "interpretation": [
          {
            "coding": [
              {
                "code": "H",
                "system": "http://terminology.hl7.org/CodeSystem/v3-ObservationInterpretation",
                "display": "High"
              }
            ]
          }
        ],
        "text": {
          "status": "generated",
          "div": "<div xmlns=\"http://www.w3.org/1999/xhtml\"><table class=\"hl7__eu__lab__report\"><tr><th>Test</th><th>16-Jul-2020</th><th>Reference&#xA0;Range</th><th>Unit</th></tr><tr><td>Glucose [Mass/volume] in Urine by Test strip</td><td>1.3</td><td>0 - 0</td><td>H</td><td>mg/dL</td></tr></table></div>"
        },
        "status": "final",
        "subject": {
          "reference": "urn:uuid:3925e843-145b-4521-9ed8-bfa3acbe1ae5",
          "display": "Molly Jenkins"
        },
        "effectiveDateTime": "2020-07-16T14:42:11Z",
        "specimen": {
          "reference": "urn:uuid:1c4fa926-b646-4ee3-9dc0-31c4f622f925"
        }
      }
    },
    {
      "fullUrl": "urn:uuid:1605052e-2cef-48f0-bcc0-ebebbcbbe74e",
      "resource": {
        "resourceType": "Observation",
        "id": "1605052e-2cef-48f0-bcc0-ebebbcbbe74e",
        "meta": {
          "profile": [
            "http://hl7.eu/fhir/laboratory/StructureDefinition/Observation-resultslab-eu-lab"
          ]
        },
        "performer": [
          {
            "display": "The Central European Lab"
          }
        ],
        "category": [
          {
            "coding": [
              {
                "system": "http://terminology.hl7.org/CodeSystem/observation-category",
                "code": "laboratory"
              }
            ]
          }
        ],
        "code": {
          "coding": [
            {
              "code": "25428-4",
              "system": "http://loinc.org",
              "display": "Glucose [Presence] in Urine by Test strip"
            }
          ],
          "text": "Glucose [Presence] in Urine by Test strip"
        },
        "text": {
          "status": "generated",
          "div": "<div xmlns=\"http://www.w3.org/1999/xhtml\"><table class=\"hl7__eu__lab__report\"><tr><th>Test</th><th>16-Jul-2020</th><th>Reference&#xA0;Range</th><th>Unit</th></tr><tr><td>Glucose [Presence] in Urine by Test strip</td></tr></table></div>"
        },
        "status": "final",
        "subject": {
          "reference": "urn:uuid:3925e843-145b-4521-9ed8-bfa3acbe1ae5",
          "display": "Molly Jenkins"
        },
        "effectiveDateTime": "2020-07-16T14:42:11Z",
        "specimen": {
          "reference": "urn:uuid:1c4fa926-b646-4ee3-9dc0-31c4f622f925"
        }
      }
    },
    {
      "fullUrl": "urn:uuid:84b010dd-0b20-447e-9865-d2b9917e6eef",
      "resource": {
        "resourceType": "Observation",
        "id": "84b010dd-0b20-447e-9865-d2b9917e6eef",
        "meta": {
          "profile": [
            "http://hl7.eu/fhir/laboratory/StructureDefinition/Observation-resultslab-eu-lab"
          ]
        },
        "performer": [
          {
            "display": "The Central European Lab"
          }
        ],
        "category": [
          {
            "coding": [
              {
                "system": "http://terminology.hl7.org/CodeSystem/observation-category",
                "code": "laboratory"
              }
            ]
          }
        ],
        "code": {
          "coding": [
            {
              "code": "20505-4",
              "system": "http://loinc.org",
              "display": "Bilirubin.total [Mass/volume] in Urine by Test strip"
            }
          ],
          "text": "Bilirubin.total [Mass/volume] in Urine by Test strip"
        },
        "valueQuantity": {
          "system": "http://unitsofmeasure.org",
          "value": 0.4,
          "unit": "mg/dL",
          "code": "mg/dL"
        },
        "referenceRange": [
          {
            "low": {
              "value": 0,
              "code": "mg/dL",
              "system": "http://unitsofmeasure.org"
            }
          },
          {
            "high": {
              "value": 1.6,
              "code": "mg/dL",
              "system": "http://unitsofmeasure.org"
            }
          }
        ],
        "text": {
          "status": "generated",
          "div": "<div xmlns=\"http://www.w3.org/1999/xhtml\"><table class=\"hl7__eu__lab__report\"><tr><th>Test</th><th>16-Jul-2020</th><th>Reference&#xA0;Range</th><th>Unit</th></tr><tr><td>Bilirubin.total [Mass/volume] in Urine by Test strip</td><td>0.4</td><td>0 - 1.6</td><td></td><td>mg/dL</td></tr></table></div>"
        },
        "status": "final",
        "subject": {
          "reference": "urn:uuid:3925e843-145b-4521-9ed8-bfa3acbe1ae5",
          "display": "Molly Jenkins"
        },
        "effectiveDateTime": "2020-07-16T14:42:11Z",
        "specimen": {
          "reference": "urn:uuid:1c4fa926-b646-4ee3-9dc0-31c4f622f925"
        }
      }
    },
    {
      "fullUrl": "urn:uuid:fcbbab9c-a5e2-4bb8-9070-460d3bc5b751",
      "resource": {
        "resourceType": "Observation",
        "id": "fcbbab9c-a5e2-4bb8-9070-460d3bc5b751",
        "meta": {
          "profile": [
            "http://hl7.eu/fhir/laboratory/StructureDefinition/Observation-resultslab-eu-lab"
          ]
        },
        "performer": [
          {
            "display": "The Central European Lab"
          }
        ],
        "category": [
          {
            "coding": [
              {
                "system": "http://terminology.hl7.org/CodeSystem/observation-category",
                "code": "laboratory"
              }
            ]
          }
        ],
        "code": {
          "coding": [
            {
              "code": "5770-3",
              "system": "http://loinc.org",
              "display": "Bilirubin.total [Presence] in Urine by Test strip"
            }
          ],
          "text": "Bilirubin.total [Presence] in Urine by Test strip"
        },
        "text": {
          "status": "generated",
          "div": "<div xmlns=\"http://www.w3.org/1999/xhtml\"><table class=\"hl7__eu__lab__report\"><tr><th>Test</th><th>16-Jul-2020</th><th>Reference&#xA0;Range</th><th>Unit</th></tr><tr><td>Bilirubin.total [Presence] in Urine by Test strip</td></tr></table></div>"
        },
        "status": "final",
        "subject": {
          "reference": "urn:uuid:3925e843-145b-4521-9ed8-bfa3acbe1ae5",
          "display": "Molly Jenkins"
        },
        "effectiveDateTime": "2020-07-16T14:42:11Z",
        "specimen": {
          "reference": "urn:uuid:1c4fa926-b646-4ee3-9dc0-31c4f622f925"
        }
      }
    },
    {
      "fullUrl": "urn:uuid:cf3ed8d9-18b9-4048-8f23-82a49496d29c",
      "resource": {
        "resourceType": "Observation",
        "id": "cf3ed8d9-18b9-4048-8f23-82a49496d29c",
        "meta": {
          "profile": [
            "http://hl7.eu/fhir/laboratory/StructureDefinition/Observation-resultslab-eu-lab"
          ]
        },
        "performer": [
          {
            "display": "The Central European Lab"
          }
        ],
        "category": [
          {
            "coding": [
              {
                "system": "http://terminology.hl7.org/CodeSystem/observation-category",
                "code": "laboratory"
              }
            ]
          }
        ],
        "code": {
          "coding": [
            {
              "code": "5797-6",
              "system": "http://loinc.org",
              "display": "Ketones [Mass/volume] in Urine by Test strip"
            }
          ],
          "text": "Ketones [Mass/volume] in Urine by Test strip"
        },
        "valueQuantity": {
          "system": "http://unitsofmeasure.org",
          "value": 5.2,
          "unit": "mg/dL",
          "code": "mg/dL"
        },
        "referenceRange": [
          {
            "low": {
              "value": 0,
              "code": "mg/dL",
              "system": "http://unitsofmeasure.org"
            }
          },
          {
            "high": {
              "value": 0.5,
              "code": "mg/dL",
              "system": "http://unitsofmeasure.org"
            }
          }
        ],
        "interpretation": [
          {
            "coding": [
              {
                "code": "H",
                "system": "http://terminology.hl7.org/CodeSystem/v3-ObservationInterpretation",
                "display": "High"
              }
            ]
          }
        ],
        "text": {
          "status": "generated",
          "div": "<div xmlns=\"http://www.w3.org/1999/xhtml\"><table class=\"hl7__eu__lab__report\"><tr><th>Test</th><th>16-Jul-2020</th><th>Reference&#xA0;Range</th><th>Unit</th></tr><tr><td>Ketones [Mass/volume] in Urine by Test strip</td><td>5.2</td><td>0 - 0.5</td><td>H</td><td>mg/dL</td></tr></table></div>"
        },
        "status": "final",
        "subject": {
          "reference": "urn:uuid:3925e843-145b-4521-9ed8-bfa3acbe1ae5",
          "display": "Molly Jenkins"
        },
        "effectiveDateTime": "2020-07-16T14:42:11Z",
        "specimen": {
          "reference": "urn:uuid:1c4fa926-b646-4ee3-9dc0-31c4f622f925"
        }
      }
    },
    {
      "fullUrl": "urn:uuid:37e9a5d7-461c-4e5e-ae1e-de8e9e9891cf",
      "resource": {
        "resourceType": "Observation",
        "id": "37e9a5d7-461c-4e5e-ae1e-de8e9e9891cf",
        "meta": {
          "profile": [
            "http://hl7.eu/fhir/laboratory/StructureDefinition/Observation-resultslab-eu-lab"
          ]
        },
        "performer": [
          {
            "display": "The Central European Lab"
          }
        ],
        "category": [
          {
            "coding": [
              {
                "system": "http://terminology.hl7.org/CodeSystem/observation-category",
                "code": "laboratory"
              }
            ]
          }
        ],
        "code": {
          "coding": [
            {
              "code": "2514-8",
              "system": "http://loinc.org",
              "display": "Ketones [Presence] in Urine by Test strip"
            }
          ],
          "text": "Ketones [Presence] in Urine by Test strip"
        },
        "text": {
          "status": "generated",
          "div": "<div xmlns=\"http://www.w3.org/1999/xhtml\"><table class=\"hl7__eu__lab__report\"><tr><th>Test</th><th>16-Jul-2020</th><th>Reference&#xA0;Range</th><th>Unit</th></tr><tr><td>Ketones [Presence] in Urine by Test strip</td></tr></table></div>"
        },
        "status": "final",
        "subject": {
          "reference": "urn:uuid:3925e843-145b-4521-9ed8-bfa3acbe1ae5",
          "display": "Molly Jenkins"
        },
        "effectiveDateTime": "2020-07-16T14:42:11Z",
        "specimen": {
          "reference": "urn:uuid:1c4fa926-b646-4ee3-9dc0-31c4f622f925"
        }
      }
    },
    {
      "fullUrl": "urn:uuid:ba7df475-7c52-4443-bbd3-6e2648f4515a",
      "resource": {
        "resourceType": "Observation",
        "id": "ba7df475-7c52-4443-bbd3-6e2648f4515a",
        "meta": {
          "profile": [
            "http://hl7.eu/fhir/laboratory/StructureDefinition/Observation-resultslab-eu-lab"
          ]
        },
        "performer": [
          {
            "display": "The Central European Lab"
          }
        ],
        "category": [
          {
            "coding": [
              {
                "system": "http://terminology.hl7.org/CodeSystem/observation-category",
                "code": "laboratory"
              }
            ]
          }
        ],
        "code": {
          "coding": [
            {
              "code": "5811-5",
              "system": "http://loinc.org",
              "display": "Specific gravity of Urine by Test strip"
            }
          ],
          "text": "Specific gravity of Urine by Test strip"
        },
        "valueQuantity": {
          "system": "http://unitsofmeasure.org",
          "value": 1,
          "unit": "{nominal}",
          "code": "{nominal}"
        },
        "referenceRange": [
          {
            "low": {
              "value": 1.005,
              "code": "g/mL",
              "system": "http://unitsofmeasure.org"
            }
          },
          {
            "high": {
              "value": 1.03,
              "code": "g/mL",
              "system": "http://unitsofmeasure.org"
            }
          }
        ],
        "interpretation": [
          {
            "coding": [
              {
                "code": "L",
                "system": "http://terminology.hl7.org/CodeSystem/v3-ObservationInterpretation",
                "display": "Low"
              }
            ]
          }
        ],
        "text": {
          "status": "generated",
          "div": "<div xmlns=\"http://www.w3.org/1999/xhtml\"><table class=\"hl7__eu__lab__report\"><tr><th>Test</th><th>16-Jul-2020</th><th>Reference&#xA0;Range</th><th>Unit</th></tr><tr><td>Specific gravity of Urine by Test strip</td><td>1.0</td><td>1.005 - 1.03</td><td>L</td><td>{nominal}</td></tr></table></div>"
        },
        "status": "final",
        "subject": {
          "reference": "urn:uuid:3925e843-145b-4521-9ed8-bfa3acbe1ae5",
          "display": "Molly Jenkins"
        },
        "effectiveDateTime": "2020-07-16T14:42:11Z",
        "specimen": {
          "reference": "urn:uuid:1c4fa926-b646-4ee3-9dc0-31c4f622f925"
        }
      }
    },
    {
      "fullUrl": "urn:uuid:8e5b2333-1d27-46c2-9d4e-11848a2d4706",
      "resource": {
        "resourceType": "Observation",
        "id": "8e5b2333-1d27-46c2-9d4e-11848a2d4706",
        "meta": {
          "profile": [
            "http://hl7.eu/fhir/laboratory/StructureDefinition/Observation-resultslab-eu-lab"
          ]
        },
        "performer": [
          {
            "display": "The Central European Lab"
          }
        ],
        "category": [
          {
            "coding": [
              {
                "system": "http://terminology.hl7.org/CodeSystem/observation-category",
                "code": "laboratory"
              }
            ]
          }
        ],
        "code": {
          "coding": [
            {
              "code": "5803-2",
              "system": "http://loinc.org",
              "display": "pH of Urine by Test strip"
            }
          ],
          "text": "pH of Urine by Test strip"
        },
        "valueQuantity": {
          "system": "http://unitsofmeasure.org",
          "value": 5.9,
          "unit": "pH",
          "code": "pH"
        },
        "referenceRange": [
          {
            "low": {
              "value": 4.5,
              "code": "pH",
              "system": "http://unitsofmeasure.org"
            }
          },
          {
            "high": {
              "value": 7.5,
              "code": "pH",
              "system": "http://unitsofmeasure.org"
            }
          }
        ],
        "text": {
          "status": "generated",
          "div": "<div xmlns=\"http://www.w3.org/1999/xhtml\"><table class=\"hl7__eu__lab__report\"><tr><th>Test</th><th>16-Jul-2020</th><th>Reference&#xA0;Range</th><th>Unit</th></tr><tr><td>pH of Urine by Test strip</td><td>5.9</td><td>4.5 - 7.5</td><td></td><td>pH</td></tr></table></div>"
        },
        "status": "final",
        "subject": {
          "reference": "urn:uuid:3925e843-145b-4521-9ed8-bfa3acbe1ae5",
          "display": "Molly Jenkins"
        },
        "effectiveDateTime": "2020-07-16T14:42:11Z",
        "specimen": {
          "reference": "urn:uuid:1c4fa926-b646-4ee3-9dc0-31c4f622f925"
        }
      }
    },
    {
      "fullUrl": "urn:uuid:1b862fe8-cbed-4a62-8349-85eff52d693f",
      "resource": {
        "resourceType": "Observation",
        "id": "1b862fe8-cbed-4a62-8349-85eff52d693f",
        "meta": {
          "profile": [
            "http://hl7.eu/fhir/laboratory/StructureDefinition/Observation-resultslab-eu-lab"
          ]
        },
        "performer": [
          {
            "display": "The Central European Lab"
          }
        ],
        "category": [
          {
            "coding": [
              {
                "system": "http://terminology.hl7.org/CodeSystem/observation-category",
                "code": "laboratory"
              }
            ]
          }
        ],
        "code": {
          "coding": [
            {
              "code": "5804-0",
              "system": "http://loinc.org",
              "display": "Protein [Mass/volume] in Urine by Test strip"
            }
          ],
          "text": "Protein [Mass/volume] in Urine by Test strip"
        },
        "valueQuantity": {
          "system": "http://unitsofmeasure.org",
          "value": 269.6,
          "unit": "mg/dL",
          "code": "mg/dL"
        },
        "referenceRange": [
          {
            "low": {
              "value": 0,
              "code": "mg/dL",
              "system": "http://unitsofmeasure.org"
            }
          },
          {
            "high": {
              "value": 15,
              "code": "mg/dL",
              "system": "http://unitsofmeasure.org"
            }
          }
        ],
        "interpretation": [
          {
            "coding": [
              {
                "code": "H",
                "system": "http://terminology.hl7.org/CodeSystem/v3-ObservationInterpretation",
                "display": "High"
              }
            ]
          }
        ],
        "text": {
          "status": "generated",
          "div": "<div xmlns=\"http://www.w3.org/1999/xhtml\"><table class=\"hl7__eu__lab__report\"><tr><th>Test</th><th>16-Jul-2020</th><th>Reference&#xA0;Range</th><th>Unit</th></tr><tr><td>Protein [Mass/volume] in Urine by Test strip</td><td>269.6</td><td>0 - 15</td><td>H</td><td>mg/dL</td></tr></table></div>"
        },
        "status": "final",
        "subject": {
          "reference": "urn:uuid:3925e843-145b-4521-9ed8-bfa3acbe1ae5",
          "display": "Molly Jenkins"
        },
        "effectiveDateTime": "2020-07-16T14:42:11Z",
        "specimen": {
          "reference": "urn:uuid:1c4fa926-b646-4ee3-9dc0-31c4f622f925"
        }
      }
    },
    {
      "fullUrl": "urn:uuid:9631ac25-954b-4b37-90d8-a3687f2163fa",
      "resource": {
        "resourceType": "Observation",
        "id": "9631ac25-954b-4b37-90d8-a3687f2163fa",
        "meta": {
          "profile": [
            "http://hl7.eu/fhir/laboratory/StructureDefinition/Observation-resultslab-eu-lab"
          ]
        },
        "performer": [
          {
            "display": "The Central European Lab"
          }
        ],
        "category": [
          {
            "coding": [
              {
                "system": "http://terminology.hl7.org/CodeSystem/observation-category",
                "code": "laboratory"
              }
            ]
          }
        ],
        "code": {
          "coding": [
            {
              "code": "20454-5",
              "system": "http://loinc.org",
              "display": "Protein [Presence] in Urine by Test strip"
            }
          ],
          "text": "Protein [Presence] in Urine by Test strip"
        },
        "text": {
          "status": "generated",
          "div": "<div xmlns=\"http://www.w3.org/1999/xhtml\"><table class=\"hl7__eu__lab__report\"><tr><th>Test</th><th>16-Jul-2020</th><th>Reference&#xA0;Range</th><th>Unit</th></tr><tr><td>Protein [Presence] in Urine by Test strip</td></tr></table></div>"
        },
        "status": "final",
        "subject": {
          "reference": "urn:uuid:3925e843-145b-4521-9ed8-bfa3acbe1ae5",
          "display": "Molly Jenkins"
        },
        "effectiveDateTime": "2020-07-16T14:42:11Z",
        "specimen": {
          "reference": "urn:uuid:1c4fa926-b646-4ee3-9dc0-31c4f622f925"
        }
      }
    },
    {
      "fullUrl": "urn:uuid:04a063c7-c395-4052-ad64-54096dfc3fd3",
      "resource": {
        "resourceType": "Observation",
        "id": "04a063c7-c395-4052-ad64-54096dfc3fd3",
        "meta": {
          "profile": [
            "http://hl7.eu/fhir/laboratory/StructureDefinition/Observation-resultslab-eu-lab"
          ]
        },
        "performer": [
          {
            "display": "The Central European Lab"
          }
        ],
        "category": [
          {
            "coding": [
              {
                "system": "http://terminology.hl7.org/CodeSystem/observation-category",
                "code": "laboratory"
              }
            ]
          }
        ],
        "code": {
          "coding": [
            {
              "code": "5802-4",
              "system": "http://loinc.org",
              "display": "Nitrite [Presence] in Urine by Test strip"
            }
          ],
          "text": "Nitrite [Presence] in Urine by Test strip"
        },
        "text": {
          "status": "generated",
          "div": "<div xmlns=\"http://www.w3.org/1999/xhtml\"><table class=\"hl7__eu__lab__report\"><tr><th>Test</th><th>16-Jul-2020</th><th>Reference&#xA0;Range</th><th>Unit</th></tr><tr><td>Nitrite [Presence] in Urine by Test strip</td></tr></table></div>"
        },
        "status": "final",
        "subject": {
          "reference": "urn:uuid:3925e843-145b-4521-9ed8-bfa3acbe1ae5",
          "display": "Molly Jenkins"
        },
        "effectiveDateTime": "2020-07-16T14:42:11Z",
        "specimen": {
          "reference": "urn:uuid:1c4fa926-b646-4ee3-9dc0-31c4f622f925"
        }
      }
    },
    {
      "fullUrl": "urn:uuid:8ad1ee33-e00c-47e7-9d59-b359f18b4416",
      "resource": {
        "resourceType": "Observation",
        "id": "8ad1ee33-e00c-47e7-9d59-b359f18b4416",
        "meta": {
          "profile": [
            "http://hl7.eu/fhir/laboratory/StructureDefinition/Observation-resultslab-eu-lab"
          ]
        },
        "performer": [
          {
            "display": "The Central European Lab"
          }
        ],
        "category": [
          {
            "coding": [
              {
                "system": "http://terminology.hl7.org/CodeSystem/observation-category",
                "code": "laboratory"
              }
            ]
          }
        ],
        "code": {
          "coding": [
            {
              "code": "5794-3",
              "system": "http://loinc.org",
              "display": "Hemoglobin [Presence] in Urine by Test strip"
            }
          ],
          "text": "Hemoglobin [Presence] in Urine by Test strip"
        },
        "text": {
          "status": "generated",
          "div": "<div xmlns=\"http://www.w3.org/1999/xhtml\"><table class=\"hl7__eu__lab__report\"><tr><th>Test</th><th>16-Jul-2020</th><th>Reference&#xA0;Range</th><th>Unit</th></tr><tr><td>Hemoglobin [Presence] in Urine by Test strip</td></tr></table></div>"
        },
        "status": "final",
        "subject": {
          "reference": "urn:uuid:3925e843-145b-4521-9ed8-bfa3acbe1ae5",
          "display": "Molly Jenkins"
        },
        "effectiveDateTime": "2020-07-16T14:42:11Z",
        "specimen": {
          "reference": "urn:uuid:1c4fa926-b646-4ee3-9dc0-31c4f622f925"
        }
      }
    },
    {
      "fullUrl": "urn:uuid:55f012c7-b510-4d7a-a0f0-74d9495ff0e5",
      "resource": {
        "resourceType": "Observation",
        "id": "55f012c7-b510-4d7a-a0f0-74d9495ff0e5",
        "meta": {
          "profile": [
            "http://hl7.eu/fhir/laboratory/StructureDefinition/Observation-resultslab-eu-lab"
          ]
        },
        "performer": [
          {
            "display": "The Central European Lab"
          }
        ],
        "category": [
          {
            "coding": [
              {
                "system": "http://terminology.hl7.org/CodeSystem/observation-category",
                "code": "laboratory"
              }
            ]
          }
        ],
        "code": {
          "coding": [
            {
              "code": "5799-2",
              "system": "http://loinc.org",
              "display": "Leukocyte esterase [Presence] in Urine by Test strip"
            }
          ],
          "text": "Leukocyte esterase [Presence] in Urine by Test strip"
        },
        "text": {
          "status": "generated",
          "div": "<div xmlns=\"http://www.w3.org/1999/xhtml\"><table class=\"hl7__eu__lab__report\"><tr><th>Test</th><th>16-Jul-2020</th><th>Reference&#xA0;Range</th><th>Unit</th></tr><tr><td>Leukocyte esterase [Presence] in Urine by Test strip</td></tr></table></div>"
        },
        "status": "final",
        "subject": {
          "reference": "urn:uuid:3925e843-145b-4521-9ed8-bfa3acbe1ae5",
          "display": "Molly Jenkins"
        },
        "effectiveDateTime": "2020-07-16T14:42:11Z",
        "specimen": {
          "reference": "urn:uuid:1c4fa926-b646-4ee3-9dc0-31c4f622f925"
        }
      }
    },
    {
      "fullUrl": "urn:uuid:5ba31d68-7e2c-48a4-b54a-4d4542886ea6",
      "resource": {
        "resourceType": "Observation",
        "id": "5ba31d68-7e2c-48a4-b54a-4d4542886ea6",
        "meta": {
          "profile": [
            "http://hl7.eu/fhir/laboratory/StructureDefinition/Observation-resultslab-eu-lab"
          ]
        },
        "performer": [
          {
            "display": "The Central European Lab"
          }
        ],
        "category": [
          {
            "coding": [
              {
                "system": "http://terminology.hl7.org/CodeSystem/observation-category",
                "code": "laboratory"
              }
            ]
          }
        ],
        "code": {
          "coding": [
            {
              "code": "4548-4",
              "system": "http://loinc.org",
              "display": "Hemoglobin A1c/Hemoglobin.total in Blood"
            }
          ],
          "text": "Hemoglobin A1c/Hemoglobin.total in Blood"
        },
        "valueQuantity": {
          "system": "http://unitsofmeasure.org",
          "value": 3.1,
          "unit": "%",
          "code": "%"
        },
        "referenceRange": [
          {
            "low": {
              "value": 4,
              "code": "%",
              "system": "http://unitsofmeasure.org"
            }
          },
          {
            "high": {
              "value": 6,
              "code": "%",
              "system": "http://unitsofmeasure.org"
            }
          }
        ],
        "interpretation": [
          {
            "coding": [
              {
                "code": "L",
                "system": "http://terminology.hl7.org/CodeSystem/v3-ObservationInterpretation",
                "display": "Low"
              }
            ]
          }
        ],
        "text": {
          "status": "generated",
          "div": "<div xmlns=\"http://www.w3.org/1999/xhtml\"><table class=\"hl7__eu__lab__report\"><tr><th>Test</th><th>16-Jul-2020</th><th>Reference&#xA0;Range</th><th>Unit</th></tr><tr><td>Hemoglobin A1c/Hemoglobin.total in Blood</td><td>3.1</td><td>4 - 6</td><td>L</td><td>%</td></tr></table></div>"
        },
        "status": "final",
        "subject": {
          "reference": "urn:uuid:3925e843-145b-4521-9ed8-bfa3acbe1ae5",
          "display": "Molly Jenkins"
        },
        "effectiveDateTime": "2020-07-16T14:42:11Z",
        "specimen": {
          "reference": "urn:uuid:1994bb42-5b28-4a63-82de-5b56673d7289"
        }
      }
    },
    {
      "fullUrl": "urn:uuid:b6049f8c-a9c4-4d1b-9e9a-f2e8586b1c86",
      "resource": {
        "resourceType": "Observation",
        "id": "b6049f8c-a9c4-4d1b-9e9a-f2e8586b1c86",
        "meta": {
          "profile": [
            "http://hl7.eu/fhir/laboratory/StructureDefinition/Observation-resultslab-eu-lab"
          ]
        },
        "performer": [
          {
            "display": "The Central European Lab"
          }
        ],
        "category": [
          {
            "coding": [
              {
                "system": "http://terminology.hl7.org/CodeSystem/observation-category",
                "code": "laboratory"
              }
            ]
          }
        ],
        "code": {
          "coding": [
            {
              "code": "2339-0",
              "system": "http://loinc.org",
              "display": "Glucose [Mass/volume] in Blood"
            }
          ],
          "text": "Glucose [Mass/volume] in Blood"
        },
        "valueQuantity": {
          "system": "http://unitsofmeasure.org",
          "value": 81.5,
          "unit": "mg/dL",
          "code": "mg/dL"
        },
        "referenceRange": [
          {
            "low": {
              "value": 70,
              "code": "mg/dL",
              "system": "http://unitsofmeasure.org"
            }
          },
          {
            "high": {
              "value": 100,
              "code": "mg/dL",
              "system": "http://unitsofmeasure.org"
            }
          }
        ],
        "text": {
          "status": "generated",
          "div": "<div xmlns=\"http://www.w3.org/1999/xhtml\"><table class=\"hl7__eu__lab__report\"><tr><th>Test</th><th>16-Jul-2020</th><th>Reference&#xA0;Range</th><th>Unit</th></tr><tr><td>Glucose [Mass/volume] in Blood</td><td>81.5</td><td>70 - 100</td><td></td><td>mg/dL</td></tr></table></div>"
        },
        "status": "final",
        "subject": {
          "reference": "urn:uuid:3925e843-145b-4521-9ed8-bfa3acbe1ae5",
          "display": "Molly Jenkins"
        },
        "effectiveDateTime": "2020-07-16T14:42:11Z",
        "specimen": {
          "reference": "urn:uuid:1994bb42-5b28-4a63-82de-5b56673d7289"
        }
      }
    },
    {
      "fullUrl": "urn:uuid:f28ca973-5e45-46e7-a4ef-77f6d9f01420",
      "resource": {
        "resourceType": "Observation",
        "id": "f28ca973-5e45-46e7-a4ef-77f6d9f01420",
        "meta": {
          "profile": [
            "http://hl7.eu/fhir/laboratory/StructureDefinition/Observation-resultslab-eu-lab"
          ]
        },
        "performer": [
          {
            "display": "The Central European Lab"
          }
        ],
        "category": [
          {
            "coding": [
              {
                "system": "http://terminology.hl7.org/CodeSystem/observation-category",
                "code": "laboratory"
              }
            ]
          }
        ],
        "code": {
          "coding": [
            {
              "code": "6299-2",
              "system": "http://loinc.org",
              "display": "Urea nitrogen [Mass/volume] in Blood"
            }
          ],
          "text": "Urea nitrogen [Mass/volume] in Blood"
        },
        "valueQuantity": {
          "system": "http://unitsofmeasure.org",
          "value": 11.7,
          "unit": "mg/dL",
          "code": "mg/dL"
        },
        "referenceRange": [
          {
            "low": {
              "value": 7,
              "code": "mg/dL",
              "system": "http://unitsofmeasure.org"
            }
          },
          {
            "high": {
              "value": 20,
              "code": "mg/dL",
              "system": "http://unitsofmeasure.org"
            }
          }
        ],
        "text": {
          "status": "generated",
          "div": "<div xmlns=\"http://www.w3.org/1999/xhtml\"><table class=\"hl7__eu__lab__report\"><tr><th>Test</th><th>16-Jul-2020</th><th>Reference&#xA0;Range</th><th>Unit</th></tr><tr><td>Urea nitrogen [Mass/volume] in Blood</td><td>11.7</td><td>7 - 20</td><td></td><td>mg/dL</td></tr></table></div>"
        },
        "status": "final",
        "subject": {
          "reference": "urn:uuid:3925e843-145b-4521-9ed8-bfa3acbe1ae5",
          "display": "Molly Jenkins"
        },
        "effectiveDateTime": "2020-07-16T14:42:11Z",
        "specimen": {
          "reference": "urn:uuid:1994bb42-5b28-4a63-82de-5b56673d7289"
        }
      }
    },
    {
      "fullUrl": "urn:uuid:4334d932-873a-4d33-b143-0b85b1f596af",
      "resource": {
        "resourceType": "Observation",
        "id": "4334d932-873a-4d33-b143-0b85b1f596af",
        "meta": {
          "profile": [
            "http://hl7.eu/fhir/laboratory/StructureDefinition/Observation-resultslab-eu-lab"
          ]
        },
        "performer": [
          {
            "display": "The Central European Lab"
          }
        ],
        "category": [
          {
            "coding": [
              {
                "system": "http://terminology.hl7.org/CodeSystem/observation-category",
                "code": "laboratory"
              }
            ]
          }
        ],
        "code": {
          "coding": [
            {
              "code": "38483-4",
              "system": "http://loinc.org",
              "display": "Creatinine [Mass/volume] in Blood"
            }
          ],
          "text": "Creatinine [Mass/volume] in Blood"
        },
        "valueQuantity": {
          "system": "http://unitsofmeasure.org",
          "value": 1.6,
          "unit": "mg/dL",
          "code": "mg/dL"
        },
        "referenceRange": [
          {
            "low": {
              "value": 0.6,
              "code": "mg/dL",
              "system": "http://unitsofmeasure.org"
            }
          },
          {
            "high": {
              "value": 1.3,
              "code": "mg/dL",
              "system": "http://unitsofmeasure.org"
            }
          }
        ],
        "interpretation": [
          {
            "coding": [
              {
                "code": "H",
                "system": "http://terminology.hl7.org/CodeSystem/v3-ObservationInterpretation",
                "display": "High"
              }
            ]
          }
        ],
        "text": {
          "status": "generated",
          "div": "<div xmlns=\"http://www.w3.org/1999/xhtml\"><table class=\"hl7__eu__lab__report\"><tr><th>Test</th><th>16-Jul-2020</th><th>Reference&#xA0;Range</th><th>Unit</th></tr><tr><td>Creatinine [Mass/volume] in Blood</td><td>1.6</td><td>0.6 - 1.3</td><td>H</td><td>mg/dL</td></tr></table></div>"
        },
        "status": "final",
        "subject": {
          "reference": "urn:uuid:3925e843-145b-4521-9ed8-bfa3acbe1ae5",
          "display": "Molly Jenkins"
        },
        "effectiveDateTime": "2020-07-16T14:42:11Z",
        "specimen": {
          "reference": "urn:uuid:1994bb42-5b28-4a63-82de-5b56673d7289"
        }
      }
    },
    {
      "fullUrl": "urn:uuid:bba695e6-94e7-4782-8fcf-541b15fe3cb5",
      "resource": {
        "resourceType": "Observation",
        "id": "bba695e6-94e7-4782-8fcf-541b15fe3cb5",
        "meta": {
          "profile": [
            "http://hl7.eu/fhir/laboratory/StructureDefinition/Observation-resultslab-eu-lab"
          ]
        },
        "performer": [
          {
            "display": "The Central European Lab"
          }
        ],
        "category": [
          {
            "coding": [
              {
                "system": "http://terminology.hl7.org/CodeSystem/observation-category",
                "code": "laboratory"
              }
            ]
          }
        ],
        "code": {
          "coding": [
            {
              "code": "49765-1",
              "system": "http://loinc.org",
              "display": "Calcium [Mass/volume] in Blood"
            }
          ],
          "text": "Calcium [Mass/volume] in Blood"
        },
        "valueQuantity": {
          "system": "http://unitsofmeasure.org",
          "value": 9.1,
          "unit": "mg/dL",
          "code": "mg/dL"
        },
        "referenceRange": [
          {
            "low": {
              "value": 8.6,
              "code": "mg/dL",
              "system": "http://unitsofmeasure.org"
            }
          },
          {
            "high": {
              "value": 10.4,
              "code": "mg/dL",
              "system": "http://unitsofmeasure.org"
            }
          }
        ],
        "text": {
          "status": "generated",
          "div": "<div xmlns=\"http://www.w3.org/1999/xhtml\"><table class=\"hl7__eu__lab__report\"><tr><th>Test</th><th>16-Jul-2020</th><th>Reference&#xA0;Range</th><th>Unit</th></tr><tr><td>Calcium [Mass/volume] in Blood</td><td>9.1</td><td>8.6 - 10.4</td><td></td><td>mg/dL</td></tr></table></div>"
        },
        "status": "final",
        "subject": {
          "reference": "urn:uuid:3925e843-145b-4521-9ed8-bfa3acbe1ae5",
          "display": "Molly Jenkins"
        },
        "effectiveDateTime": "2020-07-16T14:42:11Z",
        "specimen": {
          "reference": "urn:uuid:1994bb42-5b28-4a63-82de-5b56673d7289"
        }
      }
    },
    {
      "fullUrl": "urn:uuid:bae37b94-6116-44b7-8b83-19a1bef86891",
      "resource": {
        "resourceType": "Observation",
        "id": "bae37b94-6116-44b7-8b83-19a1bef86891",
        "meta": {
          "profile": [
            "http://hl7.eu/fhir/laboratory/StructureDefinition/Observation-resultslab-eu-lab"
          ]
        },
        "performer": [
          {
            "display": "The Central European Lab"
          }
        ],
        "category": [
          {
            "coding": [
              {
                "system": "http://terminology.hl7.org/CodeSystem/observation-category",
                "code": "laboratory"
              }
            ]
          }
        ],
        "code": {
          "coding": [
            {
              "code": "2947-0",
              "system": "http://loinc.org",
              "display": "Sodium [Moles/volume] in Blood"
            }
          ],
          "text": "Sodium [Moles/volume] in Blood"
        },
        "valueQuantity": {
          "system": "http://unitsofmeasure.org",
          "value": 142.5,
          "unit": "mmol/L",
          "code": "mmol/L"
        },
        "referenceRange": [
          {
            "low": {
              "value": 135,
              "code": "mmol/L",
              "system": "http://unitsofmeasure.org"
            }
          },
          {
            "high": {
              "value": 145,
              "code": "mmol/L",
              "system": "http://unitsofmeasure.org"
            }
          }
        ],
        "text": {
          "status": "generated",
          "div": "<div xmlns=\"http://www.w3.org/1999/xhtml\"><table class=\"hl7__eu__lab__report\"><tr><th>Test</th><th>16-Jul-2020</th><th>Reference&#xA0;Range</th><th>Unit</th></tr><tr><td>Sodium [Moles/volume] in Blood</td><td>142.5</td><td>135 - 145</td><td></td><td>mmol/L</td></tr></table></div>"
        },
        "status": "final",
        "subject": {
          "reference": "urn:uuid:3925e843-145b-4521-9ed8-bfa3acbe1ae5",
          "display": "Molly Jenkins"
        },
        "effectiveDateTime": "2020-07-16T14:42:11Z",
        "specimen": {
          "reference": "urn:uuid:1994bb42-5b28-4a63-82de-5b56673d7289"
        }
      }
    },
    {
      "fullUrl": "urn:uuid:8d55a148-0be3-436d-8275-a0febbc18e47",
      "resource": {
        "resourceType": "Observation",
        "id": "8d55a148-0be3-436d-8275-a0febbc18e47",
        "meta": {
          "profile": [
            "http://hl7.eu/fhir/laboratory/StructureDefinition/Observation-resultslab-eu-lab"
          ]
        },
        "performer": [
          {
            "display": "The Central European Lab"
          }
        ],
        "category": [
          {
            "coding": [
              {
                "system": "http://terminology.hl7.org/CodeSystem/observation-category",
                "code": "laboratory"
              }
            ]
          }
        ],
        "code": {
          "coding": [
            {
              "code": "6298-4",
              "system": "http://loinc.org",
              "display": "Potassium [Moles/volume] in Blood"
            }
          ],
          "text": "Potassium [Moles/volume] in Blood"
        },
        "valueQuantity": {
          "system": "http://unitsofmeasure.org",
          "value": 4.3,
          "unit": "mmol/L",
          "code": "mmol/L"
        },
        "referenceRange": [
          {
            "low": {
              "value": 3.5,
              "code": "mmol/L",
              "system": "http://unitsofmeasure.org"
            }
          },
          {
            "high": {
              "value": 5.1,
              "code": "mmol/L",
              "system": "http://unitsofmeasure.org"
            }
          }
        ],
        "text": {
          "status": "generated",
          "div": "<div xmlns=\"http://www.w3.org/1999/xhtml\"><table class=\"hl7__eu__lab__report\"><tr><th>Test</th><th>16-Jul-2020</th><th>Reference&#xA0;Range</th><th>Unit</th></tr><tr><td>Potassium [Moles/volume] in Blood</td><td>4.3</td><td>3.5 - 5.1</td><td></td><td>mmol/L</td></tr></table></div>"
        },
        "status": "final",
        "subject": {
          "reference": "urn:uuid:3925e843-145b-4521-9ed8-bfa3acbe1ae5",
          "display": "Molly Jenkins"
        },
        "effectiveDateTime": "2020-07-16T14:42:11Z",
        "specimen": {
          "reference": "urn:uuid:1994bb42-5b28-4a63-82de-5b56673d7289"
        }
      }
    },
    {
      "fullUrl": "urn:uuid:97c31b71-3d60-4748-8ec1-918e573caa5e",
      "resource": {
        "resourceType": "Observation",
        "id": "97c31b71-3d60-4748-8ec1-918e573caa5e",
        "meta": {
          "profile": [
            "http://hl7.eu/fhir/laboratory/StructureDefinition/Observation-resultslab-eu-lab"
          ]
        },
        "performer": [
          {
            "display": "The Central European Lab"
          }
        ],
        "category": [
          {
            "coding": [
              {
                "system": "http://terminology.hl7.org/CodeSystem/observation-category",
                "code": "laboratory"
              }
            ]
          }
        ],
        "code": {
          "coding": [
            {
              "code": "2069-3",
              "system": "http://loinc.org",
              "display": "Chloride [Moles/volume] in Blood"
            }
          ],
          "text": "Chloride [Moles/volume] in Blood"
        },
        "valueQuantity": {
          "system": "http://unitsofmeasure.org",
          "value": 105.7,
          "unit": "mmol/L",
          "code": "mmol/L"
        },
        "referenceRange": [
          {
            "low": {
              "value": 98,
              "code": "mmol/L",
              "system": "http://unitsofmeasure.org"
            }
          },
          {
            "high": {
              "value": 110,
              "code": "mmol/L",
              "system": "http://unitsofmeasure.org"
            }
          }
        ],
        "text": {
          "status": "generated",
          "div": "<div xmlns=\"http://www.w3.org/1999/xhtml\"><table class=\"hl7__eu__lab__report\"><tr><th>Test</th><th>16-Jul-2020</th><th>Reference&#xA0;Range</th><th>Unit</th></tr><tr><td>Chloride [Moles/volume] in Blood</td><td>105.7</td><td>98 - 110</td><td></td><td>mmol/L</td></tr></table></div>"
        },
        "status": "final",
        "subject": {
          "reference": "urn:uuid:3925e843-145b-4521-9ed8-bfa3acbe1ae5",
          "display": "Molly Jenkins"
        },
        "effectiveDateTime": "2020-07-16T14:42:11Z",
        "specimen": {
          "reference": "urn:uuid:1994bb42-5b28-4a63-82de-5b56673d7289"
        }
      }
    },
    {
      "fullUrl": "urn:uuid:86a1b337-3259-42f9-9d69-a71aecf8d694",
      "resource": {
        "resourceType": "Observation",
        "id": "86a1b337-3259-42f9-9d69-a71aecf8d694",
        "meta": {
          "profile": [
            "http://hl7.eu/fhir/laboratory/StructureDefinition/Observation-resultslab-eu-lab"
          ]
        },
        "performer": [
          {
            "display": "The Central European Lab"
          }
        ],
        "category": [
          {
            "coding": [
              {
                "system": "http://terminology.hl7.org/CodeSystem/observation-category",
                "code": "laboratory"
              }
            ]
          }
        ],
        "code": {
          "coding": [
            {
              "code": "20565-8",
              "system": "http://loinc.org",
              "display": "Carbon dioxide, total [Moles/volume] in Blood"
            }
          ],
          "text": "Carbon dioxide, total [Moles/volume] in Blood"
        },
        "valueQuantity": {
          "system": "http://unitsofmeasure.org",
          "value": 27.1,
          "unit": "mmol/L",
          "code": "mmol/L"
        },
        "referenceRange": [
          {
            "low": {
              "value": 22,
              "code": "mmol/L",
              "system": "http://unitsofmeasure.org"
            }
          },
          {
            "high": {
              "value": 29,
              "code": "mmol/L",
              "system": "http://unitsofmeasure.org"
            }
          }
        ],
        "text": {
          "status": "generated",
          "div": "<div xmlns=\"http://www.w3.org/1999/xhtml\"><table class=\"hl7__eu__lab__report\"><tr><th>Test</th><th>16-Jul-2020</th><th>Reference&#xA0;Range</th><th>Unit</th></tr><tr><td>Carbon dioxide, total [Moles/volume] in Blood</td><td>27.1</td><td>22 - 29</td><td></td><td>mmol/L</td></tr></table></div>"
        },
        "status": "final",
        "subject": {
          "reference": "urn:uuid:3925e843-145b-4521-9ed8-bfa3acbe1ae5",
          "display": "Molly Jenkins"
        },
        "effectiveDateTime": "2020-07-16T14:42:11Z",
        "specimen": {
          "reference": "urn:uuid:1994bb42-5b28-4a63-82de-5b56673d7289"
        }
      }
    },
    {
      "fullUrl": "urn:uuid:3496527d-cd61-438b-9d0a-c5c767f1e463",
      "resource": {
        "resourceType": "Device",
        "id": "3496527d-cd61-438b-9d0a-c5c767f1e463",
        "deviceName": [
          {
            "name": "SYNDERAI Synthetic Generator",
            "type": "manufacturer-name"
          }
        ],
        "version": [
          {
            "value": "5.0"
          }
        ],
        "text": {
          "status": "generated",
          "div": "<div xmlns=\"http://www.w3.org/1999/xhtml\">SYNDERAI Synthetic Generator v5.0</div>"
        },
        "status": "active\"",
        "distinctIdentifier": "synderai-generator-50",
        "manufacturer": "SYNDERAI Project"
      }
    },
    {
      "fullUrl": "urn:uuid:da1218e6-52ff-43bd-ab56-78f46f8de54b",
      "resource": {
        "resourceType": "Provenance",
        "id": "da1218e6-52ff-43bd-ab56-78f46f8de54b",
        "target": [
          {
            "reference": "Patient/3925e843-145b-4521-9ed8-bfa3acbe1ae5"
          },
          {
            "reference": "Bundle/43fc6bb4-391a-4358-8d94-c0690328dca2"
          },
          {
            "reference": "Composition/e850721c-9deb-4a87-9341-49f605fa162e"
          },
          {
            "reference": "PractitionerRole/bfa3bdf3-f9e3-4148-b4f9-2721dc744eba"
          },
          {
            "reference": "Practitioner/6dffd748-59b7-4bb6-b7b0-f357f509315f"
          },
          {
            "reference": "PractitionerRole/e298a830-9dde-476b-9cae-186c3aa4255e"
          },
          {
            "reference": "Organization/1890256f-afff-4a1f-ab69-9c846cee315f"
          }
        ],
        "activity": {
          "text": "Synthetic Example Data Generation"
        },
        "policy": [
          "https://synderai.net/synderai-synthetic-data-policy"
        ],
        "agent": [
          {
            "type": {
              "text": "author"
            },
            "who": {
              "reference": "Device/3496527d-cd61-438b-9d0a-c5c767f1e463"
            }
          }
        ],
        "reason": [
          {
            "text": "Interoperability Testing and Training (non-clinical use)"
          }
        ],
        "text": {
          "status": "generated",
          "div": "<div xmlns=\"http://www.w3.org/1999/xhtml\">Provenance for SYNDERAI Synthetic Example Data Resource</div>"
        },
        "recorded": "2020-07-16T16:42:11Z"
      }
    },
    {
      "fullUrl": "urn:uuid:bfa3bdf3-f9e3-4148-b4f9-2721dc744eba",
      "resource": {
        "resourceType": "PractitionerRole",
        "id": "bfa3bdf3-f9e3-4148-b4f9-2721dc744eba",
        "meta": {
          "profile": [
            "http://hl7.eu/fhir/base/StructureDefinition/practitionerRole-eu"
          ]
        },
        "text": {
          "status": "generated",
          "div": "<div xmlns=\"http://www.w3.org/1999/xhtml\">Laboratory Role Id: bfa3bdf3-f9e3-4148-b4f9-2721dc744eba</div>"
        },
        "practitioner": {
          "reference": "urn:uuid:6dffd748-59b7-4bb6-b7b0-f357f509315f"
        }
      }
    },
    {
      "fullUrl": "urn:uuid:6dffd748-59b7-4bb6-b7b0-f357f509315f",
      "resource": {
        "resourceType": "Practitioner",
        "id": "6dffd748-59b7-4bb6-b7b0-f357f509315f",
        "meta": {
          "profile": [
            "http://hl7.eu/fhir/base/StructureDefinition/practitioner-eu"
          ]
        },
        "identifier": [
          {
            "assigner": {
              "display": "HL7 Europe"
            },
            "system": "urn:oid:2.16.840.1.113883.2.51.999",
            "value": "a614355c-4240-4dda-bb99-d4a917e7e990"
          }
        ],
        "name": [
          {
            "prefix": [
              "dr"
            ],
            "given": [
              "Ex"
            ],
            "family": "Ample"
          }
        ],
        "address": [
          {
            "line": [
              "Laboratoire Central Europenne",
              "Boulevard du Jardin Botanique 32"
            ],
            "postalCode": "1000",
            "city": "Brussels",
            "country": "Belgium"
          }
        ],
        "text": {
          "status": "generated",
          "div": "<div xmlns=\"http://www.w3.org/1999/xhtml\">Laboratory: Laboratoire Central Europenne, 1000 Brussels, Belgium</div>"
        }
      }
    }
  ],
  "type": "document",
  "timestamp": "2020-07-16T16:42:11Z"
}
