{
  "resourceType": "Bundle",
  "id": "6e70c324-ea7e-4241-a317-18ab802caecc",
  "meta": {
    "profile": [
      "http://hl7.eu/fhir/laboratory/StructureDefinition/Bundle-eu-lab"
    ]
  },
  "identifier": {
    "assigner": {
      "display": "HL7 Europe"
    },
    "system": "urn:oid:2.16.840.1.113883.2.51.999",
    "value": "81cd571d-7108-481c-9682-4676446dba68"
  },
  "entry": [
    {
      "fullUrl": "urn:uuid:a628b810-c59d-4f14-9d76-58ea23ec8682",
      "resource": {
        "resourceType": "Composition",
        "id": "a628b810-c59d-4f14-9d76-58ea23ec8682",
        "meta": {
          "profile": [
            "http://hl7.eu/fhir/laboratory/StructureDefinition/Composition-eu-lab"
          ]
        },
        "identifier": {
          "assigner": {
            "display": "HL7 Europe"
          },
          "system": "urn:oid:2.16.840.1.113883.2.51.999",
          "value": "7538b979-2a17-47c1-8f0a-3bbf81d60fe0"
        },
        "author": [
          {
            "reference": "urn:uuid:cd38ff8a-f79a-4553-a7aa-cce8d4d6e335"
          }
        ],
        "category": [
          {
            "coding": [
              {
                "code": "26436-6",
                "system": "http://loinc.org",
                "display": "Laboratory studies (set)"
              }
            ]
          }
        ],
        "type": {
          "coding": [
            {
              "code": "11502-2",
              "system": "http://loinc.org",
              "display": "Laboratory report"
            }
          ],
          "text": "Laboratory Report"
        },
        "section": [
          {
            "code": {
              "coding": [
                {
                  "code": "26436-6",
                  "system": "http://loinc.org",
                  "display": "Laboratory studies (set)"
                }
              ],
              "text": "Laboratory studies"
            },
            "section": [
              {
                "code": {
                  "coding": [
                    {
                      "code": "$18719-5",
                      "system": "http://loinc.org",
                      "display": "Chemistry studies (set)"
                    }
                  ],
                  "text": "Chemistry"
                },
                "entry": [
                  {
                    "reference": "urn:uuid:2d174919-3210-48f9-9478-307a012d13cc"
                  },
                  {
                    "reference": "urn:uuid:d4cb25fe-a382-4983-a870-f5092526474f"
                  },
                  {
                    "reference": "urn:uuid:ddc197e7-6aa4-4d2d-9cc0-1cbfb4b8efaa"
                  },
                  {
                    "reference": "urn:uuid:a636ad6f-a05f-4f60-815c-cff6f820d946"
                  },
                  {
                    "reference": "urn:uuid:d7b5e31a-15d4-4624-ba51-02e74f07e9ce"
                  },
                  {
                    "reference": "urn:uuid:4a9b9b13-e211-4ef2-bb3f-1d1e2f15a635"
                  },
                  {
                    "reference": "urn:uuid:cff6d0d0-5411-4919-93ff-ab8b61259418"
                  },
                  {
                    "reference": "urn:uuid:feaa489a-cdf3-4b54-a345-bab50cace74b"
                  },
                  {
                    "reference": "urn:uuid:f8a4e387-6e18-4ee3-b485-22733d85c821"
                  }
                ],
                "text": {
                  "status": "generated",
                  "div": "<div xmlns=\"http://www.w3.org/1999/xhtml\"><h3>Chemistry</h3><table class=\"hl7__eu__lab__report\"><thead><tr><th>Test</th><th>06-FEB-2024</th><th>Reference&#xA0;Range</th><th>Unit</th></tr></thead><tbody><tr><td>Glucose [Mass/volume] in Serum or Plasma</td><td>89.7</td><td>70 - 139</td><td>mg/dL</td></tr><tr><td>Urea nitrogen [Mass/volume] in Serum or Plasma</td><td>16.6</td><td>7 - 20</td><td>mg/dL</td></tr><tr><td>Creatinine [Mass/volume] in Serum or Plasma</td><td><strong>1.8 H</strong></td><td>0.6 - 1.1</td><td>mg/dL</td></tr><tr><td>Calcium [Mass/volume] in Serum or Plasma</td><td>9.7</td><td>8.5 - 10.4</td><td>mg/dL</td></tr><tr><td>Sodium [Moles/volume] in Serum or Plasma</td><td>143.0</td><td>135 - 145</td><td>mmol/L</td></tr><tr><td>Potassium [Moles/volume] in Serum or Plasma</td><td>4.9</td><td>3.5 - 5.1</td><td>mmol/L</td></tr><tr><td>Chloride [Moles/volume] in Serum or Plasma</td><td><strong>110.5 H</strong></td><td>98 - 110</td><td>mmol/L</td></tr><tr><td>Carbon dioxide, total [Moles/volume] in Serum or Plasma</td><td>28.1</td><td>22 - 32</td><td>mmol/L</td></tr><tr><td>Ketones [Presence] in Urine by Test strip</td><td>Urine ketone test = +</td><td></td><td></td></tr></tbody></table></div>"
                },
                "title": "Chemistry"
              },
              {
                "code": {
                  "coding": [
                    {
                      "code": "$18729-4",
                      "system": "http://loinc.org",
                      "display": "Urinalysis studies (set)"
                    }
                  ],
                  "text": "Urinalysis"
                },
                "entry": [
                  {
                    "reference": "urn:uuid:72c8ca0b-5b1a-4537-a591-62b981ab6256"
                  },
                  {
                    "reference": "urn:uuid:6c7b55ca-2396-4fea-b6f5-968f65c3da75"
                  },
                  {
                    "reference": "urn:uuid:90b05cdd-7d81-4199-844b-58390111bf0d"
                  },
                  {
                    "reference": "urn:uuid:c686a317-978e-4e30-a44e-ce6f11562aa2"
                  },
                  {
                    "reference": "urn:uuid:894adbf5-3351-4c5c-9be1-394820c5d916"
                  },
                  {
                    "reference": "urn:uuid:90edf71f-fc33-4ab0-9d1b-48aabf9e7460"
                  },
                  {
                    "reference": "urn:uuid:50b095bf-fee3-4bc9-ac51-2c83b03e7c21"
                  },
                  {
                    "reference": "urn:uuid:f41c9858-5188-4070-8765-e2da77cac0ee"
                  },
                  {
                    "reference": "urn:uuid:c47bed83-c0da-4dcf-a5c6-d75b1f8c545a"
                  },
                  {
                    "reference": "urn:uuid:ca896637-ec21-41df-a219-f6e7b896f2fe"
                  },
                  {
                    "reference": "urn:uuid:3a9cca40-6008-46dc-bac6-5455373c8a78"
                  },
                  {
                    "reference": "urn:uuid:1746360d-f757-4473-b2d8-df429b84ed65"
                  }
                ],
                "text": {
                  "status": "generated",
                  "div": "<div xmlns=\"http://www.w3.org/1999/xhtml\"><h3>Urinalysis</h3><table class=\"hl7__eu__lab__report\"><thead><tr><th>Test</th><th>06-FEB-2024</th><th>Reference&#xA0;Range</th><th>Unit</th></tr></thead><tbody><tr><td>Glucose [Mass/volume] in Urine by Test strip</td><td><strong>1.7 H</strong></td><td>0 - 0</td><td>mg/dL</td></tr><tr><td>Glucose [Presence] in Urine by Test strip</td><td>++</td><td></td><td></td></tr><tr><td>Bilirubin.total [Mass/volume] in Urine by Test strip</td><td>0.3</td><td>0 - 1.6</td><td>mg/dL</td></tr><tr><td>Bilirubin.total [Presence] in Urine by Test strip</td><td>Finding of bilirubin in urine</td><td></td><td></td></tr><tr><td>Ketones [Mass/volume] in Urine by Test strip</td><td><strong>15.9 H</strong></td><td>0 - 0.5</td><td>mg/dL</td></tr><tr><td>Specific gravity of Urine by Test strip</td><td><strong>1.0 L</strong></td><td>1.005 - 1.03</td><td>{nominal}</td></tr><tr><td>pH of Urine by Test strip</td><td>5.4</td><td>4.5 - 7.5</td><td>pH</td></tr><tr><td>Protein [Mass/volume] in Urine by Test strip</td><td><strong>303.7 H</strong></td><td>0 - 15</td><td>mg/dL</td></tr><tr><td>Protein [Presence] in Urine by Test strip</td><td>Urine protein test = ++</td><td></td><td></td></tr><tr><td>Nitrite [Presence] in Urine by Test strip</td><td>Urine nitrite negative</td><td></td><td></td></tr><tr><td>Hemoglobin [Presence] in Urine by Test strip</td><td>Urine blood test = negative</td><td></td><td></td></tr><tr><td>Leukocyte esterase [Presence] in Urine by Test strip</td><td>Urine leukocyte test negative</td><td></td><td></td></tr></tbody></table></div>"
                },
                "title": "Urinalysis"
              },
              {
                "code": {
                  "coding": [
                    {
                      "code": "$LP7846-1",
                      "system": "http://loinc.org",
                      "display": "Specimen information"
                    }
                  ],
                  "text": "Specimen information"
                },
                "entry": [
                  {
                    "reference": "urn:uuid:fa35f523-9ad2-445f-a14f-6d0e455576e5"
                  },
                  {
                    "reference": "urn:uuid:d71d1b52-6f06-4cd3-bf70-0b4c178db5dc"
                  },
                  {
                    "reference": "urn:uuid:24b20f6b-3a4c-47db-a16c-3a0b436affae"
                  },
                  {
                    "reference": "urn:uuid:eba0ab12-92a8-4943-8fbe-55b62898ca58"
                  }
                ],
                "text": {
                  "status": "generated",
                  "div": "<div xmlns=\"http://www.w3.org/1999/xhtml\"><h3>Specimen information</h3><table class=\"hl7__eu__lab__report\"><thead><tr><th>Test</th><th>06-FEB-2024</th><th>Specimen</th><th></th></tr></thead><tbody><tr><td>Appearance of Urine</td><td>Cloudy urine</td><td>Urine</td><td></td></tr><tr><td>Odor of Urine</td><td>Urine smell ammoniacal</td><td>Urine</td><td></td></tr><tr><td>Clarity of Urine</td><td>Translucent</td><td>Urine</td><td></td></tr><tr><td>Color of Urine</td><td>Brown color</td><td>Urine</td><td></td></tr></tbody></table></div>"
                },
                "title": "Specimen information"
              }
            ],
            "title": "Laboratory Report"
          },
          {
            "text": {
              "status": "generated",
              "div": "<div xmlns=\"http://www.w3.org/1999/xhtml\"><h3>Annotation</h3><table class=\"hl7__eu__lab__report\"><tr><th>Conclusion and Recommendations based on this report and previous findings known to us</th></tr><tr><td>The patient shows elevated serum creatinine, proteinuria, glycosuria, and ketonuria, with low urine specific gravity and abnormal urine appearance (cloudy, brown, ammoniacal). These findings suggest impaired renal function, possible diabetic nephropathy, and possible dehydration or metabolic disturbance. No evidence of urinary tract infection is present. Further clinical correlation and nephrology evaluation are recommended.</td></tr></table></div>"
            },
            "code": {
              "coding": [
                {
                  "system": "http://loinc.org",
                  "code": "48767-8",
                  "display": "Annotation comment"
                }
              ]
            },
            "title": "Annotation comment"
          }
        ],
        "status": "final",
        "subject": {
          "reference": "urn:uuid:0d4a61fc-dc7e-46b9-afdf-70fbfb3f8c34",
          "display": "Hortense Gallet"
        },
        "date": "2024-02-06T21:16:45Z",
        "title": "Laboratory Report",
        "confidentiality": "N"
      }
    },
    {
      "fullUrl": "urn:uuid:f2e761bd-e2b8-48dd-b222-a981a47accb4",
      "resource": {
        "resourceType": "DiagnosticReport",
        "id": "f2e761bd-e2b8-48dd-b222-a981a47accb4",
        "meta": {
          "profile": [
            "http://hl7.eu/fhir/laboratory/StructureDefinition/DiagnosticReport-eu-lab"
          ]
        },
        "identifier": [
          {
            "assigner": {
              "display": "HL7 Europe"
            },
            "system": "urn:oid:2.16.840.1.113883.2.51.999",
            "value": "643219d6-5d6b-411d-aa60-7f234de6e162"
          }
        ],
        "extension": [
          {
            "url": "http://hl7.org/fhir/5.0/StructureDefinition/extension-DiagnosticReport.composition",
            "valueReference": {
              "reference": "urn:uuid:7538b979-2a17-47c1-8f0a-3bbf81d60fe0"
            }
          }
        ],
        "category": [
          {
            "coding": [
              {
                "code": "26436-6",
                "system": "http://loinc.org",
                "display": "Laboratory studies (set)"
              }
            ]
          }
        ],
        "specimen": [
          {
            "reference": "urn:uuid:e1adcbda-b767-46aa-af7a-059aef0fab04"
          },
          {
            "reference": "urn:uuid:7364bc9c-f92d-4b78-afe5-9508405fd9a5"
          }
        ],
        "result": [
          {
            "reference": "urn:uuid:2d174919-3210-48f9-9478-307a012d13cc"
          },
          {
            "reference": "urn:uuid:d4cb25fe-a382-4983-a870-f5092526474f"
          },
          {
            "reference": "urn:uuid:ddc197e7-6aa4-4d2d-9cc0-1cbfb4b8efaa"
          },
          {
            "reference": "urn:uuid:a636ad6f-a05f-4f60-815c-cff6f820d946"
          },
          {
            "reference": "urn:uuid:d7b5e31a-15d4-4624-ba51-02e74f07e9ce"
          },
          {
            "reference": "urn:uuid:4a9b9b13-e211-4ef2-bb3f-1d1e2f15a635"
          },
          {
            "reference": "urn:uuid:cff6d0d0-5411-4919-93ff-ab8b61259418"
          },
          {
            "reference": "urn:uuid:feaa489a-cdf3-4b54-a345-bab50cace74b"
          },
          {
            "reference": "urn:uuid:fa35f523-9ad2-445f-a14f-6d0e455576e5"
          },
          {
            "reference": "urn:uuid:d71d1b52-6f06-4cd3-bf70-0b4c178db5dc"
          },
          {
            "reference": "urn:uuid:24b20f6b-3a4c-47db-a16c-3a0b436affae"
          },
          {
            "reference": "urn:uuid:eba0ab12-92a8-4943-8fbe-55b62898ca58"
          },
          {
            "reference": "urn:uuid:72c8ca0b-5b1a-4537-a591-62b981ab6256"
          },
          {
            "reference": "urn:uuid:6c7b55ca-2396-4fea-b6f5-968f65c3da75"
          },
          {
            "reference": "urn:uuid:90b05cdd-7d81-4199-844b-58390111bf0d"
          },
          {
            "reference": "urn:uuid:c686a317-978e-4e30-a44e-ce6f11562aa2"
          },
          {
            "reference": "urn:uuid:894adbf5-3351-4c5c-9be1-394820c5d916"
          },
          {
            "reference": "urn:uuid:f8a4e387-6e18-4ee3-b485-22733d85c821"
          },
          {
            "reference": "urn:uuid:90edf71f-fc33-4ab0-9d1b-48aabf9e7460"
          },
          {
            "reference": "urn:uuid:50b095bf-fee3-4bc9-ac51-2c83b03e7c21"
          },
          {
            "reference": "urn:uuid:f41c9858-5188-4070-8765-e2da77cac0ee"
          },
          {
            "reference": "urn:uuid:c47bed83-c0da-4dcf-a5c6-d75b1f8c545a"
          },
          {
            "reference": "urn:uuid:ca896637-ec21-41df-a219-f6e7b896f2fe"
          },
          {
            "reference": "urn:uuid:3a9cca40-6008-46dc-bac6-5455373c8a78"
          },
          {
            "reference": "urn:uuid:1746360d-f757-4473-b2d8-df429b84ed65"
          }
        ],
        "status": "registered",
        "code": {
          "coding": [
            {
              "code": "11502-2",
              "system": "http://loinc.org",
              "display": "Laboratory report"
            }
          ]
        },
        "subject": {
          "reference": "urn:uuid:0d4a61fc-dc7e-46b9-afdf-70fbfb3f8c34",
          "display": "Hortense Gallet"
        }
      }
    },
    {
      "fullUrl": "urn:uuid:0d4a61fc-dc7e-46b9-afdf-70fbfb3f8c34",
      "resource": {
        "resourceType": "Patient",
        "id": "0d4a61fc-dc7e-46b9-afdf-70fbfb3f8c34",
        "meta": {
          "security": [
            {
              "system": "http://terminology.hl7.org/CodeSystem/v3-ActReason",
              "code": "HTEST"
            },
            {
              "system": "http://terminology.hl7.org/CodeSystem/v3-ActReason",
              "code": "TRAIN"
            }
          ],
          "tag": [
            {
              "system": "https://synderai.net/fhir/CodeSystem/tags",
              "code": "synthetic",
              "display": "SYNDERAI Synthetic data"
            }
          ],
          "profile": [
            "http://hl7.eu/fhir/base/StructureDefinition/patient-eu-core"
          ]
        },
        "identifier": [
          {
            "type": {
              "coding": [
                {
                  "code": "PT",
                  "system": "http://terminology.hl7.org/CodeSystem/v2-0203"
                }
              ]
            },
            "system": "http://ec.europa.eu/identifier/eci",
            "value": "7727-126450-7"
          },
          {
            "type": {
              "coding": [
                {
                  "code": "MR",
                  "system": "http://terminology.hl7.org/CodeSystem/v2-0203"
                }
              ]
            },
            "system": "http://local.setting.eu/identifier",
            "value": "7f40b956-404d-dd5b-92ca-442ee97c8277"
          }
        ],
        "name": [
          {
            "family": "Gallet"
          },
          {
            "given": [
              "Hortense"
            ]
          },
          {
            "text": "Hortense Gallet"
          }
        ],
        "address": [
          {
            "line": [
              "98, boulevard de Faure"
            ],
            "use": "home",
            "type": "physical",
            "postalCode": "03210",
            "city": "Besson",
            "country": "France"
          }
        ],
        "telecom": [
          {
            "system": "phone",
            "value": "03 26 87 89 04"
          }
        ],
        "extension": [
          {
            "url": "http://hl7.org/fhir/StructureDefinition/patient-nationality",
            "valueCodeableConcept": {
              "coding": [
                {
                  "code": "FR",
                  "system": "http://hl7.org/fhir/ValueSet/country"
                }
              ]
            }
          }
        ],
        "text": {
          "status": "generated",
          "div": "<div xmlns=\"http://www.w3.org/1999/xhtml\"><table class=\"hl7__ips\"><tr><td>Hortense Gallet</td><td>female</td><td>14-Feb-1967</td></tr></table></div>"
        },
        "gender": "female",
        "birthDate": "1967-02-14"
      }
    },
    {
      "fullUrl": "urn:uuid:3ffe541e-8643-4dff-afcd-7c4e9310d4c0",
      "resource": {
        "resourceType": "ServiceRequest",
        "id": "3ffe541e-8643-4dff-afcd-7c4e9310d4c0",
        "meta": {
          "profile": [
            "http://hl7.eu/fhir/laboratory/StructureDefinition/ServiceRequest-eu-lab"
          ]
        },
        "identifier": [
          {
            "system": "http://example.org",
            "value": "c5d88428-6cbe-43c8-b15a-caa7c7be9354"
          }
        ],
        "specimen": [
          {
            "reference": "urn:uuid:e1adcbda-b767-46aa-af7a-059aef0fab04"
          },
          {
            "reference": "urn:uuid:7364bc9c-f92d-4b78-afe5-9508405fd9a5"
          }
        ],
        "reasonCode": [
          {
            "coding": [
              {
                "code": "431856006",
                "system": "http://snomed.info/sct",
                "display": "Chronic kidney disease stage 2"
              }
            ]
          },
          {
            "coding": [
              {
                "code": "90781000119102",
                "system": "http://snomed.info/sct",
                "display": "Microalbuminuria due to type 2 diabetes mellitus"
              }
            ]
          },
          {
            "coding": [
              {
                "code": "127013003",
                "system": "http://snomed.info/sct",
                "display": "Disorder of kidney due to diabetes mellitus"
              }
            ]
          },
          {
            "coding": [
              {
                "code": "431855005",
                "system": "http://snomed.info/sct",
                "display": "Chronic kidney disease stage 1"
              }
            ]
          },
          {
            "coding": [
              {
                "code": "59621000",
                "system": "http://snomed.info/sct",
                "display": "Essential hypertension"
              }
            ]
          }
        ],
        "status": "active",
        "intent": "order",
        "code": {
          "coding": [
            {
              "code": "108252007",
              "system": "http://snomed.info/sct",
              "display": "Laboratory procedure"
            }
          ]
        },
        "subject": {
          "reference": "urn:uuid:0d4a61fc-dc7e-46b9-afdf-70fbfb3f8c34",
          "display": "Hortense Gallet"
        },
        "requester": {
          "reference": "urn:uuid:3487d698-a768-40d3-b388-3db30b80355f"
        }
      }
    },
    {
      "fullUrl": "urn:uuid:3487d698-a768-40d3-b388-3db30b80355f",
      "resource": {
        "resourceType": "PractitionerRole",
        "id": "3487d698-a768-40d3-b388-3db30b80355f",
        "meta": {
          "profile": [
            "http://hl7.eu/fhir/base/StructureDefinition/practitionerRole-eu"
          ]
        },
        "text": {
          "status": "generated",
          "div": "<div xmlns=\"http://www.w3.org/1999/xhtml\">Provider Role Id: 3487d698-a768-40d3-b388-3db30b80355f</div>"
        },
        "organization": {
          "reference": "urn:uuid:cb3709ea-488a-48be-b47d-583e3d0ab105"
        }
      }
    },
    {
      "fullUrl": "urn:uuid:cb3709ea-488a-48be-b47d-583e3d0ab105",
      "resource": {
        "resourceType": "Organization",
        "id": "cb3709ea-488a-48be-b47d-583e3d0ab105",
        "meta": {
          "profile": [
            "http://hl7.eu/fhir/base/StructureDefinition/organization-eu"
          ]
        },
        "identifier": [
          {
            "assigner": {
              "display": "HL7 Europe"
            },
            "system": "urn:oid:2.16.840.1.113883.2.51.999",
            "value": "99d390bf-2c40-4f8d-86d8-0e814d64b5e4"
          }
        ],
        "address": [
          {
            "line": [
              "Rue Jean Jaurès 140"
            ],
            "city": "Vichy",
            "postalCode": "03200",
            "country": "France"
          }
        ],
        "text": {
          "status": "generated",
          "div": "<div xmlns=\"http://www.w3.org/1999/xhtml\">Provider Organization: Centre La Chrysalide</div>"
        },
        "name": "Centre La Chrysalide"
      }
    },
    {
      "fullUrl": "urn:uuid:e1adcbda-b767-46aa-af7a-059aef0fab04",
      "resource": {
        "resourceType": "Specimen",
        "id": "e1adcbda-b767-46aa-af7a-059aef0fab04",
        "meta": {
          "profile": [
            "http://hl7.eu/fhir/laboratory/StructureDefinition/Specimen-eu-lab"
          ]
        },
        "collection": {
          "collectedDateTime": "2024-02-06"
        },
        "text": {
          "status": "generated",
          "div": "<div xmlns=\"http://www.w3.org/1999/xhtml\"><table class=\"hl7__eu__lab__report\"><tr><th>Specimen</th><th>Collection Date</th></tr><tr><td>Acellular blood (serum or plasma) specimen</td><td><span class=\"nb\">06-Feb-2024</span></td></tr></table></div>"
        },
        "type": {
          "coding": [
            {
              "code": "122592007",
              "system": "http://snomed.info/sct",
              "display": "Acellular blood (serum or plasma) specimen"
            }
          ]
        }
      }
    },
    {
      "fullUrl": "urn:uuid:7364bc9c-f92d-4b78-afe5-9508405fd9a5",
      "resource": {
        "resourceType": "Specimen",
        "id": "7364bc9c-f92d-4b78-afe5-9508405fd9a5",
        "meta": {
          "profile": [
            "http://hl7.eu/fhir/laboratory/StructureDefinition/Specimen-eu-lab"
          ]
        },
        "collection": {
          "collectedDateTime": "2024-02-06"
        },
        "text": {
          "status": "generated",
          "div": "<div xmlns=\"http://www.w3.org/1999/xhtml\"><table class=\"hl7__eu__lab__report\"><tr><th>Specimen</th><th>Collection Date</th></tr><tr><td>Urine specimen</td><td><span class=\"nb\">06-Feb-2024</span></td></tr></table></div>"
        },
        "type": {
          "coding": [
            {
              "code": "122575003",
              "system": "http://snomed.info/sct",
              "display": "Urine specimen"
            }
          ]
        }
      }
    },
    {
      "fullUrl": "urn:uuid:2d174919-3210-48f9-9478-307a012d13cc",
      "resource": {
        "resourceType": "Observation",
        "id": "2d174919-3210-48f9-9478-307a012d13cc",
        "meta": {
          "profile": [
            "http://hl7.eu/fhir/laboratory/StructureDefinition/Observation-resultslab-eu-lab"
          ]
        },
        "performer": [
          {
            "display": "The Central European Lab"
          }
        ],
        "category": [
          {
            "coding": [
              {
                "system": "http://terminology.hl7.org/CodeSystem/observation-category",
                "code": "laboratory"
              }
            ]
          }
        ],
        "code": {
          "coding": [
            {
              "code": "2345-7",
              "system": "http://loinc.org",
              "display": "Glucose [Mass/volume] in Serum or Plasma"
            }
          ],
          "text": "Glucose [Mass/volume] in Serum or Plasma"
        },
        "valueQuantity": {
          "system": "http://unitsofmeasure.org",
          "value": 89.7,
          "unit": "mg/dL",
          "code": "mg/dL"
        },
        "referenceRange": [
          {
            "low": {
              "value": 70,
              "code": "mg/dL",
              "system": "http://unitsofmeasure.org"
            }
          },
          {
            "high": {
              "value": 139,
              "code": "mg/dL",
              "system": "http://unitsofmeasure.org"
            }
          }
        ],
        "text": {
          "status": "generated",
          "div": "<div xmlns=\"http://www.w3.org/1999/xhtml\"><table class=\"hl7__eu__lab__report\"><tr><th>Test</th><th>06-Feb-2024</th><th>Reference&#xA0;Range</th><th>Unit</th></tr><tr><td>Glucose [Mass/volume] in Serum or Plasma</td><td>89.7</td><td>70 - 139</td><td></td><td>mg/dL</td></tr></table></div>"
        },
        "status": "final",
        "subject": {
          "reference": "urn:uuid:0d4a61fc-dc7e-46b9-afdf-70fbfb3f8c34",
          "display": "Hortense Gallet"
        },
        "effectiveDateTime": "2024-02-06T20:16:45Z",
        "specimen": {
          "reference": "urn:uuid:e1adcbda-b767-46aa-af7a-059aef0fab04"
        }
      }
    },
    {
      "fullUrl": "urn:uuid:d4cb25fe-a382-4983-a870-f5092526474f",
      "resource": {
        "resourceType": "Observation",
        "id": "d4cb25fe-a382-4983-a870-f5092526474f",
        "meta": {
          "profile": [
            "http://hl7.eu/fhir/laboratory/StructureDefinition/Observation-resultslab-eu-lab"
          ]
        },
        "performer": [
          {
            "display": "The Central European Lab"
          }
        ],
        "category": [
          {
            "coding": [
              {
                "system": "http://terminology.hl7.org/CodeSystem/observation-category",
                "code": "laboratory"
              }
            ]
          }
        ],
        "code": {
          "coding": [
            {
              "code": "3094-0",
              "system": "http://loinc.org",
              "display": "Urea nitrogen [Mass/volume] in Serum or Plasma"
            }
          ],
          "text": "Urea nitrogen [Mass/volume] in Serum or Plasma"
        },
        "valueQuantity": {
          "system": "http://unitsofmeasure.org",
          "value": 16.6,
          "unit": "mg/dL",
          "code": "mg/dL"
        },
        "referenceRange": [
          {
            "low": {
              "value": 7,
              "code": "mg/dL",
              "system": "http://unitsofmeasure.org"
            }
          },
          {
            "high": {
              "value": 20,
              "code": "mg/dL",
              "system": "http://unitsofmeasure.org"
            }
          }
        ],
        "text": {
          "status": "generated",
          "div": "<div xmlns=\"http://www.w3.org/1999/xhtml\"><table class=\"hl7__eu__lab__report\"><tr><th>Test</th><th>06-Feb-2024</th><th>Reference&#xA0;Range</th><th>Unit</th></tr><tr><td>Urea nitrogen [Mass/volume] in Serum or Plasma</td><td>16.6</td><td>7 - 20</td><td></td><td>mg/dL</td></tr></table></div>"
        },
        "status": "final",
        "subject": {
          "reference": "urn:uuid:0d4a61fc-dc7e-46b9-afdf-70fbfb3f8c34",
          "display": "Hortense Gallet"
        },
        "effectiveDateTime": "2024-02-06T20:16:45Z",
        "specimen": {
          "reference": "urn:uuid:e1adcbda-b767-46aa-af7a-059aef0fab04"
        }
      }
    },
    {
      "fullUrl": "urn:uuid:ddc197e7-6aa4-4d2d-9cc0-1cbfb4b8efaa",
      "resource": {
        "resourceType": "Observation",
        "id": "ddc197e7-6aa4-4d2d-9cc0-1cbfb4b8efaa",
        "meta": {
          "profile": [
            "http://hl7.eu/fhir/laboratory/StructureDefinition/Observation-resultslab-eu-lab"
          ]
        },
        "performer": [
          {
            "display": "The Central European Lab"
          }
        ],
        "category": [
          {
            "coding": [
              {
                "system": "http://terminology.hl7.org/CodeSystem/observation-category",
                "code": "laboratory"
              }
            ]
          }
        ],
        "code": {
          "coding": [
            {
              "code": "2160-0",
              "system": "http://loinc.org",
              "display": "Creatinine [Mass/volume] in Serum or Plasma"
            }
          ],
          "text": "Creatinine [Mass/volume] in Serum or Plasma"
        },
        "valueQuantity": {
          "system": "http://unitsofmeasure.org",
          "value": 1.8,
          "unit": "mg/dL",
          "code": "mg/dL"
        },
        "referenceRange": [
          {
            "low": {
              "value": 0.6,
              "code": "mg/dL",
              "system": "http://unitsofmeasure.org"
            }
          },
          {
            "high": {
              "value": 1.1,
              "code": "mg/dL",
              "system": "http://unitsofmeasure.org"
            }
          }
        ],
        "interpretation": [
          {
            "coding": [
              {
                "code": "H",
                "system": "http://terminology.hl7.org/CodeSystem/v3-ObservationInterpretation",
                "display": "High"
              }
            ]
          }
        ],
        "text": {
          "status": "generated",
          "div": "<div xmlns=\"http://www.w3.org/1999/xhtml\"><table class=\"hl7__eu__lab__report\"><tr><th>Test</th><th>06-Feb-2024</th><th>Reference&#xA0;Range</th><th>Unit</th></tr><tr><td>Creatinine [Mass/volume] in Serum or Plasma</td><td>1.8</td><td>0.6 - 1.1</td><td>H</td><td>mg/dL</td></tr></table></div>"
        },
        "status": "final",
        "subject": {
          "reference": "urn:uuid:0d4a61fc-dc7e-46b9-afdf-70fbfb3f8c34",
          "display": "Hortense Gallet"
        },
        "effectiveDateTime": "2024-02-06T20:16:45Z",
        "specimen": {
          "reference": "urn:uuid:e1adcbda-b767-46aa-af7a-059aef0fab04"
        }
      }
    },
    {
      "fullUrl": "urn:uuid:a636ad6f-a05f-4f60-815c-cff6f820d946",
      "resource": {
        "resourceType": "Observation",
        "id": "a636ad6f-a05f-4f60-815c-cff6f820d946",
        "meta": {
          "profile": [
            "http://hl7.eu/fhir/laboratory/StructureDefinition/Observation-resultslab-eu-lab"
          ]
        },
        "performer": [
          {
            "display": "The Central European Lab"
          }
        ],
        "category": [
          {
            "coding": [
              {
                "system": "http://terminology.hl7.org/CodeSystem/observation-category",
                "code": "laboratory"
              }
            ]
          }
        ],
        "code": {
          "coding": [
            {
              "code": "17861-6",
              "system": "http://loinc.org",
              "display": "Calcium [Mass/volume] in Serum or Plasma"
            }
          ],
          "text": "Calcium [Mass/volume] in Serum or Plasma"
        },
        "valueQuantity": {
          "system": "http://unitsofmeasure.org",
          "value": 9.7,
          "unit": "mg/dL",
          "code": "mg/dL"
        },
        "referenceRange": [
          {
            "low": {
              "value": 8.5,
              "code": "mg/dL",
              "system": "http://unitsofmeasure.org"
            }
          },
          {
            "high": {
              "value": 10.4,
              "code": "mg/dL",
              "system": "http://unitsofmeasure.org"
            }
          }
        ],
        "text": {
          "status": "generated",
          "div": "<div xmlns=\"http://www.w3.org/1999/xhtml\"><table class=\"hl7__eu__lab__report\"><tr><th>Test</th><th>06-Feb-2024</th><th>Reference&#xA0;Range</th><th>Unit</th></tr><tr><td>Calcium [Mass/volume] in Serum or Plasma</td><td>9.7</td><td>8.5 - 10.4</td><td></td><td>mg/dL</td></tr></table></div>"
        },
        "status": "final",
        "subject": {
          "reference": "urn:uuid:0d4a61fc-dc7e-46b9-afdf-70fbfb3f8c34",
          "display": "Hortense Gallet"
        },
        "effectiveDateTime": "2024-02-06T20:16:45Z",
        "specimen": {
          "reference": "urn:uuid:e1adcbda-b767-46aa-af7a-059aef0fab04"
        }
      }
    },
    {
      "fullUrl": "urn:uuid:d7b5e31a-15d4-4624-ba51-02e74f07e9ce",
      "resource": {
        "resourceType": "Observation",
        "id": "d7b5e31a-15d4-4624-ba51-02e74f07e9ce",
        "meta": {
          "profile": [
            "http://hl7.eu/fhir/laboratory/StructureDefinition/Observation-resultslab-eu-lab"
          ]
        },
        "performer": [
          {
            "display": "The Central European Lab"
          }
        ],
        "category": [
          {
            "coding": [
              {
                "system": "http://terminology.hl7.org/CodeSystem/observation-category",
                "code": "laboratory"
              }
            ]
          }
        ],
        "code": {
          "coding": [
            {
              "code": "2951-2",
              "system": "http://loinc.org",
              "display": "Sodium [Moles/volume] in Serum or Plasma"
            }
          ],
          "text": "Sodium [Moles/volume] in Serum or Plasma"
        },
        "valueQuantity": {
          "system": "http://unitsofmeasure.org",
          "value": 143,
          "unit": "mmol/L",
          "code": "mmol/L"
        },
        "referenceRange": [
          {
            "low": {
              "value": 135,
              "code": "mmol/L",
              "system": "http://unitsofmeasure.org"
            }
          },
          {
            "high": {
              "value": 145,
              "code": "mmol/L",
              "system": "http://unitsofmeasure.org"
            }
          }
        ],
        "text": {
          "status": "generated",
          "div": "<div xmlns=\"http://www.w3.org/1999/xhtml\"><table class=\"hl7__eu__lab__report\"><tr><th>Test</th><th>06-Feb-2024</th><th>Reference&#xA0;Range</th><th>Unit</th></tr><tr><td>Sodium [Moles/volume] in Serum or Plasma</td><td>143.0</td><td>135 - 145</td><td></td><td>mmol/L</td></tr></table></div>"
        },
        "status": "final",
        "subject": {
          "reference": "urn:uuid:0d4a61fc-dc7e-46b9-afdf-70fbfb3f8c34",
          "display": "Hortense Gallet"
        },
        "effectiveDateTime": "2024-02-06T20:16:45Z",
        "specimen": {
          "reference": "urn:uuid:e1adcbda-b767-46aa-af7a-059aef0fab04"
        }
      }
    },
    {
      "fullUrl": "urn:uuid:4a9b9b13-e211-4ef2-bb3f-1d1e2f15a635",
      "resource": {
        "resourceType": "Observation",
        "id": "4a9b9b13-e211-4ef2-bb3f-1d1e2f15a635",
        "meta": {
          "profile": [
            "http://hl7.eu/fhir/laboratory/StructureDefinition/Observation-resultslab-eu-lab"
          ]
        },
        "performer": [
          {
            "display": "The Central European Lab"
          }
        ],
        "category": [
          {
            "coding": [
              {
                "system": "http://terminology.hl7.org/CodeSystem/observation-category",
                "code": "laboratory"
              }
            ]
          }
        ],
        "code": {
          "coding": [
            {
              "code": "2823-3",
              "system": "http://loinc.org",
              "display": "Potassium [Moles/volume] in Serum or Plasma"
            }
          ],
          "text": "Potassium [Moles/volume] in Serum or Plasma"
        },
        "valueQuantity": {
          "system": "http://unitsofmeasure.org",
          "value": 4.9,
          "unit": "mmol/L",
          "code": "mmol/L"
        },
        "referenceRange": [
          {
            "low": {
              "value": 3.5,
              "code": "mmol/L",
              "system": "http://unitsofmeasure.org"
            }
          },
          {
            "high": {
              "value": 5.1,
              "code": "mmol/L",
              "system": "http://unitsofmeasure.org"
            }
          }
        ],
        "text": {
          "status": "generated",
          "div": "<div xmlns=\"http://www.w3.org/1999/xhtml\"><table class=\"hl7__eu__lab__report\"><tr><th>Test</th><th>06-Feb-2024</th><th>Reference&#xA0;Range</th><th>Unit</th></tr><tr><td>Potassium [Moles/volume] in Serum or Plasma</td><td>4.9</td><td>3.5 - 5.1</td><td></td><td>mmol/L</td></tr></table></div>"
        },
        "status": "final",
        "subject": {
          "reference": "urn:uuid:0d4a61fc-dc7e-46b9-afdf-70fbfb3f8c34",
          "display": "Hortense Gallet"
        },
        "effectiveDateTime": "2024-02-06T20:16:45Z",
        "specimen": {
          "reference": "urn:uuid:e1adcbda-b767-46aa-af7a-059aef0fab04"
        }
      }
    },
    {
      "fullUrl": "urn:uuid:cff6d0d0-5411-4919-93ff-ab8b61259418",
      "resource": {
        "resourceType": "Observation",
        "id": "cff6d0d0-5411-4919-93ff-ab8b61259418",
        "meta": {
          "profile": [
            "http://hl7.eu/fhir/laboratory/StructureDefinition/Observation-resultslab-eu-lab"
          ]
        },
        "performer": [
          {
            "display": "The Central European Lab"
          }
        ],
        "category": [
          {
            "coding": [
              {
                "system": "http://terminology.hl7.org/CodeSystem/observation-category",
                "code": "laboratory"
              }
            ]
          }
        ],
        "code": {
          "coding": [
            {
              "code": "2075-0",
              "system": "http://loinc.org",
              "display": "Chloride [Moles/volume] in Serum or Plasma"
            }
          ],
          "text": "Chloride [Moles/volume] in Serum or Plasma"
        },
        "valueQuantity": {
          "system": "http://unitsofmeasure.org",
          "value": 110.5,
          "unit": "mmol/L",
          "code": "mmol/L"
        },
        "referenceRange": [
          {
            "low": {
              "value": 98,
              "code": "mmol/L",
              "system": "http://unitsofmeasure.org"
            }
          },
          {
            "high": {
              "value": 110,
              "code": "mmol/L",
              "system": "http://unitsofmeasure.org"
            }
          }
        ],
        "interpretation": [
          {
            "coding": [
              {
                "code": "H",
                "system": "http://terminology.hl7.org/CodeSystem/v3-ObservationInterpretation",
                "display": "High"
              }
            ]
          }
        ],
        "text": {
          "status": "generated",
          "div": "<div xmlns=\"http://www.w3.org/1999/xhtml\"><table class=\"hl7__eu__lab__report\"><tr><th>Test</th><th>06-Feb-2024</th><th>Reference&#xA0;Range</th><th>Unit</th></tr><tr><td>Chloride [Moles/volume] in Serum or Plasma</td><td>110.5</td><td>98 - 110</td><td>H</td><td>mmol/L</td></tr></table></div>"
        },
        "status": "final",
        "subject": {
          "reference": "urn:uuid:0d4a61fc-dc7e-46b9-afdf-70fbfb3f8c34",
          "display": "Hortense Gallet"
        },
        "effectiveDateTime": "2024-02-06T20:16:45Z",
        "specimen": {
          "reference": "urn:uuid:e1adcbda-b767-46aa-af7a-059aef0fab04"
        }
      }
    },
    {
      "fullUrl": "urn:uuid:feaa489a-cdf3-4b54-a345-bab50cace74b",
      "resource": {
        "resourceType": "Observation",
        "id": "feaa489a-cdf3-4b54-a345-bab50cace74b",
        "meta": {
          "profile": [
            "http://hl7.eu/fhir/laboratory/StructureDefinition/Observation-resultslab-eu-lab"
          ]
        },
        "performer": [
          {
            "display": "The Central European Lab"
          }
        ],
        "category": [
          {
            "coding": [
              {
                "system": "http://terminology.hl7.org/CodeSystem/observation-category",
                "code": "laboratory"
              }
            ]
          }
        ],
        "code": {
          "coding": [
            {
              "code": "2028-9",
              "system": "http://loinc.org",
              "display": "Carbon dioxide, total [Moles/volume] in Serum or Plasma"
            }
          ],
          "text": "Carbon dioxide, total [Moles/volume] in Serum or Plasma"
        },
        "valueQuantity": {
          "system": "http://unitsofmeasure.org",
          "value": 28.1,
          "unit": "mmol/L",
          "code": "mmol/L"
        },
        "referenceRange": [
          {
            "low": {
              "value": 22,
              "code": "mmol/L",
              "system": "http://unitsofmeasure.org"
            }
          },
          {
            "high": {
              "value": 32,
              "code": "mmol/L",
              "system": "http://unitsofmeasure.org"
            }
          }
        ],
        "text": {
          "status": "generated",
          "div": "<div xmlns=\"http://www.w3.org/1999/xhtml\"><table class=\"hl7__eu__lab__report\"><tr><th>Test</th><th>06-Feb-2024</th><th>Reference&#xA0;Range</th><th>Unit</th></tr><tr><td>Carbon dioxide, total [Moles/volume] in Serum or Plasma</td><td>28.1</td><td>22 - 32</td><td></td><td>mmol/L</td></tr></table></div>"
        },
        "status": "final",
        "subject": {
          "reference": "urn:uuid:0d4a61fc-dc7e-46b9-afdf-70fbfb3f8c34",
          "display": "Hortense Gallet"
        },
        "effectiveDateTime": "2024-02-06T20:16:45Z",
        "specimen": {
          "reference": "urn:uuid:e1adcbda-b767-46aa-af7a-059aef0fab04"
        }
      }
    },
    {
      "fullUrl": "urn:uuid:fa35f523-9ad2-445f-a14f-6d0e455576e5",
      "resource": {
        "resourceType": "Observation",
        "id": "fa35f523-9ad2-445f-a14f-6d0e455576e5",
        "meta": {
          "profile": [
            "http://hl7.eu/fhir/laboratory/StructureDefinition/Observation-resultslab-eu-lab"
          ]
        },
        "performer": [
          {
            "display": "The Central European Lab"
          }
        ],
        "category": [
          {
            "coding": [
              {
                "system": "http://terminology.hl7.org/CodeSystem/observation-category",
                "code": "laboratory"
              }
            ]
          }
        ],
        "code": {
          "coding": [
            {
              "code": "5767-9",
              "system": "http://loinc.org",
              "display": "Appearance of Urine"
            }
          ],
          "text": "Appearance of Urine"
        },
        "text": {
          "status": "generated",
          "div": "<div xmlns=\"http://www.w3.org/1999/xhtml\"><table class=\"hl7__eu__lab__report\"><tr><th>Test</th><th>06-Feb-2024</th><th>Reference&#xA0;Range</th><th>Unit</th></tr><tr><td>Appearance of Urine</td></tr></table></div>"
        },
        "status": "final",
        "subject": {
          "reference": "urn:uuid:0d4a61fc-dc7e-46b9-afdf-70fbfb3f8c34",
          "display": "Hortense Gallet"
        },
        "effectiveDateTime": "2024-02-06T20:16:45Z",
        "specimen": {
          "reference": "urn:uuid:7364bc9c-f92d-4b78-afe5-9508405fd9a5"
        }
      }
    },
    {
      "fullUrl": "urn:uuid:d71d1b52-6f06-4cd3-bf70-0b4c178db5dc",
      "resource": {
        "resourceType": "Observation",
        "id": "d71d1b52-6f06-4cd3-bf70-0b4c178db5dc",
        "meta": {
          "profile": [
            "http://hl7.eu/fhir/laboratory/StructureDefinition/Observation-resultslab-eu-lab"
          ]
        },
        "performer": [
          {
            "display": "The Central European Lab"
          }
        ],
        "category": [
          {
            "coding": [
              {
                "system": "http://terminology.hl7.org/CodeSystem/observation-category",
                "code": "laboratory"
              }
            ]
          }
        ],
        "code": {
          "coding": [
            {
              "code": "34533-0",
              "system": "http://loinc.org",
              "display": "Odor of Urine"
            }
          ],
          "text": "Odor of Urine"
        },
        "text": {
          "status": "generated",
          "div": "<div xmlns=\"http://www.w3.org/1999/xhtml\"><table class=\"hl7__eu__lab__report\"><tr><th>Test</th><th>06-Feb-2024</th><th>Reference&#xA0;Range</th><th>Unit</th></tr><tr><td>Odor of Urine</td></tr></table></div>"
        },
        "status": "final",
        "subject": {
          "reference": "urn:uuid:0d4a61fc-dc7e-46b9-afdf-70fbfb3f8c34",
          "display": "Hortense Gallet"
        },
        "effectiveDateTime": "2024-02-06T20:16:45Z",
        "specimen": {
          "reference": "urn:uuid:7364bc9c-f92d-4b78-afe5-9508405fd9a5"
        }
      }
    },
    {
      "fullUrl": "urn:uuid:24b20f6b-3a4c-47db-a16c-3a0b436affae",
      "resource": {
        "resourceType": "Observation",
        "id": "24b20f6b-3a4c-47db-a16c-3a0b436affae",
        "meta": {
          "profile": [
            "http://hl7.eu/fhir/laboratory/StructureDefinition/Observation-resultslab-eu-lab"
          ]
        },
        "performer": [
          {
            "display": "The Central European Lab"
          }
        ],
        "category": [
          {
            "coding": [
              {
                "system": "http://terminology.hl7.org/CodeSystem/observation-category",
                "code": "laboratory"
              }
            ]
          }
        ],
        "code": {
          "coding": [
            {
              "code": "32167-9",
              "system": "http://loinc.org",
              "display": "Clarity of Urine"
            }
          ],
          "text": "Clarity of Urine"
        },
        "text": {
          "status": "generated",
          "div": "<div xmlns=\"http://www.w3.org/1999/xhtml\"><table class=\"hl7__eu__lab__report\"><tr><th>Test</th><th>06-Feb-2024</th><th>Reference&#xA0;Range</th><th>Unit</th></tr><tr><td>Clarity of Urine</td></tr></table></div>"
        },
        "status": "final",
        "subject": {
          "reference": "urn:uuid:0d4a61fc-dc7e-46b9-afdf-70fbfb3f8c34",
          "display": "Hortense Gallet"
        },
        "effectiveDateTime": "2024-02-06T20:16:45Z",
        "specimen": {
          "reference": "urn:uuid:7364bc9c-f92d-4b78-afe5-9508405fd9a5"
        }
      }
    },
    {
      "fullUrl": "urn:uuid:eba0ab12-92a8-4943-8fbe-55b62898ca58",
      "resource": {
        "resourceType": "Observation",
        "id": "eba0ab12-92a8-4943-8fbe-55b62898ca58",
        "meta": {
          "profile": [
            "http://hl7.eu/fhir/laboratory/StructureDefinition/Observation-resultslab-eu-lab"
          ]
        },
        "performer": [
          {
            "display": "The Central European Lab"
          }
        ],
        "category": [
          {
            "coding": [
              {
                "system": "http://terminology.hl7.org/CodeSystem/observation-category",
                "code": "laboratory"
              }
            ]
          }
        ],
        "code": {
          "coding": [
            {
              "code": "5778-6",
              "system": "http://loinc.org",
              "display": "Color of Urine"
            }
          ],
          "text": "Color of Urine"
        },
        "text": {
          "status": "generated",
          "div": "<div xmlns=\"http://www.w3.org/1999/xhtml\"><table class=\"hl7__eu__lab__report\"><tr><th>Test</th><th>06-Feb-2024</th><th>Reference&#xA0;Range</th><th>Unit</th></tr><tr><td>Color of Urine</td></tr></table></div>"
        },
        "status": "final",
        "subject": {
          "reference": "urn:uuid:0d4a61fc-dc7e-46b9-afdf-70fbfb3f8c34",
          "display": "Hortense Gallet"
        },
        "effectiveDateTime": "2024-02-06T20:16:45Z",
        "specimen": {
          "reference": "urn:uuid:7364bc9c-f92d-4b78-afe5-9508405fd9a5"
        }
      }
    },
    {
      "fullUrl": "urn:uuid:72c8ca0b-5b1a-4537-a591-62b981ab6256",
      "resource": {
        "resourceType": "Observation",
        "id": "72c8ca0b-5b1a-4537-a591-62b981ab6256",
        "meta": {
          "profile": [
            "http://hl7.eu/fhir/laboratory/StructureDefinition/Observation-resultslab-eu-lab"
          ]
        },
        "performer": [
          {
            "display": "The Central European Lab"
          }
        ],
        "category": [
          {
            "coding": [
              {
                "system": "http://terminology.hl7.org/CodeSystem/observation-category",
                "code": "laboratory"
              }
            ]
          }
        ],
        "code": {
          "coding": [
            {
              "code": "5792-7",
              "system": "http://loinc.org",
              "display": "Glucose [Mass/volume] in Urine by Test strip"
            }
          ],
          "text": "Glucose [Mass/volume] in Urine by Test strip"
        },
        "valueQuantity": {
          "system": "http://unitsofmeasure.org",
          "value": 1.7,
          "unit": "mg/dL",
          "code": "mg/dL"
        },
        "referenceRange": [
          {
            "low": {
              "value": 0,
              "code": "mg/dL",
              "system": "http://unitsofmeasure.org"
            }
          },
          {
            "high": {
              "value": 0,
              "code": "mg/dL",
              "system": "http://unitsofmeasure.org"
            }
          }
        ],
        "interpretation": [
          {
            "coding": [
              {
                "code": "H",
                "system": "http://terminology.hl7.org/CodeSystem/v3-ObservationInterpretation",
                "display": "High"
              }
            ]
          }
        ],
        "text": {
          "status": "generated",
          "div": "<div xmlns=\"http://www.w3.org/1999/xhtml\"><table class=\"hl7__eu__lab__report\"><tr><th>Test</th><th>06-Feb-2024</th><th>Reference&#xA0;Range</th><th>Unit</th></tr><tr><td>Glucose [Mass/volume] in Urine by Test strip</td><td>1.7</td><td>0 - 0</td><td>H</td><td>mg/dL</td></tr></table></div>"
        },
        "status": "final",
        "subject": {
          "reference": "urn:uuid:0d4a61fc-dc7e-46b9-afdf-70fbfb3f8c34",
          "display": "Hortense Gallet"
        },
        "effectiveDateTime": "2024-02-06T20:16:45Z",
        "specimen": {
          "reference": "urn:uuid:7364bc9c-f92d-4b78-afe5-9508405fd9a5"
        }
      }
    },
    {
      "fullUrl": "urn:uuid:6c7b55ca-2396-4fea-b6f5-968f65c3da75",
      "resource": {
        "resourceType": "Observation",
        "id": "6c7b55ca-2396-4fea-b6f5-968f65c3da75",
        "meta": {
          "profile": [
            "http://hl7.eu/fhir/laboratory/StructureDefinition/Observation-resultslab-eu-lab"
          ]
        },
        "performer": [
          {
            "display": "The Central European Lab"
          }
        ],
        "category": [
          {
            "coding": [
              {
                "system": "http://terminology.hl7.org/CodeSystem/observation-category",
                "code": "laboratory"
              }
            ]
          }
        ],
        "code": {
          "coding": [
            {
              "code": "25428-4",
              "system": "http://loinc.org",
              "display": "Glucose [Presence] in Urine by Test strip"
            }
          ],
          "text": "Glucose [Presence] in Urine by Test strip"
        },
        "text": {
          "status": "generated",
          "div": "<div xmlns=\"http://www.w3.org/1999/xhtml\"><table class=\"hl7__eu__lab__report\"><tr><th>Test</th><th>06-Feb-2024</th><th>Reference&#xA0;Range</th><th>Unit</th></tr><tr><td>Glucose [Presence] in Urine by Test strip</td></tr></table></div>"
        },
        "status": "final",
        "subject": {
          "reference": "urn:uuid:0d4a61fc-dc7e-46b9-afdf-70fbfb3f8c34",
          "display": "Hortense Gallet"
        },
        "effectiveDateTime": "2024-02-06T20:16:45Z",
        "specimen": {
          "reference": "urn:uuid:7364bc9c-f92d-4b78-afe5-9508405fd9a5"
        }
      }
    },
    {
      "fullUrl": "urn:uuid:90b05cdd-7d81-4199-844b-58390111bf0d",
      "resource": {
        "resourceType": "Observation",
        "id": "90b05cdd-7d81-4199-844b-58390111bf0d",
        "meta": {
          "profile": [
            "http://hl7.eu/fhir/laboratory/StructureDefinition/Observation-resultslab-eu-lab"
          ]
        },
        "performer": [
          {
            "display": "The Central European Lab"
          }
        ],
        "category": [
          {
            "coding": [
              {
                "system": "http://terminology.hl7.org/CodeSystem/observation-category",
                "code": "laboratory"
              }
            ]
          }
        ],
        "code": {
          "coding": [
            {
              "code": "20505-4",
              "system": "http://loinc.org",
              "display": "Bilirubin.total [Mass/volume] in Urine by Test strip"
            }
          ],
          "text": "Bilirubin.total [Mass/volume] in Urine by Test strip"
        },
        "valueQuantity": {
          "system": "http://unitsofmeasure.org",
          "value": 0.3,
          "unit": "mg/dL",
          "code": "mg/dL"
        },
        "referenceRange": [
          {
            "low": {
              "value": 0,
              "code": "mg/dL",
              "system": "http://unitsofmeasure.org"
            }
          },
          {
            "high": {
              "value": 1.6,
              "code": "mg/dL",
              "system": "http://unitsofmeasure.org"
            }
          }
        ],
        "text": {
          "status": "generated",
          "div": "<div xmlns=\"http://www.w3.org/1999/xhtml\"><table class=\"hl7__eu__lab__report\"><tr><th>Test</th><th>06-Feb-2024</th><th>Reference&#xA0;Range</th><th>Unit</th></tr><tr><td>Bilirubin.total [Mass/volume] in Urine by Test strip</td><td>0.3</td><td>0 - 1.6</td><td></td><td>mg/dL</td></tr></table></div>"
        },
        "status": "final",
        "subject": {
          "reference": "urn:uuid:0d4a61fc-dc7e-46b9-afdf-70fbfb3f8c34",
          "display": "Hortense Gallet"
        },
        "effectiveDateTime": "2024-02-06T20:16:45Z",
        "specimen": {
          "reference": "urn:uuid:7364bc9c-f92d-4b78-afe5-9508405fd9a5"
        }
      }
    },
    {
      "fullUrl": "urn:uuid:c686a317-978e-4e30-a44e-ce6f11562aa2",
      "resource": {
        "resourceType": "Observation",
        "id": "c686a317-978e-4e30-a44e-ce6f11562aa2",
        "meta": {
          "profile": [
            "http://hl7.eu/fhir/laboratory/StructureDefinition/Observation-resultslab-eu-lab"
          ]
        },
        "performer": [
          {
            "display": "The Central European Lab"
          }
        ],
        "category": [
          {
            "coding": [
              {
                "system": "http://terminology.hl7.org/CodeSystem/observation-category",
                "code": "laboratory"
              }
            ]
          }
        ],
        "code": {
          "coding": [
            {
              "code": "5770-3",
              "system": "http://loinc.org",
              "display": "Bilirubin.total [Presence] in Urine by Test strip"
            }
          ],
          "text": "Bilirubin.total [Presence] in Urine by Test strip"
        },
        "text": {
          "status": "generated",
          "div": "<div xmlns=\"http://www.w3.org/1999/xhtml\"><table class=\"hl7__eu__lab__report\"><tr><th>Test</th><th>06-Feb-2024</th><th>Reference&#xA0;Range</th><th>Unit</th></tr><tr><td>Bilirubin.total [Presence] in Urine by Test strip</td></tr></table></div>"
        },
        "status": "final",
        "subject": {
          "reference": "urn:uuid:0d4a61fc-dc7e-46b9-afdf-70fbfb3f8c34",
          "display": "Hortense Gallet"
        },
        "effectiveDateTime": "2024-02-06T20:16:45Z",
        "specimen": {
          "reference": "urn:uuid:7364bc9c-f92d-4b78-afe5-9508405fd9a5"
        }
      }
    },
    {
      "fullUrl": "urn:uuid:894adbf5-3351-4c5c-9be1-394820c5d916",
      "resource": {
        "resourceType": "Observation",
        "id": "894adbf5-3351-4c5c-9be1-394820c5d916",
        "meta": {
          "profile": [
            "http://hl7.eu/fhir/laboratory/StructureDefinition/Observation-resultslab-eu-lab"
          ]
        },
        "performer": [
          {
            "display": "The Central European Lab"
          }
        ],
        "category": [
          {
            "coding": [
              {
                "system": "http://terminology.hl7.org/CodeSystem/observation-category",
                "code": "laboratory"
              }
            ]
          }
        ],
        "code": {
          "coding": [
            {
              "code": "5797-6",
              "system": "http://loinc.org",
              "display": "Ketones [Mass/volume] in Urine by Test strip"
            }
          ],
          "text": "Ketones [Mass/volume] in Urine by Test strip"
        },
        "valueQuantity": {
          "system": "http://unitsofmeasure.org",
          "value": 15.9,
          "unit": "mg/dL",
          "code": "mg/dL"
        },
        "referenceRange": [
          {
            "low": {
              "value": 0,
              "code": "mg/dL",
              "system": "http://unitsofmeasure.org"
            }
          },
          {
            "high": {
              "value": 0.5,
              "code": "mg/dL",
              "system": "http://unitsofmeasure.org"
            }
          }
        ],
        "interpretation": [
          {
            "coding": [
              {
                "code": "H",
                "system": "http://terminology.hl7.org/CodeSystem/v3-ObservationInterpretation",
                "display": "High"
              }
            ]
          }
        ],
        "text": {
          "status": "generated",
          "div": "<div xmlns=\"http://www.w3.org/1999/xhtml\"><table class=\"hl7__eu__lab__report\"><tr><th>Test</th><th>06-Feb-2024</th><th>Reference&#xA0;Range</th><th>Unit</th></tr><tr><td>Ketones [Mass/volume] in Urine by Test strip</td><td>15.9</td><td>0 - 0.5</td><td>H</td><td>mg/dL</td></tr></table></div>"
        },
        "status": "final",
        "subject": {
          "reference": "urn:uuid:0d4a61fc-dc7e-46b9-afdf-70fbfb3f8c34",
          "display": "Hortense Gallet"
        },
        "effectiveDateTime": "2024-02-06T20:16:45Z",
        "specimen": {
          "reference": "urn:uuid:7364bc9c-f92d-4b78-afe5-9508405fd9a5"
        }
      }
    },
    {
      "fullUrl": "urn:uuid:f8a4e387-6e18-4ee3-b485-22733d85c821",
      "resource": {
        "resourceType": "Observation",
        "id": "f8a4e387-6e18-4ee3-b485-22733d85c821",
        "meta": {
          "profile": [
            "http://hl7.eu/fhir/laboratory/StructureDefinition/Observation-resultslab-eu-lab"
          ]
        },
        "performer": [
          {
            "display": "The Central European Lab"
          }
        ],
        "category": [
          {
            "coding": [
              {
                "system": "http://terminology.hl7.org/CodeSystem/observation-category",
                "code": "laboratory"
              }
            ]
          }
        ],
        "code": {
          "coding": [
            {
              "code": "2514-8",
              "system": "http://loinc.org",
              "display": "Ketones [Presence] in Urine by Test strip"
            }
          ],
          "text": "Ketones [Presence] in Urine by Test strip"
        },
        "text": {
          "status": "generated",
          "div": "<div xmlns=\"http://www.w3.org/1999/xhtml\"><table class=\"hl7__eu__lab__report\"><tr><th>Test</th><th>06-Feb-2024</th><th>Reference&#xA0;Range</th><th>Unit</th></tr><tr><td>Ketones [Presence] in Urine by Test strip</td></tr></table></div>"
        },
        "status": "final",
        "subject": {
          "reference": "urn:uuid:0d4a61fc-dc7e-46b9-afdf-70fbfb3f8c34",
          "display": "Hortense Gallet"
        },
        "effectiveDateTime": "2024-02-06T20:16:45Z",
        "specimen": {
          "reference": "urn:uuid:7364bc9c-f92d-4b78-afe5-9508405fd9a5"
        }
      }
    },
    {
      "fullUrl": "urn:uuid:90edf71f-fc33-4ab0-9d1b-48aabf9e7460",
      "resource": {
        "resourceType": "Observation",
        "id": "90edf71f-fc33-4ab0-9d1b-48aabf9e7460",
        "meta": {
          "profile": [
            "http://hl7.eu/fhir/laboratory/StructureDefinition/Observation-resultslab-eu-lab"
          ]
        },
        "performer": [
          {
            "display": "The Central European Lab"
          }
        ],
        "category": [
          {
            "coding": [
              {
                "system": "http://terminology.hl7.org/CodeSystem/observation-category",
                "code": "laboratory"
              }
            ]
          }
        ],
        "code": {
          "coding": [
            {
              "code": "5811-5",
              "system": "http://loinc.org",
              "display": "Specific gravity of Urine by Test strip"
            }
          ],
          "text": "Specific gravity of Urine by Test strip"
        },
        "valueQuantity": {
          "system": "http://unitsofmeasure.org",
          "value": 1,
          "unit": "{nominal}",
          "code": "{nominal}"
        },
        "referenceRange": [
          {
            "low": {
              "value": 1.005,
              "code": "g/mL",
              "system": "http://unitsofmeasure.org"
            }
          },
          {
            "high": {
              "value": 1.03,
              "code": "g/mL",
              "system": "http://unitsofmeasure.org"
            }
          }
        ],
        "interpretation": [
          {
            "coding": [
              {
                "code": "L",
                "system": "http://terminology.hl7.org/CodeSystem/v3-ObservationInterpretation",
                "display": "Low"
              }
            ]
          }
        ],
        "text": {
          "status": "generated",
          "div": "<div xmlns=\"http://www.w3.org/1999/xhtml\"><table class=\"hl7__eu__lab__report\"><tr><th>Test</th><th>06-Feb-2024</th><th>Reference&#xA0;Range</th><th>Unit</th></tr><tr><td>Specific gravity of Urine by Test strip</td><td>1.0</td><td>1.005 - 1.03</td><td>L</td><td>{nominal}</td></tr></table></div>"
        },
        "status": "final",
        "subject": {
          "reference": "urn:uuid:0d4a61fc-dc7e-46b9-afdf-70fbfb3f8c34",
          "display": "Hortense Gallet"
        },
        "effectiveDateTime": "2024-02-06T20:16:45Z",
        "specimen": {
          "reference": "urn:uuid:7364bc9c-f92d-4b78-afe5-9508405fd9a5"
        }
      }
    },
    {
      "fullUrl": "urn:uuid:50b095bf-fee3-4bc9-ac51-2c83b03e7c21",
      "resource": {
        "resourceType": "Observation",
        "id": "50b095bf-fee3-4bc9-ac51-2c83b03e7c21",
        "meta": {
          "profile": [
            "http://hl7.eu/fhir/laboratory/StructureDefinition/Observation-resultslab-eu-lab"
          ]
        },
        "performer": [
          {
            "display": "The Central European Lab"
          }
        ],
        "category": [
          {
            "coding": [
              {
                "system": "http://terminology.hl7.org/CodeSystem/observation-category",
                "code": "laboratory"
              }
            ]
          }
        ],
        "code": {
          "coding": [
            {
              "code": "5803-2",
              "system": "http://loinc.org",
              "display": "pH of Urine by Test strip"
            }
          ],
          "text": "pH of Urine by Test strip"
        },
        "valueQuantity": {
          "system": "http://unitsofmeasure.org",
          "value": 5.4,
          "unit": "pH",
          "code": "pH"
        },
        "referenceRange": [
          {
            "low": {
              "value": 4.5,
              "code": "pH",
              "system": "http://unitsofmeasure.org"
            }
          },
          {
            "high": {
              "value": 7.5,
              "code": "pH",
              "system": "http://unitsofmeasure.org"
            }
          }
        ],
        "text": {
          "status": "generated",
          "div": "<div xmlns=\"http://www.w3.org/1999/xhtml\"><table class=\"hl7__eu__lab__report\"><tr><th>Test</th><th>06-Feb-2024</th><th>Reference&#xA0;Range</th><th>Unit</th></tr><tr><td>pH of Urine by Test strip</td><td>5.4</td><td>4.5 - 7.5</td><td></td><td>pH</td></tr></table></div>"
        },
        "status": "final",
        "subject": {
          "reference": "urn:uuid:0d4a61fc-dc7e-46b9-afdf-70fbfb3f8c34",
          "display": "Hortense Gallet"
        },
        "effectiveDateTime": "2024-02-06T20:16:45Z",
        "specimen": {
          "reference": "urn:uuid:7364bc9c-f92d-4b78-afe5-9508405fd9a5"
        }
      }
    },
    {
      "fullUrl": "urn:uuid:f41c9858-5188-4070-8765-e2da77cac0ee",
      "resource": {
        "resourceType": "Observation",
        "id": "f41c9858-5188-4070-8765-e2da77cac0ee",
        "meta": {
          "profile": [
            "http://hl7.eu/fhir/laboratory/StructureDefinition/Observation-resultslab-eu-lab"
          ]
        },
        "performer": [
          {
            "display": "The Central European Lab"
          }
        ],
        "category": [
          {
            "coding": [
              {
                "system": "http://terminology.hl7.org/CodeSystem/observation-category",
                "code": "laboratory"
              }
            ]
          }
        ],
        "code": {
          "coding": [
            {
              "code": "5804-0",
              "system": "http://loinc.org",
              "display": "Protein [Mass/volume] in Urine by Test strip"
            }
          ],
          "text": "Protein [Mass/volume] in Urine by Test strip"
        },
        "valueQuantity": {
          "system": "http://unitsofmeasure.org",
          "value": 303.7,
          "unit": "mg/dL",
          "code": "mg/dL"
        },
        "referenceRange": [
          {
            "low": {
              "value": 0,
              "code": "mg/dL",
              "system": "http://unitsofmeasure.org"
            }
          },
          {
            "high": {
              "value": 15,
              "code": "mg/dL",
              "system": "http://unitsofmeasure.org"
            }
          }
        ],
        "interpretation": [
          {
            "coding": [
              {
                "code": "H",
                "system": "http://terminology.hl7.org/CodeSystem/v3-ObservationInterpretation",
                "display": "High"
              }
            ]
          }
        ],
        "text": {
          "status": "generated",
          "div": "<div xmlns=\"http://www.w3.org/1999/xhtml\"><table class=\"hl7__eu__lab__report\"><tr><th>Test</th><th>06-Feb-2024</th><th>Reference&#xA0;Range</th><th>Unit</th></tr><tr><td>Protein [Mass/volume] in Urine by Test strip</td><td>303.7</td><td>0 - 15</td><td>H</td><td>mg/dL</td></tr></table></div>"
        },
        "status": "final",
        "subject": {
          "reference": "urn:uuid:0d4a61fc-dc7e-46b9-afdf-70fbfb3f8c34",
          "display": "Hortense Gallet"
        },
        "effectiveDateTime": "2024-02-06T20:16:45Z",
        "specimen": {
          "reference": "urn:uuid:7364bc9c-f92d-4b78-afe5-9508405fd9a5"
        }
      }
    },
    {
      "fullUrl": "urn:uuid:c47bed83-c0da-4dcf-a5c6-d75b1f8c545a",
      "resource": {
        "resourceType": "Observation",
        "id": "c47bed83-c0da-4dcf-a5c6-d75b1f8c545a",
        "meta": {
          "profile": [
            "http://hl7.eu/fhir/laboratory/StructureDefinition/Observation-resultslab-eu-lab"
          ]
        },
        "performer": [
          {
            "display": "The Central European Lab"
          }
        ],
        "category": [
          {
            "coding": [
              {
                "system": "http://terminology.hl7.org/CodeSystem/observation-category",
                "code": "laboratory"
              }
            ]
          }
        ],
        "code": {
          "coding": [
            {
              "code": "20454-5",
              "system": "http://loinc.org",
              "display": "Protein [Presence] in Urine by Test strip"
            }
          ],
          "text": "Protein [Presence] in Urine by Test strip"
        },
        "text": {
          "status": "generated",
          "div": "<div xmlns=\"http://www.w3.org/1999/xhtml\"><table class=\"hl7__eu__lab__report\"><tr><th>Test</th><th>06-Feb-2024</th><th>Reference&#xA0;Range</th><th>Unit</th></tr><tr><td>Protein [Presence] in Urine by Test strip</td></tr></table></div>"
        },
        "status": "final",
        "subject": {
          "reference": "urn:uuid:0d4a61fc-dc7e-46b9-afdf-70fbfb3f8c34",
          "display": "Hortense Gallet"
        },
        "effectiveDateTime": "2024-02-06T20:16:45Z",
        "specimen": {
          "reference": "urn:uuid:7364bc9c-f92d-4b78-afe5-9508405fd9a5"
        }
      }
    },
    {
      "fullUrl": "urn:uuid:ca896637-ec21-41df-a219-f6e7b896f2fe",
      "resource": {
        "resourceType": "Observation",
        "id": "ca896637-ec21-41df-a219-f6e7b896f2fe",
        "meta": {
          "profile": [
            "http://hl7.eu/fhir/laboratory/StructureDefinition/Observation-resultslab-eu-lab"
          ]
        },
        "performer": [
          {
            "display": "The Central European Lab"
          }
        ],
        "category": [
          {
            "coding": [
              {
                "system": "http://terminology.hl7.org/CodeSystem/observation-category",
                "code": "laboratory"
              }
            ]
          }
        ],
        "code": {
          "coding": [
            {
              "code": "5802-4",
              "system": "http://loinc.org",
              "display": "Nitrite [Presence] in Urine by Test strip"
            }
          ],
          "text": "Nitrite [Presence] in Urine by Test strip"
        },
        "text": {
          "status": "generated",
          "div": "<div xmlns=\"http://www.w3.org/1999/xhtml\"><table class=\"hl7__eu__lab__report\"><tr><th>Test</th><th>06-Feb-2024</th><th>Reference&#xA0;Range</th><th>Unit</th></tr><tr><td>Nitrite [Presence] in Urine by Test strip</td></tr></table></div>"
        },
        "status": "final",
        "subject": {
          "reference": "urn:uuid:0d4a61fc-dc7e-46b9-afdf-70fbfb3f8c34",
          "display": "Hortense Gallet"
        },
        "effectiveDateTime": "2024-02-06T20:16:45Z",
        "specimen": {
          "reference": "urn:uuid:7364bc9c-f92d-4b78-afe5-9508405fd9a5"
        }
      }
    },
    {
      "fullUrl": "urn:uuid:3a9cca40-6008-46dc-bac6-5455373c8a78",
      "resource": {
        "resourceType": "Observation",
        "id": "3a9cca40-6008-46dc-bac6-5455373c8a78",
        "meta": {
          "profile": [
            "http://hl7.eu/fhir/laboratory/StructureDefinition/Observation-resultslab-eu-lab"
          ]
        },
        "performer": [
          {
            "display": "The Central European Lab"
          }
        ],
        "category": [
          {
            "coding": [
              {
                "system": "http://terminology.hl7.org/CodeSystem/observation-category",
                "code": "laboratory"
              }
            ]
          }
        ],
        "code": {
          "coding": [
            {
              "code": "5794-3",
              "system": "http://loinc.org",
              "display": "Hemoglobin [Presence] in Urine by Test strip"
            }
          ],
          "text": "Hemoglobin [Presence] in Urine by Test strip"
        },
        "text": {
          "status": "generated",
          "div": "<div xmlns=\"http://www.w3.org/1999/xhtml\"><table class=\"hl7__eu__lab__report\"><tr><th>Test</th><th>06-Feb-2024</th><th>Reference&#xA0;Range</th><th>Unit</th></tr><tr><td>Hemoglobin [Presence] in Urine by Test strip</td></tr></table></div>"
        },
        "status": "final",
        "subject": {
          "reference": "urn:uuid:0d4a61fc-dc7e-46b9-afdf-70fbfb3f8c34",
          "display": "Hortense Gallet"
        },
        "effectiveDateTime": "2024-02-06T20:16:45Z",
        "specimen": {
          "reference": "urn:uuid:7364bc9c-f92d-4b78-afe5-9508405fd9a5"
        }
      }
    },
    {
      "fullUrl": "urn:uuid:1746360d-f757-4473-b2d8-df429b84ed65",
      "resource": {
        "resourceType": "Observation",
        "id": "1746360d-f757-4473-b2d8-df429b84ed65",
        "meta": {
          "profile": [
            "http://hl7.eu/fhir/laboratory/StructureDefinition/Observation-resultslab-eu-lab"
          ]
        },
        "performer": [
          {
            "display": "The Central European Lab"
          }
        ],
        "category": [
          {
            "coding": [
              {
                "system": "http://terminology.hl7.org/CodeSystem/observation-category",
                "code": "laboratory"
              }
            ]
          }
        ],
        "code": {
          "coding": [
            {
              "code": "5799-2",
              "system": "http://loinc.org",
              "display": "Leukocyte esterase [Presence] in Urine by Test strip"
            }
          ],
          "text": "Leukocyte esterase [Presence] in Urine by Test strip"
        },
        "text": {
          "status": "generated",
          "div": "<div xmlns=\"http://www.w3.org/1999/xhtml\"><table class=\"hl7__eu__lab__report\"><tr><th>Test</th><th>06-Feb-2024</th><th>Reference&#xA0;Range</th><th>Unit</th></tr><tr><td>Leukocyte esterase [Presence] in Urine by Test strip</td></tr></table></div>"
        },
        "status": "final",
        "subject": {
          "reference": "urn:uuid:0d4a61fc-dc7e-46b9-afdf-70fbfb3f8c34",
          "display": "Hortense Gallet"
        },
        "effectiveDateTime": "2024-02-06T20:16:45Z",
        "specimen": {
          "reference": "urn:uuid:7364bc9c-f92d-4b78-afe5-9508405fd9a5"
        }
      }
    },
    {
      "fullUrl": "urn:uuid:3e82b916-0079-49a4-8934-8d46d494e440",
      "resource": {
        "resourceType": "Device",
        "id": "3e82b916-0079-49a4-8934-8d46d494e440",
        "deviceName": [
          {
            "name": "SYNDERAI Synthetic Generator",
            "type": "manufacturer-name"
          }
        ],
        "version": [
          {
            "value": "5.0"
          }
        ],
        "text": {
          "status": "generated",
          "div": "<div xmlns=\"http://www.w3.org/1999/xhtml\">SYNDERAI Synthetic Generator v5.0</div>"
        },
        "status": "active\"",
        "distinctIdentifier": "synderai-generator-50",
        "manufacturer": "SYNDERAI Project"
      }
    },
    {
      "fullUrl": "urn:uuid:eb32b68b-d1e2-4622-85ab-6c03588aae25",
      "resource": {
        "resourceType": "Provenance",
        "id": "eb32b68b-d1e2-4622-85ab-6c03588aae25",
        "target": [
          {
            "reference": "Patient/0d4a61fc-dc7e-46b9-afdf-70fbfb3f8c34"
          },
          {
            "reference": "Bundle/6e70c324-ea7e-4241-a317-18ab802caecc"
          },
          {
            "reference": "Composition/a628b810-c59d-4f14-9d76-58ea23ec8682"
          },
          {
            "reference": "PractitionerRole/cd38ff8a-f79a-4553-a7aa-cce8d4d6e335"
          },
          {
            "reference": "Practitioner/9a176e87-deb7-4663-84ca-12a33345216c"
          },
          {
            "reference": "PractitionerRole/3487d698-a768-40d3-b388-3db30b80355f"
          },
          {
            "reference": "Organization/cb3709ea-488a-48be-b47d-583e3d0ab105"
          }
        ],
        "activity": {
          "text": "Synthetic Example Data Generation"
        },
        "policy": [
          "https://synderai.net/synderai-synthetic-data-policy"
        ],
        "agent": [
          {
            "type": {
              "text": "author"
            },
            "who": {
              "reference": "Device/3e82b916-0079-49a4-8934-8d46d494e440"
            }
          }
        ],
        "reason": [
          {
            "text": "Interoperability Testing and Training (non-clinical use)"
          }
        ],
        "text": {
          "status": "generated",
          "div": "<div xmlns=\"http://www.w3.org/1999/xhtml\">Provenance for SYNDERAI Synthetic Example Data Resource</div>"
        },
        "recorded": "2024-02-06T21:16:45Z"
      }
    },
    {
      "fullUrl": "urn:uuid:cd38ff8a-f79a-4553-a7aa-cce8d4d6e335",
      "resource": {
        "resourceType": "PractitionerRole",
        "id": "cd38ff8a-f79a-4553-a7aa-cce8d4d6e335",
        "meta": {
          "profile": [
            "http://hl7.eu/fhir/base/StructureDefinition/practitionerRole-eu"
          ]
        },
        "text": {
          "status": "generated",
          "div": "<div xmlns=\"http://www.w3.org/1999/xhtml\">Laboratory Role Id: cd38ff8a-f79a-4553-a7aa-cce8d4d6e335</div>"
        },
        "practitioner": {
          "reference": "urn:uuid:9a176e87-deb7-4663-84ca-12a33345216c"
        }
      }
    },
    {
      "fullUrl": "urn:uuid:9a176e87-deb7-4663-84ca-12a33345216c",
      "resource": {
        "resourceType": "Practitioner",
        "id": "9a176e87-deb7-4663-84ca-12a33345216c",
        "meta": {
          "profile": [
            "http://hl7.eu/fhir/base/StructureDefinition/practitioner-eu"
          ]
        },
        "identifier": [
          {
            "assigner": {
              "display": "HL7 Europe"
            },
            "system": "urn:oid:2.16.840.1.113883.2.51.999",
            "value": "e03da698-7dae-4f56-b010-802b9d10391b"
          }
        ],
        "name": [
          {
            "prefix": [
              "dr"
            ],
            "given": [
              "Ex"
            ],
            "family": "Ample"
          }
        ],
        "address": [
          {
            "line": [
              "Laboratoire Central Européenne",
              "Boulevard du Jardin Botanique 32"
            ],
            "postalCode": "1000",
            "city": "Brussels",
            "country": "Belgium"
          }
        ],
        "text": {
          "status": "generated",
          "div": "<div xmlns=\"http://www.w3.org/1999/xhtml\">Laboratory: Laboratoire Central Européenne, 1000 Brussels, Belgium</div>"
        }
      }
    }
  ],
  "type": "document",
  "timestamp": "2024-02-06T21:16:45Z"
}
