{
  "resourceType": "Bundle",
  "id": "eb098d58-767a-48ff-86d6-242eb8dbc181",
  "meta": {
    "profile": [
      "http://hl7.eu/fhir/laboratory/StructureDefinition/Bundle-eu-lab"
    ]
  },
  "identifier": {
    "assigner": {
      "display": "HL7 Europe"
    },
    "system": "urn:oid:2.16.840.1.113883.2.51.999",
    "value": "9a16d564-0c32-405e-af47-10a21e0a36d5"
  },
  "entry": [
    {
      "fullUrl": "urn:uuid:44a1725a-33cf-4a76-a4af-0a7dc361750b",
      "resource": {
        "resourceType": "Composition",
        "id": "44a1725a-33cf-4a76-a4af-0a7dc361750b",
        "meta": {
          "profile": [
            "http://hl7.eu/fhir/laboratory/StructureDefinition/Composition-eu-lab"
          ]
        },
        "identifier": {
          "assigner": {
            "display": "HL7 Europe"
          },
          "system": "urn:oid:2.16.840.1.113883.2.51.999",
          "value": "a0618f6f-611b-4ae0-afaa-e22d55b70395"
        },
        "author": [
          {
            "reference": "urn:uuid:9009c29c-dcd1-4873-b5f7-93f8620a1482"
          }
        ],
        "category": [
          {
            "coding": [
              {
                "code": "26436-6",
                "system": "http://loinc.org",
                "display": "Laboratory studies (set)"
              }
            ]
          }
        ],
        "type": {
          "coding": [
            {
              "code": "11502-2",
              "system": "http://loinc.org",
              "display": "Laboratory report"
            }
          ],
          "text": "Laboratory Report"
        },
        "section": [
          {
            "code": {
              "coding": [
                {
                  "code": "26436-6",
                  "system": "http://loinc.org",
                  "display": "Laboratory studies (set)"
                }
              ],
              "text": "Laboratory studies"
            },
            "section": [
              {
                "code": {
                  "coding": [
                    {
                      "code": "$18719-5",
                      "system": "http://loinc.org",
                      "display": "Chemistry studies (set)"
                    }
                  ],
                  "text": "Chemistry"
                },
                "entry": [
                  {
                    "reference": "urn:uuid:94041049-f769-4c35-bcce-d7b9630b8366"
                  },
                  {
                    "reference": "urn:uuid:ed18d67f-28a3-4a02-b898-819c8cbedfb2"
                  },
                  {
                    "reference": "urn:uuid:ed56f9c3-c1a0-4f39-9c7d-f465524ca233"
                  },
                  {
                    "reference": "urn:uuid:819b4756-f6ee-4095-8310-fd95b10bf558"
                  },
                  {
                    "reference": "urn:uuid:1df54227-0a53-4f46-bbe5-e98362e6537b"
                  },
                  {
                    "reference": "urn:uuid:014e785a-ad9f-406a-861d-50834f5cf3a9"
                  },
                  {
                    "reference": "urn:uuid:ded21752-4bc6-4ea6-b3e2-40617b0a11c1"
                  },
                  {
                    "reference": "urn:uuid:b64247f2-a9b8-411b-9343-89e3ec6760b9"
                  },
                  {
                    "reference": "urn:uuid:a1b684dd-ed85-481b-ba41-4932290dc795"
                  },
                  {
                    "reference": "urn:uuid:366bd51a-97d5-4c68-a7bd-a34eb01181b0"
                  },
                  {
                    "reference": "urn:uuid:2141a734-a110-4443-b99a-b465a005d43f"
                  },
                  {
                    "reference": "urn:uuid:0b11a51c-9f51-4692-9472-7cd5565d79d0"
                  },
                  {
                    "reference": "urn:uuid:02ab7022-0260-4730-a707-7bd6e3a54238"
                  },
                  {
                    "reference": "urn:uuid:4a328616-3674-4b28-ae97-ba78f94b0237"
                  },
                  {
                    "reference": "urn:uuid:665e055c-a66b-41f2-85bc-2618e14080d2"
                  },
                  {
                    "reference": "urn:uuid:420be82a-1aca-4376-b906-d84d45b7b30f"
                  },
                  {
                    "reference": "urn:uuid:c3a773c1-2677-426d-a665-02bb790f08b5"
                  },
                  {
                    "reference": "urn:uuid:6e611a38-3463-4dd5-b455-1bbc2a2c61c3"
                  }
                ],
                "text": {
                  "status": "generated",
                  "div": "<div xmlns=\"http://www.w3.org/1999/xhtml\"><h3>Chemistry</h3><table class=\"hl7__eu__lab__report\"><thead><tr><th>Test</th><th>25-JAN-2017</th><th>Reference&#xA0;Range</th><th>Unit</th></tr></thead><tbody><tr><td>Glucose [Mass/volume] in Serum or Plasma</td><td>83.3</td><td>70 - 140</td><td>mg/dL</td></tr><tr><td>Urea nitrogen [Mass/volume] in Serum or Plasma</td><td>19.6</td><td>7 - 20</td><td>mg/dL</td></tr><tr><td>Creatinine [Mass/volume] in Serum or Plasma</td><td><strong>2.4 H</strong></td><td>0.6 - 1.3</td><td>mg/dL</td></tr><tr><td>Calcium [Mass/volume] in Serum or Plasma</td><td>10.0</td><td>8.6 - 10.4</td><td>mg/dL</td></tr><tr><td>Sodium [Moles/volume] in Serum or Plasma</td><td>136.7</td><td>135 - 145</td><td>mmol/L</td></tr><tr><td>Potassium [Moles/volume] in Serum or Plasma</td><td>3.7</td><td>3.5 - 5.1</td><td>mmol/L</td></tr><tr><td>Chloride [Moles/volume] in Serum or Plasma</td><td>106.4</td><td>98 - 108</td><td>mmol/L</td></tr><tr><td>Carbon dioxide, total [Moles/volume] in Serum or Plasma</td><td><strong>20.6 L</strong></td><td>22 - 32</td><td>mmol/L</td></tr><tr><td>Ketones [Presence] in Urine by Test strip</td><td>Urine ketone test = +++</td><td></td><td></td></tr><tr><td>Hemoglobin A1c/Hemoglobin.total in Blood</td><td><strong>2.8 L</strong></td><td>4.5 - 6.4</td><td>%</td></tr><tr><td>Glucose [Mass/volume] in Blood</td><td>83.3</td><td>70 - 140</td><td>mg/dL</td></tr><tr><td>Urea nitrogen [Mass/volume] in Blood</td><td>19.6</td><td>7 - 30</td><td>mg/dL</td></tr><tr><td>Creatinine [Mass/volume] in Blood</td><td><strong>10.4 H</strong></td><td>0.5 - 1.3</td><td>mg/dL</td></tr><tr><td>Calcium [Mass/volume] in Blood</td><td>10.0</td><td>8.6 - 10.2</td><td>mg/dL</td></tr><tr><td>Sodium [Moles/volume] in Blood</td><td>136.7</td><td>135 - 145</td><td>mmol/L</td></tr><tr><td>Potassium [Moles/volume] in Blood</td><td>3.7</td><td>3.5 - 5.1</td><td>mmol/L</td></tr><tr><td>Chloride [Moles/volume] in Blood</td><td>106.4</td><td>98 - 114</td><td>mmol/L</td></tr><tr><td>Carbon dioxide, total [Moles/volume] in Blood</td><td><strong>20.6 L</strong></td><td>22 - 32</td><td>mmol/L</td></tr></tbody></table></div>"
                },
                "title": "Chemistry"
              },
              {
                "code": {
                  "coding": [
                    {
                      "code": "$18729-4",
                      "system": "http://loinc.org",
                      "display": "Urinalysis studies (set)"
                    }
                  ],
                  "text": "Urinalysis"
                },
                "entry": [
                  {
                    "reference": "urn:uuid:6ba127da-dbf6-40cf-a193-65cd5705ef43"
                  },
                  {
                    "reference": "urn:uuid:6d0ba8f1-56bc-49c9-ba2d-1339c50d714a"
                  },
                  {
                    "reference": "urn:uuid:bbabcb2a-5cf6-444d-a1d2-da75da0019f8"
                  },
                  {
                    "reference": "urn:uuid:a1d18221-fe24-49b7-aad9-361de13450f9"
                  },
                  {
                    "reference": "urn:uuid:5d451c4c-3aa8-4158-939d-b6f9b122a832"
                  },
                  {
                    "reference": "urn:uuid:5be7ceb3-68a1-4c06-9aa6-05e94699e7c7"
                  },
                  {
                    "reference": "urn:uuid:ed1b281a-58ee-4082-90c2-cdaa81d9ec7c"
                  },
                  {
                    "reference": "urn:uuid:168046a8-cef6-42f2-9c83-eb323526fe5d"
                  },
                  {
                    "reference": "urn:uuid:200e653c-5d7d-4899-aa3d-6d774388d78e"
                  },
                  {
                    "reference": "urn:uuid:b49783a5-bcdc-4b68-ae36-155b05c3598e"
                  },
                  {
                    "reference": "urn:uuid:2c90f4ef-0141-426e-a26e-2f9ec937f742"
                  },
                  {
                    "reference": "urn:uuid:c5bae2f0-aabf-42c4-8d87-33b3945e65a1"
                  }
                ],
                "text": {
                  "status": "generated",
                  "div": "<div xmlns=\"http://www.w3.org/1999/xhtml\"><h3>Urinalysis</h3><table class=\"hl7__eu__lab__report\"><thead><tr><th>Test</th><th>25-JAN-2017</th><th>Reference&#xA0;Range</th><th>Unit</th></tr></thead><tbody><tr><td>Glucose [Mass/volume] in Urine by Test strip</td><td><strong>1.3 H</strong></td><td>0.8 - 0</td><td>mg/dL</td></tr><tr><td>Glucose [Presence] in Urine by Test strip</td><td>++</td><td></td><td></td></tr><tr><td>Bilirubin.total [Mass/volume] in Urine by Test strip</td><td>0.8</td><td>0 - 1.5</td><td>mg/dL</td></tr><tr><td>Bilirubin.total [Presence] in Urine by Test strip</td><td>Finding of bilirubin in urine</td><td></td><td></td></tr><tr><td>Ketones [Mass/volume] in Urine by Test strip</td><td><strong>14.1 H</strong></td><td>0 - 8</td><td>mg/dL</td></tr><tr><td>Specific gravity of Urine by Test strip</td><td><strong>1.0 L</strong></td><td>1.01 - 1.03</td><td>{nominal}</td></tr><tr><td>pH of Urine by Test strip</td><td>6.6</td><td>4.6 - 7.5</td><td>pH</td></tr><tr><td>Protein [Mass/volume] in Urine by Test strip</td><td><strong>367.9 H</strong></td><td>0 - 14</td><td>mg/dL</td></tr><tr><td>Protein [Presence] in Urine by Test strip</td><td>Urine protein test = +++</td><td></td><td></td></tr><tr><td>Nitrite [Presence] in Urine by Test strip</td><td>Urine nitrite negative</td><td></td><td></td></tr><tr><td>Hemoglobin [Presence] in Urine by Test strip</td><td>Urine blood test = negative</td><td></td><td></td></tr><tr><td>Leukocyte esterase [Presence] in Urine by Test strip</td><td>Urine leukocyte test negative</td><td></td><td></td></tr></tbody></table></div>"
                },
                "title": "Urinalysis"
              },
              {
                "code": {
                  "coding": [
                    {
                      "code": "$LP7846-1",
                      "system": "http://loinc.org",
                      "display": "Specimen information"
                    }
                  ],
                  "text": "Specimen information"
                },
                "entry": [
                  {
                    "reference": "urn:uuid:404aacb7-e5eb-4886-88eb-faddee69a432"
                  },
                  {
                    "reference": "urn:uuid:ae361717-500d-4590-bfba-e8f49668b585"
                  },
                  {
                    "reference": "urn:uuid:5e482d94-a1d8-4073-8dc3-edfb23be314e"
                  },
                  {
                    "reference": "urn:uuid:69829670-e220-48ed-a489-760374c30547"
                  }
                ],
                "text": {
                  "status": "generated",
                  "div": "<div xmlns=\"http://www.w3.org/1999/xhtml\"><h3>Specimen information</h3><table class=\"hl7__eu__lab__report\"><thead><tr><th>Test</th><th>25-JAN-2017</th><th>Specimen</th><th></th></tr></thead><tbody><tr><td>Appearance of Urine</td><td>Cloudy urine</td><td>Urine</td><td></td></tr><tr><td>Odor of Urine</td><td>Urine smell ammoniacal</td><td>Urine</td><td></td></tr><tr><td>Clarity of Urine</td><td>Translucent</td><td>Urine</td><td></td></tr><tr><td>Color of Urine</td><td>Brown color</td><td>Urine</td><td></td></tr></tbody></table></div>"
                },
                "title": "Specimen information"
              }
            ],
            "title": "Laboratory Report"
          },
          {
            "text": {
              "status": "generated",
              "div": "<div xmlns=\"http://www.w3.org/1999/xhtml\"><h3>Annotation</h3><table class=\"hl7__eu__lab__report\"><tr><th>Conclusion and Recommendations based on this report and previous findings known to us</th></tr><tr><td>The patient shows markedly elevated creatinine, low total CO₂, and significant proteinuria, indicating acute or chronic renal dysfunction with possible metabolic acidosis. Urine findings (cloudy, brown, low specific gravity, high protein, glucose, and ketones) suggest impaired renal concentrating ability and possible nephrotic syndrome or diabetic nephropathy, though HbA1c is low. No evidence of urinary infection. Prompt nephrology evaluation is recommended.</td></tr></table></div>"
            },
            "code": {
              "coding": [
                {
                  "system": "http://loinc.org",
                  "code": "48767-8",
                  "display": "Annotation comment"
                }
              ]
            },
            "title": "Annotation comment"
          }
        ],
        "status": "final",
        "subject": {
          "reference": "urn:uuid:e520149f-dc6b-475e-ad8b-3fed8f38c72e",
          "display": "Maria Nohlmans"
        },
        "date": "2017-01-25T12:02:39Z",
        "title": "Laboratory Report",
        "confidentiality": "N"
      }
    },
    {
      "fullUrl": "urn:uuid:bc216a5b-eb6f-499f-bcc9-006e6d0c6cf0",
      "resource": {
        "resourceType": "DiagnosticReport",
        "id": "bc216a5b-eb6f-499f-bcc9-006e6d0c6cf0",
        "meta": {
          "profile": [
            "http://hl7.eu/fhir/laboratory/StructureDefinition/DiagnosticReport-eu-lab"
          ]
        },
        "identifier": [
          {
            "assigner": {
              "display": "HL7 Europe"
            },
            "system": "urn:oid:2.16.840.1.113883.2.51.999",
            "value": "f528e7ab-39fb-4b22-a211-20bf4ea4f7ce"
          }
        ],
        "extension": [
          {
            "url": "http://hl7.org/fhir/5.0/StructureDefinition/extension-DiagnosticReport.composition",
            "valueReference": {
              "reference": "urn:uuid:a0618f6f-611b-4ae0-afaa-e22d55b70395"
            }
          }
        ],
        "category": [
          {
            "coding": [
              {
                "code": "26436-6",
                "system": "http://loinc.org",
                "display": "Laboratory studies (set)"
              }
            ]
          }
        ],
        "specimen": [
          {
            "reference": "urn:uuid:79a7824e-ca5e-4ccb-8536-94e03eda6d3a"
          },
          {
            "reference": "urn:uuid:3d9d5d1a-0c6e-4b5b-817e-bf4c1f6eb7f3"
          },
          {
            "reference": "urn:uuid:63af252b-9d8d-4bc4-be66-d32f16752b65"
          }
        ],
        "result": [
          {
            "reference": "urn:uuid:94041049-f769-4c35-bcce-d7b9630b8366"
          },
          {
            "reference": "urn:uuid:ed18d67f-28a3-4a02-b898-819c8cbedfb2"
          },
          {
            "reference": "urn:uuid:ed56f9c3-c1a0-4f39-9c7d-f465524ca233"
          },
          {
            "reference": "urn:uuid:819b4756-f6ee-4095-8310-fd95b10bf558"
          },
          {
            "reference": "urn:uuid:1df54227-0a53-4f46-bbe5-e98362e6537b"
          },
          {
            "reference": "urn:uuid:014e785a-ad9f-406a-861d-50834f5cf3a9"
          },
          {
            "reference": "urn:uuid:ded21752-4bc6-4ea6-b3e2-40617b0a11c1"
          },
          {
            "reference": "urn:uuid:b64247f2-a9b8-411b-9343-89e3ec6760b9"
          },
          {
            "reference": "urn:uuid:404aacb7-e5eb-4886-88eb-faddee69a432"
          },
          {
            "reference": "urn:uuid:ae361717-500d-4590-bfba-e8f49668b585"
          },
          {
            "reference": "urn:uuid:5e482d94-a1d8-4073-8dc3-edfb23be314e"
          },
          {
            "reference": "urn:uuid:69829670-e220-48ed-a489-760374c30547"
          },
          {
            "reference": "urn:uuid:6ba127da-dbf6-40cf-a193-65cd5705ef43"
          },
          {
            "reference": "urn:uuid:6d0ba8f1-56bc-49c9-ba2d-1339c50d714a"
          },
          {
            "reference": "urn:uuid:bbabcb2a-5cf6-444d-a1d2-da75da0019f8"
          },
          {
            "reference": "urn:uuid:a1d18221-fe24-49b7-aad9-361de13450f9"
          },
          {
            "reference": "urn:uuid:5d451c4c-3aa8-4158-939d-b6f9b122a832"
          },
          {
            "reference": "urn:uuid:a1b684dd-ed85-481b-ba41-4932290dc795"
          },
          {
            "reference": "urn:uuid:5be7ceb3-68a1-4c06-9aa6-05e94699e7c7"
          },
          {
            "reference": "urn:uuid:ed1b281a-58ee-4082-90c2-cdaa81d9ec7c"
          },
          {
            "reference": "urn:uuid:168046a8-cef6-42f2-9c83-eb323526fe5d"
          },
          {
            "reference": "urn:uuid:200e653c-5d7d-4899-aa3d-6d774388d78e"
          },
          {
            "reference": "urn:uuid:b49783a5-bcdc-4b68-ae36-155b05c3598e"
          },
          {
            "reference": "urn:uuid:2c90f4ef-0141-426e-a26e-2f9ec937f742"
          },
          {
            "reference": "urn:uuid:c5bae2f0-aabf-42c4-8d87-33b3945e65a1"
          },
          {
            "reference": "urn:uuid:366bd51a-97d5-4c68-a7bd-a34eb01181b0"
          },
          {
            "reference": "urn:uuid:2141a734-a110-4443-b99a-b465a005d43f"
          },
          {
            "reference": "urn:uuid:0b11a51c-9f51-4692-9472-7cd5565d79d0"
          },
          {
            "reference": "urn:uuid:02ab7022-0260-4730-a707-7bd6e3a54238"
          },
          {
            "reference": "urn:uuid:4a328616-3674-4b28-ae97-ba78f94b0237"
          },
          {
            "reference": "urn:uuid:665e055c-a66b-41f2-85bc-2618e14080d2"
          },
          {
            "reference": "urn:uuid:420be82a-1aca-4376-b906-d84d45b7b30f"
          },
          {
            "reference": "urn:uuid:c3a773c1-2677-426d-a665-02bb790f08b5"
          },
          {
            "reference": "urn:uuid:6e611a38-3463-4dd5-b455-1bbc2a2c61c3"
          }
        ],
        "status": "registered",
        "code": {
          "coding": [
            {
              "code": "11502-2",
              "system": "http://loinc.org",
              "display": "Laboratory report"
            }
          ]
        },
        "subject": {
          "reference": "urn:uuid:e520149f-dc6b-475e-ad8b-3fed8f38c72e",
          "display": "Maria Nohlmans"
        }
      }
    },
    {
      "fullUrl": "urn:uuid:e520149f-dc6b-475e-ad8b-3fed8f38c72e",
      "resource": {
        "resourceType": "Patient",
        "id": "e520149f-dc6b-475e-ad8b-3fed8f38c72e",
        "meta": {
          "security": [
            {
              "system": "http://terminology.hl7.org/CodeSystem/v3-ActReason",
              "code": "HTEST"
            },
            {
              "system": "http://terminology.hl7.org/CodeSystem/v3-ActReason",
              "code": "TRAIN"
            }
          ],
          "tag": [
            {
              "system": "https://synderai.net/fhir/CodeSystem/tags",
              "code": "synthetic",
              "display": "SYNDERAI Synthetic data"
            }
          ],
          "profile": [
            "http://hl7.eu/fhir/base/StructureDefinition/patient-eu-core"
          ]
        },
        "identifier": [
          {
            "type": {
              "coding": [
                {
                  "code": "PT",
                  "system": "http://terminology.hl7.org/CodeSystem/v2-0203"
                }
              ]
            },
            "system": "http://ec.europa.eu/identifier/eci",
            "value": "6886-506417-1"
          },
          {
            "type": {
              "coding": [
                {
                  "code": "MR",
                  "system": "http://terminology.hl7.org/CodeSystem/v2-0203"
                }
              ]
            },
            "system": "http://local.setting.eu/identifier",
            "value": "2cb21ed6-b617-b1f3-2290-589a710de5ee"
          }
        ],
        "name": [
          {
            "family": "Nohlmans"
          },
          {
            "given": [
              "Maria"
            ]
          },
          {
            "text": "Maria Nohlmans"
          }
        ],
        "address": [
          {
            "line": [
              "Alfons-Wulff-Weg 1"
            ],
            "use": "home",
            "type": "physical",
            "postalCode": "25813",
            "city": "Husum",
            "country": "Germany"
          }
        ],
        "telecom": [
          {
            "system": "phone",
            "value": "+49(0)1911 105501"
          }
        ],
        "extension": [
          {
            "url": "http://hl7.org/fhir/StructureDefinition/patient-nationality",
            "valueCodeableConcept": {
              "coding": [
                {
                  "code": "DE",
                  "system": "http://hl7.org/fhir/ValueSet/country"
                }
              ]
            }
          }
        ],
        "text": {
          "status": "generated",
          "div": "<div xmlns=\"http://www.w3.org/1999/xhtml\"><table class=\"hl7__ips\"><tr><td>Maria Nohlmans</td><td>female</td><td>11-Jun-1947</td></tr></table></div>"
        },
        "gender": "female",
        "birthDate": "1947-06-11"
      }
    },
    {
      "fullUrl": "urn:uuid:ee633d72-6f3e-45cc-8604-6cb7a259963b",
      "resource": {
        "resourceType": "ServiceRequest",
        "id": "ee633d72-6f3e-45cc-8604-6cb7a259963b",
        "meta": {
          "profile": [
            "http://hl7.eu/fhir/laboratory/StructureDefinition/ServiceRequest-eu-lab"
          ]
        },
        "identifier": [
          {
            "system": "http://example.org",
            "value": "72dde369-4369-4872-aa3e-0d6f052d7c6b"
          }
        ],
        "specimen": [
          {
            "reference": "urn:uuid:79a7824e-ca5e-4ccb-8536-94e03eda6d3a"
          },
          {
            "reference": "urn:uuid:3d9d5d1a-0c6e-4b5b-817e-bf4c1f6eb7f3"
          },
          {
            "reference": "urn:uuid:63af252b-9d8d-4bc4-be66-d32f16752b65"
          }
        ],
        "reasonCode": [
          {
            "coding": [
              {
                "code": "401314000",
                "system": "http://snomed.info/sct",
                "display": "Acute non-ST segment elevation myocardial infarction"
              }
            ]
          },
          {
            "coding": [
              {
                "code": "157141000119108",
                "system": "http://snomed.info/sct",
                "display": "Proteinuria due to type 2 diabetes mellitus"
              }
            ]
          },
          {
            "coding": [
              {
                "code": "237602007",
                "system": "http://snomed.info/sct",
                "display": "Metabolic syndrome X"
              }
            ]
          },
          {
            "coding": [
              {
                "code": "90781000119102",
                "system": "http://snomed.info/sct",
                "display": "Microalbuminuria due to type 2 diabetes mellitus"
              }
            ]
          },
          {
            "coding": [
              {
                "code": "127013003",
                "system": "http://snomed.info/sct",
                "display": "Disorder of kidney due to diabetes mellitus"
              }
            ]
          },
          {
            "coding": [
              {
                "code": "59621000",
                "system": "http://snomed.info/sct",
                "display": "Essential hypertension"
              }
            ]
          },
          {
            "coding": [
              {
                "code": "271737000",
                "system": "http://snomed.info/sct",
                "display": "Anemia"
              }
            ]
          },
          {
            "coding": [
              {
                "code": "15777000",
                "system": "http://snomed.info/sct",
                "display": "Prediabetes"
              }
            ]
          }
        ],
        "status": "active",
        "intent": "order",
        "code": {
          "coding": [
            {
              "code": "108252007",
              "system": "http://snomed.info/sct",
              "display": "Laboratory procedure"
            }
          ]
        },
        "subject": {
          "reference": "urn:uuid:e520149f-dc6b-475e-ad8b-3fed8f38c72e",
          "display": "Maria Nohlmans"
        },
        "requester": {
          "reference": "urn:uuid:c9410c78-eab5-48a7-a43d-3c8b96688a55"
        }
      }
    },
    {
      "fullUrl": "urn:uuid:c9410c78-eab5-48a7-a43d-3c8b96688a55",
      "resource": {
        "resourceType": "PractitionerRole",
        "id": "c9410c78-eab5-48a7-a43d-3c8b96688a55",
        "meta": {
          "profile": [
            "http://hl7.eu/fhir/base/StructureDefinition/practitionerRole-eu"
          ]
        },
        "text": {
          "status": "generated",
          "div": "<div xmlns=\"http://www.w3.org/1999/xhtml\">Provider Role Id: c9410c78-eab5-48a7-a43d-3c8b96688a55</div>"
        },
        "organization": {
          "reference": "urn:uuid:c76e3b95-7e1c-4f43-a677-e59bf92913c2"
        }
      }
    },
    {
      "fullUrl": "urn:uuid:c76e3b95-7e1c-4f43-a677-e59bf92913c2",
      "resource": {
        "resourceType": "Organization",
        "id": "c76e3b95-7e1c-4f43-a677-e59bf92913c2",
        "meta": {
          "profile": [
            "http://hl7.eu/fhir/base/StructureDefinition/organization-eu"
          ]
        },
        "identifier": [
          {
            "assigner": {
              "display": "HL7 Europe"
            },
            "system": "urn:oid:2.16.840.1.113883.2.51.999",
            "value": "f41cc8b8-cd59-4731-aa75-4879197be9f2"
          }
        ],
        "address": [
          {
            "line": [
              "Brinckmannstraße 35"
            ],
            "city": "Husum",
            "postalCode": "25813",
            "country": "Germany"
          }
        ],
        "text": {
          "status": "generated",
          "div": "<div xmlns=\"http://www.w3.org/1999/xhtml\">Provider Organization: Dr. Wolfram Hussels Kieferorthopäde</div>"
        },
        "name": "Dr. Wolfram Hussels Kieferorthopäde"
      }
    },
    {
      "fullUrl": "urn:uuid:79a7824e-ca5e-4ccb-8536-94e03eda6d3a",
      "resource": {
        "resourceType": "Specimen",
        "id": "79a7824e-ca5e-4ccb-8536-94e03eda6d3a",
        "meta": {
          "profile": [
            "http://hl7.eu/fhir/laboratory/StructureDefinition/Specimen-eu-lab"
          ]
        },
        "collection": {
          "collectedDateTime": "2017-01-25"
        },
        "text": {
          "status": "generated",
          "div": "<div xmlns=\"http://www.w3.org/1999/xhtml\"><table class=\"hl7__eu__lab__report\"><tr><th>Specimen</th><th>Collection Date</th></tr><tr><td>Acellular blood (serum or plasma) specimen</td><td><span class=\"nb\">25-Jan-2017</span></td></tr></table></div>"
        },
        "type": {
          "coding": [
            {
              "code": "122592007",
              "system": "http://snomed.info/sct",
              "display": "Acellular blood (serum or plasma) specimen"
            }
          ]
        }
      }
    },
    {
      "fullUrl": "urn:uuid:3d9d5d1a-0c6e-4b5b-817e-bf4c1f6eb7f3",
      "resource": {
        "resourceType": "Specimen",
        "id": "3d9d5d1a-0c6e-4b5b-817e-bf4c1f6eb7f3",
        "meta": {
          "profile": [
            "http://hl7.eu/fhir/laboratory/StructureDefinition/Specimen-eu-lab"
          ]
        },
        "collection": {
          "collectedDateTime": "2017-01-25"
        },
        "text": {
          "status": "generated",
          "div": "<div xmlns=\"http://www.w3.org/1999/xhtml\"><table class=\"hl7__eu__lab__report\"><tr><th>Specimen</th><th>Collection Date</th></tr><tr><td>Urine specimen</td><td><span class=\"nb\">25-Jan-2017</span></td></tr></table></div>"
        },
        "type": {
          "coding": [
            {
              "code": "122575003",
              "system": "http://snomed.info/sct",
              "display": "Urine specimen"
            }
          ]
        }
      }
    },
    {
      "fullUrl": "urn:uuid:63af252b-9d8d-4bc4-be66-d32f16752b65",
      "resource": {
        "resourceType": "Specimen",
        "id": "63af252b-9d8d-4bc4-be66-d32f16752b65",
        "meta": {
          "profile": [
            "http://hl7.eu/fhir/laboratory/StructureDefinition/Specimen-eu-lab"
          ]
        },
        "collection": {
          "collectedDateTime": "2017-01-25"
        },
        "text": {
          "status": "generated",
          "div": "<div xmlns=\"http://www.w3.org/1999/xhtml\"><table class=\"hl7__eu__lab__report\"><tr><th>Specimen</th><th>Collection Date</th></tr><tr><td>Whole blood specimen (specimen)</td><td><span class=\"nb\">25-Jan-2017</span></td></tr></table></div>"
        },
        "type": {
          "coding": [
            {
              "code": "258580003",
              "system": "http://snomed.info/sct",
              "display": "Whole blood specimen (specimen)"
            }
          ]
        }
      }
    },
    {
      "fullUrl": "urn:uuid:94041049-f769-4c35-bcce-d7b9630b8366",
      "resource": {
        "resourceType": "Observation",
        "id": "94041049-f769-4c35-bcce-d7b9630b8366",
        "meta": {
          "profile": [
            "http://hl7.eu/fhir/laboratory/StructureDefinition/Observation-resultslab-eu-lab"
          ]
        },
        "performer": [
          {
            "display": "The Central European Lab"
          }
        ],
        "category": [
          {
            "coding": [
              {
                "system": "http://terminology.hl7.org/CodeSystem/observation-category",
                "code": "laboratory"
              }
            ]
          }
        ],
        "code": {
          "coding": [
            {
              "code": "2345-7",
              "system": "http://loinc.org",
              "display": "Glucose [Mass/volume] in Serum or Plasma"
            }
          ],
          "text": "Glucose [Mass/volume] in Serum or Plasma"
        },
        "valueQuantity": {
          "system": "http://unitsofmeasure.org",
          "value": 83.3,
          "unit": "mg/dL",
          "code": "mg/dL"
        },
        "referenceRange": [
          {
            "low": {
              "value": 70,
              "code": "mg/dL",
              "system": "http://unitsofmeasure.org"
            }
          },
          {
            "high": {
              "value": 140,
              "code": "mg/dL",
              "system": "http://unitsofmeasure.org"
            }
          }
        ],
        "text": {
          "status": "generated",
          "div": "<div xmlns=\"http://www.w3.org/1999/xhtml\"><table class=\"hl7__eu__lab__report\"><tr><th>Test</th><th>25-Jan-2017</th><th>Reference&#xA0;Range</th><th>Unit</th></tr><tr><td>Glucose [Mass/volume] in Serum or Plasma</td><td>83.3</td><td>70 - 140</td><td></td><td>mg/dL</td></tr></table></div>"
        },
        "status": "final",
        "subject": {
          "reference": "urn:uuid:e520149f-dc6b-475e-ad8b-3fed8f38c72e",
          "display": "Maria Nohlmans"
        },
        "effectiveDateTime": "2017-01-25T11:02:39Z",
        "specimen": {
          "reference": "urn:uuid:79a7824e-ca5e-4ccb-8536-94e03eda6d3a"
        }
      }
    },
    {
      "fullUrl": "urn:uuid:ed18d67f-28a3-4a02-b898-819c8cbedfb2",
      "resource": {
        "resourceType": "Observation",
        "id": "ed18d67f-28a3-4a02-b898-819c8cbedfb2",
        "meta": {
          "profile": [
            "http://hl7.eu/fhir/laboratory/StructureDefinition/Observation-resultslab-eu-lab"
          ]
        },
        "performer": [
          {
            "display": "The Central European Lab"
          }
        ],
        "category": [
          {
            "coding": [
              {
                "system": "http://terminology.hl7.org/CodeSystem/observation-category",
                "code": "laboratory"
              }
            ]
          }
        ],
        "code": {
          "coding": [
            {
              "code": "3094-0",
              "system": "http://loinc.org",
              "display": "Urea nitrogen [Mass/volume] in Serum or Plasma"
            }
          ],
          "text": "Urea nitrogen [Mass/volume] in Serum or Plasma"
        },
        "valueQuantity": {
          "system": "http://unitsofmeasure.org",
          "value": 19.6,
          "unit": "mg/dL",
          "code": "mg/dL"
        },
        "referenceRange": [
          {
            "low": {
              "value": 7,
              "code": "mg/dL",
              "system": "http://unitsofmeasure.org"
            }
          },
          {
            "high": {
              "value": 20,
              "code": "mg/dL",
              "system": "http://unitsofmeasure.org"
            }
          }
        ],
        "text": {
          "status": "generated",
          "div": "<div xmlns=\"http://www.w3.org/1999/xhtml\"><table class=\"hl7__eu__lab__report\"><tr><th>Test</th><th>25-Jan-2017</th><th>Reference&#xA0;Range</th><th>Unit</th></tr><tr><td>Urea nitrogen [Mass/volume] in Serum or Plasma</td><td>19.6</td><td>7 - 20</td><td></td><td>mg/dL</td></tr></table></div>"
        },
        "status": "final",
        "subject": {
          "reference": "urn:uuid:e520149f-dc6b-475e-ad8b-3fed8f38c72e",
          "display": "Maria Nohlmans"
        },
        "effectiveDateTime": "2017-01-25T11:02:39Z",
        "specimen": {
          "reference": "urn:uuid:79a7824e-ca5e-4ccb-8536-94e03eda6d3a"
        }
      }
    },
    {
      "fullUrl": "urn:uuid:ed56f9c3-c1a0-4f39-9c7d-f465524ca233",
      "resource": {
        "resourceType": "Observation",
        "id": "ed56f9c3-c1a0-4f39-9c7d-f465524ca233",
        "meta": {
          "profile": [
            "http://hl7.eu/fhir/laboratory/StructureDefinition/Observation-resultslab-eu-lab"
          ]
        },
        "performer": [
          {
            "display": "The Central European Lab"
          }
        ],
        "category": [
          {
            "coding": [
              {
                "system": "http://terminology.hl7.org/CodeSystem/observation-category",
                "code": "laboratory"
              }
            ]
          }
        ],
        "code": {
          "coding": [
            {
              "code": "2160-0",
              "system": "http://loinc.org",
              "display": "Creatinine [Mass/volume] in Serum or Plasma"
            }
          ],
          "text": "Creatinine [Mass/volume] in Serum or Plasma"
        },
        "valueQuantity": {
          "system": "http://unitsofmeasure.org",
          "value": 2.4,
          "unit": "mg/dL",
          "code": "mg/dL"
        },
        "referenceRange": [
          {
            "low": {
              "value": 0.6,
              "code": "mg/dL",
              "system": "http://unitsofmeasure.org"
            }
          },
          {
            "high": {
              "value": 1.3,
              "code": "mg/dL",
              "system": "http://unitsofmeasure.org"
            }
          }
        ],
        "interpretation": [
          {
            "coding": [
              {
                "code": "H",
                "system": "http://terminology.hl7.org/CodeSystem/v3-ObservationInterpretation",
                "display": "High"
              }
            ]
          }
        ],
        "text": {
          "status": "generated",
          "div": "<div xmlns=\"http://www.w3.org/1999/xhtml\"><table class=\"hl7__eu__lab__report\"><tr><th>Test</th><th>25-Jan-2017</th><th>Reference&#xA0;Range</th><th>Unit</th></tr><tr><td>Creatinine [Mass/volume] in Serum or Plasma</td><td>2.4</td><td>0.6 - 1.3</td><td>H</td><td>mg/dL</td></tr></table></div>"
        },
        "status": "final",
        "subject": {
          "reference": "urn:uuid:e520149f-dc6b-475e-ad8b-3fed8f38c72e",
          "display": "Maria Nohlmans"
        },
        "effectiveDateTime": "2017-01-25T11:02:39Z",
        "specimen": {
          "reference": "urn:uuid:79a7824e-ca5e-4ccb-8536-94e03eda6d3a"
        }
      }
    },
    {
      "fullUrl": "urn:uuid:819b4756-f6ee-4095-8310-fd95b10bf558",
      "resource": {
        "resourceType": "Observation",
        "id": "819b4756-f6ee-4095-8310-fd95b10bf558",
        "meta": {
          "profile": [
            "http://hl7.eu/fhir/laboratory/StructureDefinition/Observation-resultslab-eu-lab"
          ]
        },
        "performer": [
          {
            "display": "The Central European Lab"
          }
        ],
        "category": [
          {
            "coding": [
              {
                "system": "http://terminology.hl7.org/CodeSystem/observation-category",
                "code": "laboratory"
              }
            ]
          }
        ],
        "code": {
          "coding": [
            {
              "code": "17861-6",
              "system": "http://loinc.org",
              "display": "Calcium [Mass/volume] in Serum or Plasma"
            }
          ],
          "text": "Calcium [Mass/volume] in Serum or Plasma"
        },
        "valueQuantity": {
          "system": "http://unitsofmeasure.org",
          "value": 10,
          "unit": "mg/dL",
          "code": "mg/dL"
        },
        "referenceRange": [
          {
            "low": {
              "value": 8.6,
              "code": "mg/dL",
              "system": "http://unitsofmeasure.org"
            }
          },
          {
            "high": {
              "value": 10.4,
              "code": "mg/dL",
              "system": "http://unitsofmeasure.org"
            }
          }
        ],
        "text": {
          "status": "generated",
          "div": "<div xmlns=\"http://www.w3.org/1999/xhtml\"><table class=\"hl7__eu__lab__report\"><tr><th>Test</th><th>25-Jan-2017</th><th>Reference&#xA0;Range</th><th>Unit</th></tr><tr><td>Calcium [Mass/volume] in Serum or Plasma</td><td>10.0</td><td>8.6 - 10.4</td><td></td><td>mg/dL</td></tr></table></div>"
        },
        "status": "final",
        "subject": {
          "reference": "urn:uuid:e520149f-dc6b-475e-ad8b-3fed8f38c72e",
          "display": "Maria Nohlmans"
        },
        "effectiveDateTime": "2017-01-25T11:02:39Z",
        "specimen": {
          "reference": "urn:uuid:79a7824e-ca5e-4ccb-8536-94e03eda6d3a"
        }
      }
    },
    {
      "fullUrl": "urn:uuid:1df54227-0a53-4f46-bbe5-e98362e6537b",
      "resource": {
        "resourceType": "Observation",
        "id": "1df54227-0a53-4f46-bbe5-e98362e6537b",
        "meta": {
          "profile": [
            "http://hl7.eu/fhir/laboratory/StructureDefinition/Observation-resultslab-eu-lab"
          ]
        },
        "performer": [
          {
            "display": "The Central European Lab"
          }
        ],
        "category": [
          {
            "coding": [
              {
                "system": "http://terminology.hl7.org/CodeSystem/observation-category",
                "code": "laboratory"
              }
            ]
          }
        ],
        "code": {
          "coding": [
            {
              "code": "2951-2",
              "system": "http://loinc.org",
              "display": "Sodium [Moles/volume] in Serum or Plasma"
            }
          ],
          "text": "Sodium [Moles/volume] in Serum or Plasma"
        },
        "valueQuantity": {
          "system": "http://unitsofmeasure.org",
          "value": 136.7,
          "unit": "mmol/L",
          "code": "mmol/L"
        },
        "referenceRange": [
          {
            "low": {
              "value": 135,
              "code": "mmol/L",
              "system": "http://unitsofmeasure.org"
            }
          },
          {
            "high": {
              "value": 145,
              "code": "mmol/L",
              "system": "http://unitsofmeasure.org"
            }
          }
        ],
        "text": {
          "status": "generated",
          "div": "<div xmlns=\"http://www.w3.org/1999/xhtml\"><table class=\"hl7__eu__lab__report\"><tr><th>Test</th><th>25-Jan-2017</th><th>Reference&#xA0;Range</th><th>Unit</th></tr><tr><td>Sodium [Moles/volume] in Serum or Plasma</td><td>136.7</td><td>135 - 145</td><td></td><td>mmol/L</td></tr></table></div>"
        },
        "status": "final",
        "subject": {
          "reference": "urn:uuid:e520149f-dc6b-475e-ad8b-3fed8f38c72e",
          "display": "Maria Nohlmans"
        },
        "effectiveDateTime": "2017-01-25T11:02:39Z",
        "specimen": {
          "reference": "urn:uuid:79a7824e-ca5e-4ccb-8536-94e03eda6d3a"
        }
      }
    },
    {
      "fullUrl": "urn:uuid:014e785a-ad9f-406a-861d-50834f5cf3a9",
      "resource": {
        "resourceType": "Observation",
        "id": "014e785a-ad9f-406a-861d-50834f5cf3a9",
        "meta": {
          "profile": [
            "http://hl7.eu/fhir/laboratory/StructureDefinition/Observation-resultslab-eu-lab"
          ]
        },
        "performer": [
          {
            "display": "The Central European Lab"
          }
        ],
        "category": [
          {
            "coding": [
              {
                "system": "http://terminology.hl7.org/CodeSystem/observation-category",
                "code": "laboratory"
              }
            ]
          }
        ],
        "code": {
          "coding": [
            {
              "code": "2823-3",
              "system": "http://loinc.org",
              "display": "Potassium [Moles/volume] in Serum or Plasma"
            }
          ],
          "text": "Potassium [Moles/volume] in Serum or Plasma"
        },
        "valueQuantity": {
          "system": "http://unitsofmeasure.org",
          "value": 3.7,
          "unit": "mmol/L",
          "code": "mmol/L"
        },
        "referenceRange": [
          {
            "low": {
              "value": 3.5,
              "code": "mmol/L",
              "system": "http://unitsofmeasure.org"
            }
          },
          {
            "high": {
              "value": 5.1,
              "code": "mmol/L",
              "system": "http://unitsofmeasure.org"
            }
          }
        ],
        "text": {
          "status": "generated",
          "div": "<div xmlns=\"http://www.w3.org/1999/xhtml\"><table class=\"hl7__eu__lab__report\"><tr><th>Test</th><th>25-Jan-2017</th><th>Reference&#xA0;Range</th><th>Unit</th></tr><tr><td>Potassium [Moles/volume] in Serum or Plasma</td><td>3.7</td><td>3.5 - 5.1</td><td></td><td>mmol/L</td></tr></table></div>"
        },
        "status": "final",
        "subject": {
          "reference": "urn:uuid:e520149f-dc6b-475e-ad8b-3fed8f38c72e",
          "display": "Maria Nohlmans"
        },
        "effectiveDateTime": "2017-01-25T11:02:39Z",
        "specimen": {
          "reference": "urn:uuid:79a7824e-ca5e-4ccb-8536-94e03eda6d3a"
        }
      }
    },
    {
      "fullUrl": "urn:uuid:ded21752-4bc6-4ea6-b3e2-40617b0a11c1",
      "resource": {
        "resourceType": "Observation",
        "id": "ded21752-4bc6-4ea6-b3e2-40617b0a11c1",
        "meta": {
          "profile": [
            "http://hl7.eu/fhir/laboratory/StructureDefinition/Observation-resultslab-eu-lab"
          ]
        },
        "performer": [
          {
            "display": "The Central European Lab"
          }
        ],
        "category": [
          {
            "coding": [
              {
                "system": "http://terminology.hl7.org/CodeSystem/observation-category",
                "code": "laboratory"
              }
            ]
          }
        ],
        "code": {
          "coding": [
            {
              "code": "2075-0",
              "system": "http://loinc.org",
              "display": "Chloride [Moles/volume] in Serum or Plasma"
            }
          ],
          "text": "Chloride [Moles/volume] in Serum or Plasma"
        },
        "valueQuantity": {
          "system": "http://unitsofmeasure.org",
          "value": 106.4,
          "unit": "mmol/L",
          "code": "mmol/L"
        },
        "referenceRange": [
          {
            "low": {
              "value": 98,
              "code": "mmol/L",
              "system": "http://unitsofmeasure.org"
            }
          },
          {
            "high": {
              "value": 108,
              "code": "mmol/L",
              "system": "http://unitsofmeasure.org"
            }
          }
        ],
        "text": {
          "status": "generated",
          "div": "<div xmlns=\"http://www.w3.org/1999/xhtml\"><table class=\"hl7__eu__lab__report\"><tr><th>Test</th><th>25-Jan-2017</th><th>Reference&#xA0;Range</th><th>Unit</th></tr><tr><td>Chloride [Moles/volume] in Serum or Plasma</td><td>106.4</td><td>98 - 108</td><td></td><td>mmol/L</td></tr></table></div>"
        },
        "status": "final",
        "subject": {
          "reference": "urn:uuid:e520149f-dc6b-475e-ad8b-3fed8f38c72e",
          "display": "Maria Nohlmans"
        },
        "effectiveDateTime": "2017-01-25T11:02:39Z",
        "specimen": {
          "reference": "urn:uuid:79a7824e-ca5e-4ccb-8536-94e03eda6d3a"
        }
      }
    },
    {
      "fullUrl": "urn:uuid:b64247f2-a9b8-411b-9343-89e3ec6760b9",
      "resource": {
        "resourceType": "Observation",
        "id": "b64247f2-a9b8-411b-9343-89e3ec6760b9",
        "meta": {
          "profile": [
            "http://hl7.eu/fhir/laboratory/StructureDefinition/Observation-resultslab-eu-lab"
          ]
        },
        "performer": [
          {
            "display": "The Central European Lab"
          }
        ],
        "category": [
          {
            "coding": [
              {
                "system": "http://terminology.hl7.org/CodeSystem/observation-category",
                "code": "laboratory"
              }
            ]
          }
        ],
        "code": {
          "coding": [
            {
              "code": "2028-9",
              "system": "http://loinc.org",
              "display": "Carbon dioxide, total [Moles/volume] in Serum or Plasma"
            }
          ],
          "text": "Carbon dioxide, total [Moles/volume] in Serum or Plasma"
        },
        "valueQuantity": {
          "system": "http://unitsofmeasure.org",
          "value": 20.6,
          "unit": "mmol/L",
          "code": "mmol/L"
        },
        "referenceRange": [
          {
            "low": {
              "value": 22,
              "code": "mmol/L",
              "system": "http://unitsofmeasure.org"
            }
          },
          {
            "high": {
              "value": 32,
              "code": "mmol/L",
              "system": "http://unitsofmeasure.org"
            }
          }
        ],
        "interpretation": [
          {
            "coding": [
              {
                "code": "L",
                "system": "http://terminology.hl7.org/CodeSystem/v3-ObservationInterpretation",
                "display": "Low"
              }
            ]
          }
        ],
        "text": {
          "status": "generated",
          "div": "<div xmlns=\"http://www.w3.org/1999/xhtml\"><table class=\"hl7__eu__lab__report\"><tr><th>Test</th><th>25-Jan-2017</th><th>Reference&#xA0;Range</th><th>Unit</th></tr><tr><td>Carbon dioxide, total [Moles/volume] in Serum or Plasma</td><td>20.6</td><td>22 - 32</td><td>L</td><td>mmol/L</td></tr></table></div>"
        },
        "status": "final",
        "subject": {
          "reference": "urn:uuid:e520149f-dc6b-475e-ad8b-3fed8f38c72e",
          "display": "Maria Nohlmans"
        },
        "effectiveDateTime": "2017-01-25T11:02:39Z",
        "specimen": {
          "reference": "urn:uuid:79a7824e-ca5e-4ccb-8536-94e03eda6d3a"
        }
      }
    },
    {
      "fullUrl": "urn:uuid:404aacb7-e5eb-4886-88eb-faddee69a432",
      "resource": {
        "resourceType": "Observation",
        "id": "404aacb7-e5eb-4886-88eb-faddee69a432",
        "meta": {
          "profile": [
            "http://hl7.eu/fhir/laboratory/StructureDefinition/Observation-resultslab-eu-lab"
          ]
        },
        "performer": [
          {
            "display": "The Central European Lab"
          }
        ],
        "category": [
          {
            "coding": [
              {
                "system": "http://terminology.hl7.org/CodeSystem/observation-category",
                "code": "laboratory"
              }
            ]
          }
        ],
        "code": {
          "coding": [
            {
              "code": "5767-9",
              "system": "http://loinc.org",
              "display": "Appearance of Urine"
            }
          ],
          "text": "Appearance of Urine"
        },
        "text": {
          "status": "generated",
          "div": "<div xmlns=\"http://www.w3.org/1999/xhtml\"><table class=\"hl7__eu__lab__report\"><tr><th>Test</th><th>25-Jan-2017</th><th>Reference&#xA0;Range</th><th>Unit</th></tr><tr><td>Appearance of Urine</td></tr></table></div>"
        },
        "status": "final",
        "subject": {
          "reference": "urn:uuid:e520149f-dc6b-475e-ad8b-3fed8f38c72e",
          "display": "Maria Nohlmans"
        },
        "effectiveDateTime": "2017-01-25T11:02:39Z",
        "specimen": {
          "reference": "urn:uuid:3d9d5d1a-0c6e-4b5b-817e-bf4c1f6eb7f3"
        }
      }
    },
    {
      "fullUrl": "urn:uuid:ae361717-500d-4590-bfba-e8f49668b585",
      "resource": {
        "resourceType": "Observation",
        "id": "ae361717-500d-4590-bfba-e8f49668b585",
        "meta": {
          "profile": [
            "http://hl7.eu/fhir/laboratory/StructureDefinition/Observation-resultslab-eu-lab"
          ]
        },
        "performer": [
          {
            "display": "The Central European Lab"
          }
        ],
        "category": [
          {
            "coding": [
              {
                "system": "http://terminology.hl7.org/CodeSystem/observation-category",
                "code": "laboratory"
              }
            ]
          }
        ],
        "code": {
          "coding": [
            {
              "code": "34533-0",
              "system": "http://loinc.org",
              "display": "Odor of Urine"
            }
          ],
          "text": "Odor of Urine"
        },
        "text": {
          "status": "generated",
          "div": "<div xmlns=\"http://www.w3.org/1999/xhtml\"><table class=\"hl7__eu__lab__report\"><tr><th>Test</th><th>25-Jan-2017</th><th>Reference&#xA0;Range</th><th>Unit</th></tr><tr><td>Odor of Urine</td></tr></table></div>"
        },
        "status": "final",
        "subject": {
          "reference": "urn:uuid:e520149f-dc6b-475e-ad8b-3fed8f38c72e",
          "display": "Maria Nohlmans"
        },
        "effectiveDateTime": "2017-01-25T11:02:39Z",
        "specimen": {
          "reference": "urn:uuid:3d9d5d1a-0c6e-4b5b-817e-bf4c1f6eb7f3"
        }
      }
    },
    {
      "fullUrl": "urn:uuid:5e482d94-a1d8-4073-8dc3-edfb23be314e",
      "resource": {
        "resourceType": "Observation",
        "id": "5e482d94-a1d8-4073-8dc3-edfb23be314e",
        "meta": {
          "profile": [
            "http://hl7.eu/fhir/laboratory/StructureDefinition/Observation-resultslab-eu-lab"
          ]
        },
        "performer": [
          {
            "display": "The Central European Lab"
          }
        ],
        "category": [
          {
            "coding": [
              {
                "system": "http://terminology.hl7.org/CodeSystem/observation-category",
                "code": "laboratory"
              }
            ]
          }
        ],
        "code": {
          "coding": [
            {
              "code": "32167-9",
              "system": "http://loinc.org",
              "display": "Clarity of Urine"
            }
          ],
          "text": "Clarity of Urine"
        },
        "text": {
          "status": "generated",
          "div": "<div xmlns=\"http://www.w3.org/1999/xhtml\"><table class=\"hl7__eu__lab__report\"><tr><th>Test</th><th>25-Jan-2017</th><th>Reference&#xA0;Range</th><th>Unit</th></tr><tr><td>Clarity of Urine</td></tr></table></div>"
        },
        "status": "final",
        "subject": {
          "reference": "urn:uuid:e520149f-dc6b-475e-ad8b-3fed8f38c72e",
          "display": "Maria Nohlmans"
        },
        "effectiveDateTime": "2017-01-25T11:02:39Z",
        "specimen": {
          "reference": "urn:uuid:3d9d5d1a-0c6e-4b5b-817e-bf4c1f6eb7f3"
        }
      }
    },
    {
      "fullUrl": "urn:uuid:69829670-e220-48ed-a489-760374c30547",
      "resource": {
        "resourceType": "Observation",
        "id": "69829670-e220-48ed-a489-760374c30547",
        "meta": {
          "profile": [
            "http://hl7.eu/fhir/laboratory/StructureDefinition/Observation-resultslab-eu-lab"
          ]
        },
        "performer": [
          {
            "display": "The Central European Lab"
          }
        ],
        "category": [
          {
            "coding": [
              {
                "system": "http://terminology.hl7.org/CodeSystem/observation-category",
                "code": "laboratory"
              }
            ]
          }
        ],
        "code": {
          "coding": [
            {
              "code": "5778-6",
              "system": "http://loinc.org",
              "display": "Color of Urine"
            }
          ],
          "text": "Color of Urine"
        },
        "text": {
          "status": "generated",
          "div": "<div xmlns=\"http://www.w3.org/1999/xhtml\"><table class=\"hl7__eu__lab__report\"><tr><th>Test</th><th>25-Jan-2017</th><th>Reference&#xA0;Range</th><th>Unit</th></tr><tr><td>Color of Urine</td></tr></table></div>"
        },
        "status": "final",
        "subject": {
          "reference": "urn:uuid:e520149f-dc6b-475e-ad8b-3fed8f38c72e",
          "display": "Maria Nohlmans"
        },
        "effectiveDateTime": "2017-01-25T11:02:39Z",
        "specimen": {
          "reference": "urn:uuid:3d9d5d1a-0c6e-4b5b-817e-bf4c1f6eb7f3"
        }
      }
    },
    {
      "fullUrl": "urn:uuid:6ba127da-dbf6-40cf-a193-65cd5705ef43",
      "resource": {
        "resourceType": "Observation",
        "id": "6ba127da-dbf6-40cf-a193-65cd5705ef43",
        "meta": {
          "profile": [
            "http://hl7.eu/fhir/laboratory/StructureDefinition/Observation-resultslab-eu-lab"
          ]
        },
        "performer": [
          {
            "display": "The Central European Lab"
          }
        ],
        "category": [
          {
            "coding": [
              {
                "system": "http://terminology.hl7.org/CodeSystem/observation-category",
                "code": "laboratory"
              }
            ]
          }
        ],
        "code": {
          "coding": [
            {
              "code": "5792-7",
              "system": "http://loinc.org",
              "display": "Glucose [Mass/volume] in Urine by Test strip"
            }
          ],
          "text": "Glucose [Mass/volume] in Urine by Test strip"
        },
        "valueQuantity": {
          "system": "http://unitsofmeasure.org",
          "value": 1.3,
          "unit": "mg/dL",
          "code": "mg/dL"
        },
        "referenceRange": [
          {
            "low": {
              "value": 0.8,
              "code": "mg/dL",
              "system": "http://unitsofmeasure.org"
            }
          },
          {
            "high": {
              "value": 0,
              "code": "mg/dL",
              "system": "http://unitsofmeasure.org"
            }
          }
        ],
        "interpretation": [
          {
            "coding": [
              {
                "code": "H",
                "system": "http://terminology.hl7.org/CodeSystem/v3-ObservationInterpretation",
                "display": "High"
              }
            ]
          }
        ],
        "text": {
          "status": "generated",
          "div": "<div xmlns=\"http://www.w3.org/1999/xhtml\"><table class=\"hl7__eu__lab__report\"><tr><th>Test</th><th>25-Jan-2017</th><th>Reference&#xA0;Range</th><th>Unit</th></tr><tr><td>Glucose [Mass/volume] in Urine by Test strip</td><td>1.3</td><td>0.8 - 0</td><td>H</td><td>mg/dL</td></tr></table></div>"
        },
        "status": "final",
        "subject": {
          "reference": "urn:uuid:e520149f-dc6b-475e-ad8b-3fed8f38c72e",
          "display": "Maria Nohlmans"
        },
        "effectiveDateTime": "2017-01-25T11:02:39Z",
        "specimen": {
          "reference": "urn:uuid:3d9d5d1a-0c6e-4b5b-817e-bf4c1f6eb7f3"
        }
      }
    },
    {
      "fullUrl": "urn:uuid:6d0ba8f1-56bc-49c9-ba2d-1339c50d714a",
      "resource": {
        "resourceType": "Observation",
        "id": "6d0ba8f1-56bc-49c9-ba2d-1339c50d714a",
        "meta": {
          "profile": [
            "http://hl7.eu/fhir/laboratory/StructureDefinition/Observation-resultslab-eu-lab"
          ]
        },
        "performer": [
          {
            "display": "The Central European Lab"
          }
        ],
        "category": [
          {
            "coding": [
              {
                "system": "http://terminology.hl7.org/CodeSystem/observation-category",
                "code": "laboratory"
              }
            ]
          }
        ],
        "code": {
          "coding": [
            {
              "code": "25428-4",
              "system": "http://loinc.org",
              "display": "Glucose [Presence] in Urine by Test strip"
            }
          ],
          "text": "Glucose [Presence] in Urine by Test strip"
        },
        "text": {
          "status": "generated",
          "div": "<div xmlns=\"http://www.w3.org/1999/xhtml\"><table class=\"hl7__eu__lab__report\"><tr><th>Test</th><th>25-Jan-2017</th><th>Reference&#xA0;Range</th><th>Unit</th></tr><tr><td>Glucose [Presence] in Urine by Test strip</td></tr></table></div>"
        },
        "status": "final",
        "subject": {
          "reference": "urn:uuid:e520149f-dc6b-475e-ad8b-3fed8f38c72e",
          "display": "Maria Nohlmans"
        },
        "effectiveDateTime": "2017-01-25T11:02:39Z",
        "specimen": {
          "reference": "urn:uuid:3d9d5d1a-0c6e-4b5b-817e-bf4c1f6eb7f3"
        }
      }
    },
    {
      "fullUrl": "urn:uuid:bbabcb2a-5cf6-444d-a1d2-da75da0019f8",
      "resource": {
        "resourceType": "Observation",
        "id": "bbabcb2a-5cf6-444d-a1d2-da75da0019f8",
        "meta": {
          "profile": [
            "http://hl7.eu/fhir/laboratory/StructureDefinition/Observation-resultslab-eu-lab"
          ]
        },
        "performer": [
          {
            "display": "The Central European Lab"
          }
        ],
        "category": [
          {
            "coding": [
              {
                "system": "http://terminology.hl7.org/CodeSystem/observation-category",
                "code": "laboratory"
              }
            ]
          }
        ],
        "code": {
          "coding": [
            {
              "code": "20505-4",
              "system": "http://loinc.org",
              "display": "Bilirubin.total [Mass/volume] in Urine by Test strip"
            }
          ],
          "text": "Bilirubin.total [Mass/volume] in Urine by Test strip"
        },
        "valueQuantity": {
          "system": "http://unitsofmeasure.org",
          "value": 0.8,
          "unit": "mg/dL",
          "code": "mg/dL"
        },
        "referenceRange": [
          {
            "low": {
              "value": 0,
              "code": "mg/dL",
              "system": "http://unitsofmeasure.org"
            }
          },
          {
            "high": {
              "value": 1.5,
              "code": "mg/dL",
              "system": "http://unitsofmeasure.org"
            }
          }
        ],
        "text": {
          "status": "generated",
          "div": "<div xmlns=\"http://www.w3.org/1999/xhtml\"><table class=\"hl7__eu__lab__report\"><tr><th>Test</th><th>25-Jan-2017</th><th>Reference&#xA0;Range</th><th>Unit</th></tr><tr><td>Bilirubin.total [Mass/volume] in Urine by Test strip</td><td>0.8</td><td>0 - 1.5</td><td></td><td>mg/dL</td></tr></table></div>"
        },
        "status": "final",
        "subject": {
          "reference": "urn:uuid:e520149f-dc6b-475e-ad8b-3fed8f38c72e",
          "display": "Maria Nohlmans"
        },
        "effectiveDateTime": "2017-01-25T11:02:39Z",
        "specimen": {
          "reference": "urn:uuid:3d9d5d1a-0c6e-4b5b-817e-bf4c1f6eb7f3"
        }
      }
    },
    {
      "fullUrl": "urn:uuid:a1d18221-fe24-49b7-aad9-361de13450f9",
      "resource": {
        "resourceType": "Observation",
        "id": "a1d18221-fe24-49b7-aad9-361de13450f9",
        "meta": {
          "profile": [
            "http://hl7.eu/fhir/laboratory/StructureDefinition/Observation-resultslab-eu-lab"
          ]
        },
        "performer": [
          {
            "display": "The Central European Lab"
          }
        ],
        "category": [
          {
            "coding": [
              {
                "system": "http://terminology.hl7.org/CodeSystem/observation-category",
                "code": "laboratory"
              }
            ]
          }
        ],
        "code": {
          "coding": [
            {
              "code": "5770-3",
              "system": "http://loinc.org",
              "display": "Bilirubin.total [Presence] in Urine by Test strip"
            }
          ],
          "text": "Bilirubin.total [Presence] in Urine by Test strip"
        },
        "text": {
          "status": "generated",
          "div": "<div xmlns=\"http://www.w3.org/1999/xhtml\"><table class=\"hl7__eu__lab__report\"><tr><th>Test</th><th>25-Jan-2017</th><th>Reference&#xA0;Range</th><th>Unit</th></tr><tr><td>Bilirubin.total [Presence] in Urine by Test strip</td></tr></table></div>"
        },
        "status": "final",
        "subject": {
          "reference": "urn:uuid:e520149f-dc6b-475e-ad8b-3fed8f38c72e",
          "display": "Maria Nohlmans"
        },
        "effectiveDateTime": "2017-01-25T11:02:39Z",
        "specimen": {
          "reference": "urn:uuid:3d9d5d1a-0c6e-4b5b-817e-bf4c1f6eb7f3"
        }
      }
    },
    {
      "fullUrl": "urn:uuid:5d451c4c-3aa8-4158-939d-b6f9b122a832",
      "resource": {
        "resourceType": "Observation",
        "id": "5d451c4c-3aa8-4158-939d-b6f9b122a832",
        "meta": {
          "profile": [
            "http://hl7.eu/fhir/laboratory/StructureDefinition/Observation-resultslab-eu-lab"
          ]
        },
        "performer": [
          {
            "display": "The Central European Lab"
          }
        ],
        "category": [
          {
            "coding": [
              {
                "system": "http://terminology.hl7.org/CodeSystem/observation-category",
                "code": "laboratory"
              }
            ]
          }
        ],
        "code": {
          "coding": [
            {
              "code": "5797-6",
              "system": "http://loinc.org",
              "display": "Ketones [Mass/volume] in Urine by Test strip"
            }
          ],
          "text": "Ketones [Mass/volume] in Urine by Test strip"
        },
        "valueQuantity": {
          "system": "http://unitsofmeasure.org",
          "value": 14.1,
          "unit": "mg/dL",
          "code": "mg/dL"
        },
        "referenceRange": [
          {
            "low": {
              "value": 0,
              "code": "mg/dL",
              "system": "http://unitsofmeasure.org"
            }
          },
          {
            "high": {
              "value": 8,
              "code": "mg/dL",
              "system": "http://unitsofmeasure.org"
            }
          }
        ],
        "interpretation": [
          {
            "coding": [
              {
                "code": "H",
                "system": "http://terminology.hl7.org/CodeSystem/v3-ObservationInterpretation",
                "display": "High"
              }
            ]
          }
        ],
        "text": {
          "status": "generated",
          "div": "<div xmlns=\"http://www.w3.org/1999/xhtml\"><table class=\"hl7__eu__lab__report\"><tr><th>Test</th><th>25-Jan-2017</th><th>Reference&#xA0;Range</th><th>Unit</th></tr><tr><td>Ketones [Mass/volume] in Urine by Test strip</td><td>14.1</td><td>0 - 8</td><td>H</td><td>mg/dL</td></tr></table></div>"
        },
        "status": "final",
        "subject": {
          "reference": "urn:uuid:e520149f-dc6b-475e-ad8b-3fed8f38c72e",
          "display": "Maria Nohlmans"
        },
        "effectiveDateTime": "2017-01-25T11:02:39Z",
        "specimen": {
          "reference": "urn:uuid:3d9d5d1a-0c6e-4b5b-817e-bf4c1f6eb7f3"
        }
      }
    },
    {
      "fullUrl": "urn:uuid:a1b684dd-ed85-481b-ba41-4932290dc795",
      "resource": {
        "resourceType": "Observation",
        "id": "a1b684dd-ed85-481b-ba41-4932290dc795",
        "meta": {
          "profile": [
            "http://hl7.eu/fhir/laboratory/StructureDefinition/Observation-resultslab-eu-lab"
          ]
        },
        "performer": [
          {
            "display": "The Central European Lab"
          }
        ],
        "category": [
          {
            "coding": [
              {
                "system": "http://terminology.hl7.org/CodeSystem/observation-category",
                "code": "laboratory"
              }
            ]
          }
        ],
        "code": {
          "coding": [
            {
              "code": "2514-8",
              "system": "http://loinc.org",
              "display": "Ketones [Presence] in Urine by Test strip"
            }
          ],
          "text": "Ketones [Presence] in Urine by Test strip"
        },
        "text": {
          "status": "generated",
          "div": "<div xmlns=\"http://www.w3.org/1999/xhtml\"><table class=\"hl7__eu__lab__report\"><tr><th>Test</th><th>25-Jan-2017</th><th>Reference&#xA0;Range</th><th>Unit</th></tr><tr><td>Ketones [Presence] in Urine by Test strip</td></tr></table></div>"
        },
        "status": "final",
        "subject": {
          "reference": "urn:uuid:e520149f-dc6b-475e-ad8b-3fed8f38c72e",
          "display": "Maria Nohlmans"
        },
        "effectiveDateTime": "2017-01-25T11:02:39Z",
        "specimen": {
          "reference": "urn:uuid:3d9d5d1a-0c6e-4b5b-817e-bf4c1f6eb7f3"
        }
      }
    },
    {
      "fullUrl": "urn:uuid:5be7ceb3-68a1-4c06-9aa6-05e94699e7c7",
      "resource": {
        "resourceType": "Observation",
        "id": "5be7ceb3-68a1-4c06-9aa6-05e94699e7c7",
        "meta": {
          "profile": [
            "http://hl7.eu/fhir/laboratory/StructureDefinition/Observation-resultslab-eu-lab"
          ]
        },
        "performer": [
          {
            "display": "The Central European Lab"
          }
        ],
        "category": [
          {
            "coding": [
              {
                "system": "http://terminology.hl7.org/CodeSystem/observation-category",
                "code": "laboratory"
              }
            ]
          }
        ],
        "code": {
          "coding": [
            {
              "code": "5811-5",
              "system": "http://loinc.org",
              "display": "Specific gravity of Urine by Test strip"
            }
          ],
          "text": "Specific gravity of Urine by Test strip"
        },
        "valueQuantity": {
          "system": "http://unitsofmeasure.org",
          "value": 1,
          "unit": "{nominal}",
          "code": "{nominal}"
        },
        "referenceRange": [
          {
            "low": {
              "value": 1.01,
              "code": "g/mL",
              "system": "http://unitsofmeasure.org"
            }
          },
          {
            "high": {
              "value": 1.03,
              "code": "g/mL",
              "system": "http://unitsofmeasure.org"
            }
          }
        ],
        "interpretation": [
          {
            "coding": [
              {
                "code": "L",
                "system": "http://terminology.hl7.org/CodeSystem/v3-ObservationInterpretation",
                "display": "Low"
              }
            ]
          }
        ],
        "text": {
          "status": "generated",
          "div": "<div xmlns=\"http://www.w3.org/1999/xhtml\"><table class=\"hl7__eu__lab__report\"><tr><th>Test</th><th>25-Jan-2017</th><th>Reference&#xA0;Range</th><th>Unit</th></tr><tr><td>Specific gravity of Urine by Test strip</td><td>1.0</td><td>1.01 - 1.03</td><td>L</td><td>{nominal}</td></tr></table></div>"
        },
        "status": "final",
        "subject": {
          "reference": "urn:uuid:e520149f-dc6b-475e-ad8b-3fed8f38c72e",
          "display": "Maria Nohlmans"
        },
        "effectiveDateTime": "2017-01-25T11:02:39Z",
        "specimen": {
          "reference": "urn:uuid:3d9d5d1a-0c6e-4b5b-817e-bf4c1f6eb7f3"
        }
      }
    },
    {
      "fullUrl": "urn:uuid:ed1b281a-58ee-4082-90c2-cdaa81d9ec7c",
      "resource": {
        "resourceType": "Observation",
        "id": "ed1b281a-58ee-4082-90c2-cdaa81d9ec7c",
        "meta": {
          "profile": [
            "http://hl7.eu/fhir/laboratory/StructureDefinition/Observation-resultslab-eu-lab"
          ]
        },
        "performer": [
          {
            "display": "The Central European Lab"
          }
        ],
        "category": [
          {
            "coding": [
              {
                "system": "http://terminology.hl7.org/CodeSystem/observation-category",
                "code": "laboratory"
              }
            ]
          }
        ],
        "code": {
          "coding": [
            {
              "code": "5803-2",
              "system": "http://loinc.org",
              "display": "pH of Urine by Test strip"
            }
          ],
          "text": "pH of Urine by Test strip"
        },
        "valueQuantity": {
          "system": "http://unitsofmeasure.org",
          "value": 6.6,
          "unit": "pH",
          "code": "pH"
        },
        "referenceRange": [
          {
            "low": {
              "value": 4.6,
              "code": "pH",
              "system": "http://unitsofmeasure.org"
            }
          },
          {
            "high": {
              "value": 7.5,
              "code": "pH",
              "system": "http://unitsofmeasure.org"
            }
          }
        ],
        "text": {
          "status": "generated",
          "div": "<div xmlns=\"http://www.w3.org/1999/xhtml\"><table class=\"hl7__eu__lab__report\"><tr><th>Test</th><th>25-Jan-2017</th><th>Reference&#xA0;Range</th><th>Unit</th></tr><tr><td>pH of Urine by Test strip</td><td>6.6</td><td>4.6 - 7.5</td><td></td><td>pH</td></tr></table></div>"
        },
        "status": "final",
        "subject": {
          "reference": "urn:uuid:e520149f-dc6b-475e-ad8b-3fed8f38c72e",
          "display": "Maria Nohlmans"
        },
        "effectiveDateTime": "2017-01-25T11:02:39Z",
        "specimen": {
          "reference": "urn:uuid:3d9d5d1a-0c6e-4b5b-817e-bf4c1f6eb7f3"
        }
      }
    },
    {
      "fullUrl": "urn:uuid:168046a8-cef6-42f2-9c83-eb323526fe5d",
      "resource": {
        "resourceType": "Observation",
        "id": "168046a8-cef6-42f2-9c83-eb323526fe5d",
        "meta": {
          "profile": [
            "http://hl7.eu/fhir/laboratory/StructureDefinition/Observation-resultslab-eu-lab"
          ]
        },
        "performer": [
          {
            "display": "The Central European Lab"
          }
        ],
        "category": [
          {
            "coding": [
              {
                "system": "http://terminology.hl7.org/CodeSystem/observation-category",
                "code": "laboratory"
              }
            ]
          }
        ],
        "code": {
          "coding": [
            {
              "code": "5804-0",
              "system": "http://loinc.org",
              "display": "Protein [Mass/volume] in Urine by Test strip"
            }
          ],
          "text": "Protein [Mass/volume] in Urine by Test strip"
        },
        "valueQuantity": {
          "system": "http://unitsofmeasure.org",
          "value": 367.9,
          "unit": "mg/dL",
          "code": "mg/dL"
        },
        "referenceRange": [
          {
            "low": {
              "value": 0,
              "code": "mg/dL",
              "system": "http://unitsofmeasure.org"
            }
          },
          {
            "high": {
              "value": 14,
              "code": "mg/dL",
              "system": "http://unitsofmeasure.org"
            }
          }
        ],
        "interpretation": [
          {
            "coding": [
              {
                "code": "H",
                "system": "http://terminology.hl7.org/CodeSystem/v3-ObservationInterpretation",
                "display": "High"
              }
            ]
          }
        ],
        "text": {
          "status": "generated",
          "div": "<div xmlns=\"http://www.w3.org/1999/xhtml\"><table class=\"hl7__eu__lab__report\"><tr><th>Test</th><th>25-Jan-2017</th><th>Reference&#xA0;Range</th><th>Unit</th></tr><tr><td>Protein [Mass/volume] in Urine by Test strip</td><td>367.9</td><td>0 - 14</td><td>H</td><td>mg/dL</td></tr></table></div>"
        },
        "status": "final",
        "subject": {
          "reference": "urn:uuid:e520149f-dc6b-475e-ad8b-3fed8f38c72e",
          "display": "Maria Nohlmans"
        },
        "effectiveDateTime": "2017-01-25T11:02:39Z",
        "specimen": {
          "reference": "urn:uuid:3d9d5d1a-0c6e-4b5b-817e-bf4c1f6eb7f3"
        }
      }
    },
    {
      "fullUrl": "urn:uuid:200e653c-5d7d-4899-aa3d-6d774388d78e",
      "resource": {
        "resourceType": "Observation",
        "id": "200e653c-5d7d-4899-aa3d-6d774388d78e",
        "meta": {
          "profile": [
            "http://hl7.eu/fhir/laboratory/StructureDefinition/Observation-resultslab-eu-lab"
          ]
        },
        "performer": [
          {
            "display": "The Central European Lab"
          }
        ],
        "category": [
          {
            "coding": [
              {
                "system": "http://terminology.hl7.org/CodeSystem/observation-category",
                "code": "laboratory"
              }
            ]
          }
        ],
        "code": {
          "coding": [
            {
              "code": "20454-5",
              "system": "http://loinc.org",
              "display": "Protein [Presence] in Urine by Test strip"
            }
          ],
          "text": "Protein [Presence] in Urine by Test strip"
        },
        "text": {
          "status": "generated",
          "div": "<div xmlns=\"http://www.w3.org/1999/xhtml\"><table class=\"hl7__eu__lab__report\"><tr><th>Test</th><th>25-Jan-2017</th><th>Reference&#xA0;Range</th><th>Unit</th></tr><tr><td>Protein [Presence] in Urine by Test strip</td></tr></table></div>"
        },
        "status": "final",
        "subject": {
          "reference": "urn:uuid:e520149f-dc6b-475e-ad8b-3fed8f38c72e",
          "display": "Maria Nohlmans"
        },
        "effectiveDateTime": "2017-01-25T11:02:39Z",
        "specimen": {
          "reference": "urn:uuid:3d9d5d1a-0c6e-4b5b-817e-bf4c1f6eb7f3"
        }
      }
    },
    {
      "fullUrl": "urn:uuid:b49783a5-bcdc-4b68-ae36-155b05c3598e",
      "resource": {
        "resourceType": "Observation",
        "id": "b49783a5-bcdc-4b68-ae36-155b05c3598e",
        "meta": {
          "profile": [
            "http://hl7.eu/fhir/laboratory/StructureDefinition/Observation-resultslab-eu-lab"
          ]
        },
        "performer": [
          {
            "display": "The Central European Lab"
          }
        ],
        "category": [
          {
            "coding": [
              {
                "system": "http://terminology.hl7.org/CodeSystem/observation-category",
                "code": "laboratory"
              }
            ]
          }
        ],
        "code": {
          "coding": [
            {
              "code": "5802-4",
              "system": "http://loinc.org",
              "display": "Nitrite [Presence] in Urine by Test strip"
            }
          ],
          "text": "Nitrite [Presence] in Urine by Test strip"
        },
        "text": {
          "status": "generated",
          "div": "<div xmlns=\"http://www.w3.org/1999/xhtml\"><table class=\"hl7__eu__lab__report\"><tr><th>Test</th><th>25-Jan-2017</th><th>Reference&#xA0;Range</th><th>Unit</th></tr><tr><td>Nitrite [Presence] in Urine by Test strip</td></tr></table></div>"
        },
        "status": "final",
        "subject": {
          "reference": "urn:uuid:e520149f-dc6b-475e-ad8b-3fed8f38c72e",
          "display": "Maria Nohlmans"
        },
        "effectiveDateTime": "2017-01-25T11:02:39Z",
        "specimen": {
          "reference": "urn:uuid:3d9d5d1a-0c6e-4b5b-817e-bf4c1f6eb7f3"
        }
      }
    },
    {
      "fullUrl": "urn:uuid:2c90f4ef-0141-426e-a26e-2f9ec937f742",
      "resource": {
        "resourceType": "Observation",
        "id": "2c90f4ef-0141-426e-a26e-2f9ec937f742",
        "meta": {
          "profile": [
            "http://hl7.eu/fhir/laboratory/StructureDefinition/Observation-resultslab-eu-lab"
          ]
        },
        "performer": [
          {
            "display": "The Central European Lab"
          }
        ],
        "category": [
          {
            "coding": [
              {
                "system": "http://terminology.hl7.org/CodeSystem/observation-category",
                "code": "laboratory"
              }
            ]
          }
        ],
        "code": {
          "coding": [
            {
              "code": "5794-3",
              "system": "http://loinc.org",
              "display": "Hemoglobin [Presence] in Urine by Test strip"
            }
          ],
          "text": "Hemoglobin [Presence] in Urine by Test strip"
        },
        "text": {
          "status": "generated",
          "div": "<div xmlns=\"http://www.w3.org/1999/xhtml\"><table class=\"hl7__eu__lab__report\"><tr><th>Test</th><th>25-Jan-2017</th><th>Reference&#xA0;Range</th><th>Unit</th></tr><tr><td>Hemoglobin [Presence] in Urine by Test strip</td></tr></table></div>"
        },
        "status": "final",
        "subject": {
          "reference": "urn:uuid:e520149f-dc6b-475e-ad8b-3fed8f38c72e",
          "display": "Maria Nohlmans"
        },
        "effectiveDateTime": "2017-01-25T11:02:39Z",
        "specimen": {
          "reference": "urn:uuid:3d9d5d1a-0c6e-4b5b-817e-bf4c1f6eb7f3"
        }
      }
    },
    {
      "fullUrl": "urn:uuid:c5bae2f0-aabf-42c4-8d87-33b3945e65a1",
      "resource": {
        "resourceType": "Observation",
        "id": "c5bae2f0-aabf-42c4-8d87-33b3945e65a1",
        "meta": {
          "profile": [
            "http://hl7.eu/fhir/laboratory/StructureDefinition/Observation-resultslab-eu-lab"
          ]
        },
        "performer": [
          {
            "display": "The Central European Lab"
          }
        ],
        "category": [
          {
            "coding": [
              {
                "system": "http://terminology.hl7.org/CodeSystem/observation-category",
                "code": "laboratory"
              }
            ]
          }
        ],
        "code": {
          "coding": [
            {
              "code": "5799-2",
              "system": "http://loinc.org",
              "display": "Leukocyte esterase [Presence] in Urine by Test strip"
            }
          ],
          "text": "Leukocyte esterase [Presence] in Urine by Test strip"
        },
        "text": {
          "status": "generated",
          "div": "<div xmlns=\"http://www.w3.org/1999/xhtml\"><table class=\"hl7__eu__lab__report\"><tr><th>Test</th><th>25-Jan-2017</th><th>Reference&#xA0;Range</th><th>Unit</th></tr><tr><td>Leukocyte esterase [Presence] in Urine by Test strip</td></tr></table></div>"
        },
        "status": "final",
        "subject": {
          "reference": "urn:uuid:e520149f-dc6b-475e-ad8b-3fed8f38c72e",
          "display": "Maria Nohlmans"
        },
        "effectiveDateTime": "2017-01-25T11:02:39Z",
        "specimen": {
          "reference": "urn:uuid:3d9d5d1a-0c6e-4b5b-817e-bf4c1f6eb7f3"
        }
      }
    },
    {
      "fullUrl": "urn:uuid:366bd51a-97d5-4c68-a7bd-a34eb01181b0",
      "resource": {
        "resourceType": "Observation",
        "id": "366bd51a-97d5-4c68-a7bd-a34eb01181b0",
        "meta": {
          "profile": [
            "http://hl7.eu/fhir/laboratory/StructureDefinition/Observation-resultslab-eu-lab"
          ]
        },
        "performer": [
          {
            "display": "The Central European Lab"
          }
        ],
        "category": [
          {
            "coding": [
              {
                "system": "http://terminology.hl7.org/CodeSystem/observation-category",
                "code": "laboratory"
              }
            ]
          }
        ],
        "code": {
          "coding": [
            {
              "code": "4548-4",
              "system": "http://loinc.org",
              "display": "Hemoglobin A1c/Hemoglobin.total in Blood"
            }
          ],
          "text": "Hemoglobin A1c/Hemoglobin.total in Blood"
        },
        "valueQuantity": {
          "system": "http://unitsofmeasure.org",
          "value": 2.8,
          "unit": "%",
          "code": "%"
        },
        "referenceRange": [
          {
            "low": {
              "value": 4.5,
              "code": "%",
              "system": "http://unitsofmeasure.org"
            }
          },
          {
            "high": {
              "value": 6.4,
              "code": "%",
              "system": "http://unitsofmeasure.org"
            }
          }
        ],
        "interpretation": [
          {
            "coding": [
              {
                "code": "L",
                "system": "http://terminology.hl7.org/CodeSystem/v3-ObservationInterpretation",
                "display": "Low"
              }
            ]
          }
        ],
        "text": {
          "status": "generated",
          "div": "<div xmlns=\"http://www.w3.org/1999/xhtml\"><table class=\"hl7__eu__lab__report\"><tr><th>Test</th><th>25-Jan-2017</th><th>Reference&#xA0;Range</th><th>Unit</th></tr><tr><td>Hemoglobin A1c/Hemoglobin.total in Blood</td><td>2.8</td><td>4.5 - 6.4</td><td>L</td><td>%</td></tr></table></div>"
        },
        "status": "final",
        "subject": {
          "reference": "urn:uuid:e520149f-dc6b-475e-ad8b-3fed8f38c72e",
          "display": "Maria Nohlmans"
        },
        "effectiveDateTime": "2017-01-25T11:02:39Z",
        "specimen": {
          "reference": "urn:uuid:63af252b-9d8d-4bc4-be66-d32f16752b65"
        }
      }
    },
    {
      "fullUrl": "urn:uuid:2141a734-a110-4443-b99a-b465a005d43f",
      "resource": {
        "resourceType": "Observation",
        "id": "2141a734-a110-4443-b99a-b465a005d43f",
        "meta": {
          "profile": [
            "http://hl7.eu/fhir/laboratory/StructureDefinition/Observation-resultslab-eu-lab"
          ]
        },
        "performer": [
          {
            "display": "The Central European Lab"
          }
        ],
        "category": [
          {
            "coding": [
              {
                "system": "http://terminology.hl7.org/CodeSystem/observation-category",
                "code": "laboratory"
              }
            ]
          }
        ],
        "code": {
          "coding": [
            {
              "code": "2339-0",
              "system": "http://loinc.org",
              "display": "Glucose [Mass/volume] in Blood"
            }
          ],
          "text": "Glucose [Mass/volume] in Blood"
        },
        "valueQuantity": {
          "system": "http://unitsofmeasure.org",
          "value": 83.3,
          "unit": "mg/dL",
          "code": "mg/dL"
        },
        "referenceRange": [
          {
            "low": {
              "value": 70,
              "code": "mg/dL",
              "system": "http://unitsofmeasure.org"
            }
          },
          {
            "high": {
              "value": 140,
              "code": "mg/dL",
              "system": "http://unitsofmeasure.org"
            }
          }
        ],
        "text": {
          "status": "generated",
          "div": "<div xmlns=\"http://www.w3.org/1999/xhtml\"><table class=\"hl7__eu__lab__report\"><tr><th>Test</th><th>25-Jan-2017</th><th>Reference&#xA0;Range</th><th>Unit</th></tr><tr><td>Glucose [Mass/volume] in Blood</td><td>83.3</td><td>70 - 140</td><td></td><td>mg/dL</td></tr></table></div>"
        },
        "status": "final",
        "subject": {
          "reference": "urn:uuid:e520149f-dc6b-475e-ad8b-3fed8f38c72e",
          "display": "Maria Nohlmans"
        },
        "effectiveDateTime": "2017-01-25T11:02:39Z",
        "specimen": {
          "reference": "urn:uuid:63af252b-9d8d-4bc4-be66-d32f16752b65"
        }
      }
    },
    {
      "fullUrl": "urn:uuid:0b11a51c-9f51-4692-9472-7cd5565d79d0",
      "resource": {
        "resourceType": "Observation",
        "id": "0b11a51c-9f51-4692-9472-7cd5565d79d0",
        "meta": {
          "profile": [
            "http://hl7.eu/fhir/laboratory/StructureDefinition/Observation-resultslab-eu-lab"
          ]
        },
        "performer": [
          {
            "display": "The Central European Lab"
          }
        ],
        "category": [
          {
            "coding": [
              {
                "system": "http://terminology.hl7.org/CodeSystem/observation-category",
                "code": "laboratory"
              }
            ]
          }
        ],
        "code": {
          "coding": [
            {
              "code": "6299-2",
              "system": "http://loinc.org",
              "display": "Urea nitrogen [Mass/volume] in Blood"
            }
          ],
          "text": "Urea nitrogen [Mass/volume] in Blood"
        },
        "valueQuantity": {
          "system": "http://unitsofmeasure.org",
          "value": 19.6,
          "unit": "mg/dL",
          "code": "mg/dL"
        },
        "referenceRange": [
          {
            "low": {
              "value": 7,
              "code": "mg/dL",
              "system": "http://unitsofmeasure.org"
            }
          },
          {
            "high": {
              "value": 30,
              "code": "mg/dL",
              "system": "http://unitsofmeasure.org"
            }
          }
        ],
        "text": {
          "status": "generated",
          "div": "<div xmlns=\"http://www.w3.org/1999/xhtml\"><table class=\"hl7__eu__lab__report\"><tr><th>Test</th><th>25-Jan-2017</th><th>Reference&#xA0;Range</th><th>Unit</th></tr><tr><td>Urea nitrogen [Mass/volume] in Blood</td><td>19.6</td><td>7 - 30</td><td></td><td>mg/dL</td></tr></table></div>"
        },
        "status": "final",
        "subject": {
          "reference": "urn:uuid:e520149f-dc6b-475e-ad8b-3fed8f38c72e",
          "display": "Maria Nohlmans"
        },
        "effectiveDateTime": "2017-01-25T11:02:39Z",
        "specimen": {
          "reference": "urn:uuid:63af252b-9d8d-4bc4-be66-d32f16752b65"
        }
      }
    },
    {
      "fullUrl": "urn:uuid:02ab7022-0260-4730-a707-7bd6e3a54238",
      "resource": {
        "resourceType": "Observation",
        "id": "02ab7022-0260-4730-a707-7bd6e3a54238",
        "meta": {
          "profile": [
            "http://hl7.eu/fhir/laboratory/StructureDefinition/Observation-resultslab-eu-lab"
          ]
        },
        "performer": [
          {
            "display": "The Central European Lab"
          }
        ],
        "category": [
          {
            "coding": [
              {
                "system": "http://terminology.hl7.org/CodeSystem/observation-category",
                "code": "laboratory"
              }
            ]
          }
        ],
        "code": {
          "coding": [
            {
              "code": "38483-4",
              "system": "http://loinc.org",
              "display": "Creatinine [Mass/volume] in Blood"
            }
          ],
          "text": "Creatinine [Mass/volume] in Blood"
        },
        "valueQuantity": {
          "system": "http://unitsofmeasure.org",
          "value": 10.4,
          "unit": "mg/dL",
          "code": "mg/dL"
        },
        "referenceRange": [
          {
            "low": {
              "value": 0.5,
              "code": "mg/dL",
              "system": "http://unitsofmeasure.org"
            }
          },
          {
            "high": {
              "value": 1.3,
              "code": "mg/dL",
              "system": "http://unitsofmeasure.org"
            }
          }
        ],
        "interpretation": [
          {
            "coding": [
              {
                "code": "H",
                "system": "http://terminology.hl7.org/CodeSystem/v3-ObservationInterpretation",
                "display": "High"
              }
            ]
          }
        ],
        "text": {
          "status": "generated",
          "div": "<div xmlns=\"http://www.w3.org/1999/xhtml\"><table class=\"hl7__eu__lab__report\"><tr><th>Test</th><th>25-Jan-2017</th><th>Reference&#xA0;Range</th><th>Unit</th></tr><tr><td>Creatinine [Mass/volume] in Blood</td><td>10.4</td><td>0.5 - 1.3</td><td>H</td><td>mg/dL</td></tr></table></div>"
        },
        "status": "final",
        "subject": {
          "reference": "urn:uuid:e520149f-dc6b-475e-ad8b-3fed8f38c72e",
          "display": "Maria Nohlmans"
        },
        "effectiveDateTime": "2017-01-25T11:02:39Z",
        "specimen": {
          "reference": "urn:uuid:63af252b-9d8d-4bc4-be66-d32f16752b65"
        }
      }
    },
    {
      "fullUrl": "urn:uuid:4a328616-3674-4b28-ae97-ba78f94b0237",
      "resource": {
        "resourceType": "Observation",
        "id": "4a328616-3674-4b28-ae97-ba78f94b0237",
        "meta": {
          "profile": [
            "http://hl7.eu/fhir/laboratory/StructureDefinition/Observation-resultslab-eu-lab"
          ]
        },
        "performer": [
          {
            "display": "The Central European Lab"
          }
        ],
        "category": [
          {
            "coding": [
              {
                "system": "http://terminology.hl7.org/CodeSystem/observation-category",
                "code": "laboratory"
              }
            ]
          }
        ],
        "code": {
          "coding": [
            {
              "code": "49765-1",
              "system": "http://loinc.org",
              "display": "Calcium [Mass/volume] in Blood"
            }
          ],
          "text": "Calcium [Mass/volume] in Blood"
        },
        "valueQuantity": {
          "system": "http://unitsofmeasure.org",
          "value": 10,
          "unit": "mg/dL",
          "code": "mg/dL"
        },
        "referenceRange": [
          {
            "low": {
              "value": 8.6,
              "code": "mg/dL",
              "system": "http://unitsofmeasure.org"
            }
          },
          {
            "high": {
              "value": 10.2,
              "code": "mg/dL",
              "system": "http://unitsofmeasure.org"
            }
          }
        ],
        "text": {
          "status": "generated",
          "div": "<div xmlns=\"http://www.w3.org/1999/xhtml\"><table class=\"hl7__eu__lab__report\"><tr><th>Test</th><th>25-Jan-2017</th><th>Reference&#xA0;Range</th><th>Unit</th></tr><tr><td>Calcium [Mass/volume] in Blood</td><td>10.0</td><td>8.6 - 10.2</td><td></td><td>mg/dL</td></tr></table></div>"
        },
        "status": "final",
        "subject": {
          "reference": "urn:uuid:e520149f-dc6b-475e-ad8b-3fed8f38c72e",
          "display": "Maria Nohlmans"
        },
        "effectiveDateTime": "2017-01-25T11:02:39Z",
        "specimen": {
          "reference": "urn:uuid:63af252b-9d8d-4bc4-be66-d32f16752b65"
        }
      }
    },
    {
      "fullUrl": "urn:uuid:665e055c-a66b-41f2-85bc-2618e14080d2",
      "resource": {
        "resourceType": "Observation",
        "id": "665e055c-a66b-41f2-85bc-2618e14080d2",
        "meta": {
          "profile": [
            "http://hl7.eu/fhir/laboratory/StructureDefinition/Observation-resultslab-eu-lab"
          ]
        },
        "performer": [
          {
            "display": "The Central European Lab"
          }
        ],
        "category": [
          {
            "coding": [
              {
                "system": "http://terminology.hl7.org/CodeSystem/observation-category",
                "code": "laboratory"
              }
            ]
          }
        ],
        "code": {
          "coding": [
            {
              "code": "2947-0",
              "system": "http://loinc.org",
              "display": "Sodium [Moles/volume] in Blood"
            }
          ],
          "text": "Sodium [Moles/volume] in Blood"
        },
        "valueQuantity": {
          "system": "http://unitsofmeasure.org",
          "value": 136.7,
          "unit": "mmol/L",
          "code": "mmol/L"
        },
        "referenceRange": [
          {
            "low": {
              "value": 135,
              "code": "mmol/L",
              "system": "http://unitsofmeasure.org"
            }
          },
          {
            "high": {
              "value": 145,
              "code": "mmol/L",
              "system": "http://unitsofmeasure.org"
            }
          }
        ],
        "text": {
          "status": "generated",
          "div": "<div xmlns=\"http://www.w3.org/1999/xhtml\"><table class=\"hl7__eu__lab__report\"><tr><th>Test</th><th>25-Jan-2017</th><th>Reference&#xA0;Range</th><th>Unit</th></tr><tr><td>Sodium [Moles/volume] in Blood</td><td>136.7</td><td>135 - 145</td><td></td><td>mmol/L</td></tr></table></div>"
        },
        "status": "final",
        "subject": {
          "reference": "urn:uuid:e520149f-dc6b-475e-ad8b-3fed8f38c72e",
          "display": "Maria Nohlmans"
        },
        "effectiveDateTime": "2017-01-25T11:02:39Z",
        "specimen": {
          "reference": "urn:uuid:63af252b-9d8d-4bc4-be66-d32f16752b65"
        }
      }
    },
    {
      "fullUrl": "urn:uuid:420be82a-1aca-4376-b906-d84d45b7b30f",
      "resource": {
        "resourceType": "Observation",
        "id": "420be82a-1aca-4376-b906-d84d45b7b30f",
        "meta": {
          "profile": [
            "http://hl7.eu/fhir/laboratory/StructureDefinition/Observation-resultslab-eu-lab"
          ]
        },
        "performer": [
          {
            "display": "The Central European Lab"
          }
        ],
        "category": [
          {
            "coding": [
              {
                "system": "http://terminology.hl7.org/CodeSystem/observation-category",
                "code": "laboratory"
              }
            ]
          }
        ],
        "code": {
          "coding": [
            {
              "code": "6298-4",
              "system": "http://loinc.org",
              "display": "Potassium [Moles/volume] in Blood"
            }
          ],
          "text": "Potassium [Moles/volume] in Blood"
        },
        "valueQuantity": {
          "system": "http://unitsofmeasure.org",
          "value": 3.7,
          "unit": "mmol/L",
          "code": "mmol/L"
        },
        "referenceRange": [
          {
            "low": {
              "value": 3.5,
              "code": "mmol/L",
              "system": "http://unitsofmeasure.org"
            }
          },
          {
            "high": {
              "value": 5.1,
              "code": "mmol/L",
              "system": "http://unitsofmeasure.org"
            }
          }
        ],
        "text": {
          "status": "generated",
          "div": "<div xmlns=\"http://www.w3.org/1999/xhtml\"><table class=\"hl7__eu__lab__report\"><tr><th>Test</th><th>25-Jan-2017</th><th>Reference&#xA0;Range</th><th>Unit</th></tr><tr><td>Potassium [Moles/volume] in Blood</td><td>3.7</td><td>3.5 - 5.1</td><td></td><td>mmol/L</td></tr></table></div>"
        },
        "status": "final",
        "subject": {
          "reference": "urn:uuid:e520149f-dc6b-475e-ad8b-3fed8f38c72e",
          "display": "Maria Nohlmans"
        },
        "effectiveDateTime": "2017-01-25T11:02:39Z",
        "specimen": {
          "reference": "urn:uuid:63af252b-9d8d-4bc4-be66-d32f16752b65"
        }
      }
    },
    {
      "fullUrl": "urn:uuid:c3a773c1-2677-426d-a665-02bb790f08b5",
      "resource": {
        "resourceType": "Observation",
        "id": "c3a773c1-2677-426d-a665-02bb790f08b5",
        "meta": {
          "profile": [
            "http://hl7.eu/fhir/laboratory/StructureDefinition/Observation-resultslab-eu-lab"
          ]
        },
        "performer": [
          {
            "display": "The Central European Lab"
          }
        ],
        "category": [
          {
            "coding": [
              {
                "system": "http://terminology.hl7.org/CodeSystem/observation-category",
                "code": "laboratory"
              }
            ]
          }
        ],
        "code": {
          "coding": [
            {
              "code": "2069-3",
              "system": "http://loinc.org",
              "display": "Chloride [Moles/volume] in Blood"
            }
          ],
          "text": "Chloride [Moles/volume] in Blood"
        },
        "valueQuantity": {
          "system": "http://unitsofmeasure.org",
          "value": 106.4,
          "unit": "mmol/L",
          "code": "mmol/L"
        },
        "referenceRange": [
          {
            "low": {
              "value": 98,
              "code": "mmol/L",
              "system": "http://unitsofmeasure.org"
            }
          },
          {
            "high": {
              "value": 114,
              "code": "mmol/L",
              "system": "http://unitsofmeasure.org"
            }
          }
        ],
        "text": {
          "status": "generated",
          "div": "<div xmlns=\"http://www.w3.org/1999/xhtml\"><table class=\"hl7__eu__lab__report\"><tr><th>Test</th><th>25-Jan-2017</th><th>Reference&#xA0;Range</th><th>Unit</th></tr><tr><td>Chloride [Moles/volume] in Blood</td><td>106.4</td><td>98 - 114</td><td></td><td>mmol/L</td></tr></table></div>"
        },
        "status": "final",
        "subject": {
          "reference": "urn:uuid:e520149f-dc6b-475e-ad8b-3fed8f38c72e",
          "display": "Maria Nohlmans"
        },
        "effectiveDateTime": "2017-01-25T11:02:39Z",
        "specimen": {
          "reference": "urn:uuid:63af252b-9d8d-4bc4-be66-d32f16752b65"
        }
      }
    },
    {
      "fullUrl": "urn:uuid:6e611a38-3463-4dd5-b455-1bbc2a2c61c3",
      "resource": {
        "resourceType": "Observation",
        "id": "6e611a38-3463-4dd5-b455-1bbc2a2c61c3",
        "meta": {
          "profile": [
            "http://hl7.eu/fhir/laboratory/StructureDefinition/Observation-resultslab-eu-lab"
          ]
        },
        "performer": [
          {
            "display": "The Central European Lab"
          }
        ],
        "category": [
          {
            "coding": [
              {
                "system": "http://terminology.hl7.org/CodeSystem/observation-category",
                "code": "laboratory"
              }
            ]
          }
        ],
        "code": {
          "coding": [
            {
              "code": "20565-8",
              "system": "http://loinc.org",
              "display": "Carbon dioxide, total [Moles/volume] in Blood"
            }
          ],
          "text": "Carbon dioxide, total [Moles/volume] in Blood"
        },
        "valueQuantity": {
          "system": "http://unitsofmeasure.org",
          "value": 20.6,
          "unit": "mmol/L",
          "code": "mmol/L"
        },
        "referenceRange": [
          {
            "low": {
              "value": 22,
              "code": "mmol/L",
              "system": "http://unitsofmeasure.org"
            }
          },
          {
            "high": {
              "value": 32,
              "code": "mmol/L",
              "system": "http://unitsofmeasure.org"
            }
          }
        ],
        "interpretation": [
          {
            "coding": [
              {
                "code": "L",
                "system": "http://terminology.hl7.org/CodeSystem/v3-ObservationInterpretation",
                "display": "Low"
              }
            ]
          }
        ],
        "text": {
          "status": "generated",
          "div": "<div xmlns=\"http://www.w3.org/1999/xhtml\"><table class=\"hl7__eu__lab__report\"><tr><th>Test</th><th>25-Jan-2017</th><th>Reference&#xA0;Range</th><th>Unit</th></tr><tr><td>Carbon dioxide, total [Moles/volume] in Blood</td><td>20.6</td><td>22 - 32</td><td>L</td><td>mmol/L</td></tr></table></div>"
        },
        "status": "final",
        "subject": {
          "reference": "urn:uuid:e520149f-dc6b-475e-ad8b-3fed8f38c72e",
          "display": "Maria Nohlmans"
        },
        "effectiveDateTime": "2017-01-25T11:02:39Z",
        "specimen": {
          "reference": "urn:uuid:63af252b-9d8d-4bc4-be66-d32f16752b65"
        }
      }
    },
    {
      "fullUrl": "urn:uuid:1e4a95b5-4bb6-4985-9c4f-d60d7a9eb8b1",
      "resource": {
        "resourceType": "Device",
        "id": "1e4a95b5-4bb6-4985-9c4f-d60d7a9eb8b1",
        "deviceName": [
          {
            "name": "SYNDERAI Synthetic Generator",
            "type": "manufacturer-name"
          }
        ],
        "version": [
          {
            "value": "5.0"
          }
        ],
        "text": {
          "status": "generated",
          "div": "<div xmlns=\"http://www.w3.org/1999/xhtml\">SYNDERAI Synthetic Generator v5.0</div>"
        },
        "status": "active\"",
        "distinctIdentifier": "synderai-generator-50",
        "manufacturer": "SYNDERAI Project"
      }
    },
    {
      "fullUrl": "urn:uuid:cfdc6fa2-fb01-4d7e-a9e5-3d8e0d614848",
      "resource": {
        "resourceType": "Provenance",
        "id": "cfdc6fa2-fb01-4d7e-a9e5-3d8e0d614848",
        "target": [
          {
            "reference": "Patient/e520149f-dc6b-475e-ad8b-3fed8f38c72e"
          },
          {
            "reference": "Bundle/eb098d58-767a-48ff-86d6-242eb8dbc181"
          },
          {
            "reference": "Composition/44a1725a-33cf-4a76-a4af-0a7dc361750b"
          },
          {
            "reference": "PractitionerRole/9009c29c-dcd1-4873-b5f7-93f8620a1482"
          },
          {
            "reference": "Practitioner/87e3ae06-c50d-4823-95fd-a4f3fc51ec68"
          },
          {
            "reference": "PractitionerRole/c9410c78-eab5-48a7-a43d-3c8b96688a55"
          },
          {
            "reference": "Organization/c76e3b95-7e1c-4f43-a677-e59bf92913c2"
          }
        ],
        "activity": {
          "text": "Synthetic Example Data Generation"
        },
        "policy": [
          "https://synderai.net/synderai-synthetic-data-policy"
        ],
        "agent": [
          {
            "type": {
              "text": "author"
            },
            "who": {
              "reference": "Device/1e4a95b5-4bb6-4985-9c4f-d60d7a9eb8b1"
            }
          }
        ],
        "reason": [
          {
            "text": "Interoperability Testing and Training (non-clinical use)"
          }
        ],
        "text": {
          "status": "generated",
          "div": "<div xmlns=\"http://www.w3.org/1999/xhtml\">Provenance for SYNDERAI Synthetic Example Data Resource</div>"
        },
        "recorded": "2017-01-25T12:02:39Z"
      }
    },
    {
      "fullUrl": "urn:uuid:9009c29c-dcd1-4873-b5f7-93f8620a1482",
      "resource": {
        "resourceType": "PractitionerRole",
        "id": "9009c29c-dcd1-4873-b5f7-93f8620a1482",
        "meta": {
          "profile": [
            "http://hl7.eu/fhir/base/StructureDefinition/practitionerRole-eu"
          ]
        },
        "text": {
          "status": "generated",
          "div": "<div xmlns=\"http://www.w3.org/1999/xhtml\">Laboratory Role Id: 9009c29c-dcd1-4873-b5f7-93f8620a1482</div>"
        },
        "practitioner": {
          "reference": "urn:uuid:87e3ae06-c50d-4823-95fd-a4f3fc51ec68"
        }
      }
    },
    {
      "fullUrl": "urn:uuid:87e3ae06-c50d-4823-95fd-a4f3fc51ec68",
      "resource": {
        "resourceType": "Practitioner",
        "id": "87e3ae06-c50d-4823-95fd-a4f3fc51ec68",
        "meta": {
          "profile": [
            "http://hl7.eu/fhir/base/StructureDefinition/practitioner-eu"
          ]
        },
        "identifier": [
          {
            "assigner": {
              "display": "HL7 Europe"
            },
            "system": "urn:oid:2.16.840.1.113883.2.51.999",
            "value": "d259ec53-9db3-4d79-9407-a4b2931784ac"
          }
        ],
        "name": [
          {
            "prefix": [
              "dr"
            ],
            "given": [
              "Ex"
            ],
            "family": "Ample"
          }
        ],
        "address": [
          {
            "line": [
              "Laboratoire Central Européenne",
              "Boulevard du Jardin Botanique 32"
            ],
            "postalCode": "1000",
            "city": "Brussels",
            "country": "Belgium"
          }
        ],
        "text": {
          "status": "generated",
          "div": "<div xmlns=\"http://www.w3.org/1999/xhtml\">Laboratory: Laboratoire Central Européenne, 1000 Brussels, Belgium</div>"
        }
      }
    }
  ],
  "type": "document",
  "timestamp": "2017-01-25T12:02:39Z"
}
