{
  "resourceType": "Bundle",
  "id": "ef2286aa-ba65-4aa5-a48b-eaf230b12fd2",
  "meta": {
    "profile": [
      "http://hl7.eu/fhir/laboratory/StructureDefinition/Bundle-eu-lab"
    ]
  },
  "identifier": {
    "assigner": {
      "display": "HL7 Europe"
    },
    "system": "urn:oid:2.16.840.1.113883.2.51.999",
    "value": "40af0130-e3f3-4f80-8581-3291b12db571"
  },
  "entry": [
    {
      "fullUrl": "urn:uuid:bec6ddde-34a5-4c82-8b92-2fb1652be301",
      "resource": {
        "resourceType": "Composition",
        "id": "bec6ddde-34a5-4c82-8b92-2fb1652be301",
        "meta": {
          "profile": [
            "http://hl7.eu/fhir/laboratory/StructureDefinition/Composition-eu-lab"
          ]
        },
        "identifier": {
          "assigner": {
            "display": "HL7 Europe"
          },
          "system": "urn:oid:2.16.840.1.113883.2.51.999",
          "value": "623eca18-08a9-44fa-b49c-1a3ce133c3b6"
        },
        "author": [
          {
            "reference": "urn:uuid:52c33c79-fbfd-4b8c-8166-154edb37e427"
          }
        ],
        "category": [
          {
            "coding": [
              {
                "code": "26436-6",
                "system": "http://loinc.org",
                "display": "Laboratory studies (set)"
              }
            ]
          }
        ],
        "type": {
          "coding": [
            {
              "code": "11502-2",
              "system": "http://loinc.org",
              "display": "Laboratory report"
            }
          ],
          "text": "Laboratory Report"
        },
        "section": [
          {
            "code": {
              "coding": [
                {
                  "code": "26436-6",
                  "system": "http://loinc.org",
                  "display": "Laboratory studies (set)"
                }
              ],
              "text": "Laboratory studies"
            },
            "section": [
              {
                "code": {
                  "coding": [
                    {
                      "code": "$18723-7",
                      "system": "http://loinc.org",
                      "display": "Hematology studies (set)"
                    }
                  ],
                  "text": "Hematology"
                },
                "entry": [
                  {
                    "reference": "urn:uuid:92fe6cc5-b0d1-4357-b4f1-08965c031e2d"
                  },
                  {
                    "reference": "urn:uuid:48fe9e34-8bc2-490e-bee6-8a87eb731f30"
                  },
                  {
                    "reference": "urn:uuid:5685919a-e9e9-4d00-9c61-5b1f0a3337ec"
                  },
                  {
                    "reference": "urn:uuid:74971cf1-e4b0-42b3-accf-199a6a098c19"
                  },
                  {
                    "reference": "urn:uuid:6cca8fd8-a6c6-4cbf-a928-a11642f3404d"
                  },
                  {
                    "reference": "urn:uuid:03cd1060-0d97-4ba6-87ed-3aea0704b49c"
                  },
                  {
                    "reference": "urn:uuid:d3bc3bf2-eb7d-4e3d-8b3d-05d28ec80295"
                  },
                  {
                    "reference": "urn:uuid:8268dc9c-5ab4-4eb4-92a5-25044e34023e"
                  },
                  {
                    "reference": "urn:uuid:bd1af12e-1604-4207-9b78-2e53b5b0f8d9"
                  },
                  {
                    "reference": "urn:uuid:42d0d055-88c0-40e7-aa09-5045871907e8"
                  },
                  {
                    "reference": "urn:uuid:107344b2-8f1d-4581-8713-d5a79179550d"
                  }
                ],
                "text": {
                  "status": "generated",
                  "div": "<div xmlns=\"http://www.w3.org/1999/xhtml\"><h3>Hematology</h3><table class=\"hl7__eu__lab__report\"><thead><tr><th>Test</th><th>01-MAR-2016</th><th>Reference&#xA0;Range</th><th>Unit</th></tr></thead><tbody><tr><td>Leukocytes [#/volume] in Blood by Automated count</td><td>10.2</td><td>3.4 - 10.6</td><td>10*3/uL</td></tr><tr><td>Erythrocytes [#/volume] in Blood by Automated count</td><td><strong>4.4 L</strong></td><td>4.5 - 6.2</td><td>10*6/uL</td></tr><tr><td>Hemoglobin [Mass/volume] in Blood</td><td>17.1</td><td>13.5 - 17.5</td><td>g/dL</td></tr><tr><td>Hematocrit [Volume Fraction] of Blood by Automated count</td><td>44.4</td><td>38 - 50</td><td>%</td></tr><tr><td>MCV [Entitic volume] by Automated count</td><td>92.6</td><td>80 - 105</td><td>fL</td></tr><tr><td>MCH [Entitic mass] by Automated count</td><td>32.8</td><td>27 - 34</td><td>pg</td></tr><tr><td>MCHC [Mass/volume] by Automated count</td><td>33.1</td><td>31.5 - 36</td><td>g/dL</td></tr><tr><td>Erythrocyte distribution width [Entitic volume] by Automated count</td><td>41.7</td><td>36 - 55</td><td>fL</td></tr><tr><td>Platelets [#/volume] in Blood by Automated count</td><td>178.6</td><td>150 - 450</td><td>10*3/uL</td></tr><tr><td>Platelet distribution width [Entitic volume] in Blood by Automated count</td><td><strong>243.5 H</strong></td><td>13.4 - 17.4</td><td>fL</td></tr><tr><td>Platelet mean volume [Entitic volume] in Blood by Automated count</td><td><strong>9.4 L</strong></td><td>9.8 - 13.8</td><td>fL</td></tr></tbody></table></div>"
                },
                "title": "Hematology"
              },
              {
                "code": {
                  "coding": [
                    {
                      "code": "$18719-5",
                      "system": "http://loinc.org",
                      "display": "Chemistry studies (set)"
                    }
                  ],
                  "text": "Chemistry"
                },
                "entry": [
                  {
                    "reference": "urn:uuid:b2489443-db15-4fb4-839c-925939a9f15e"
                  },
                  {
                    "reference": "urn:uuid:520c9f9c-d789-4fe2-a3de-c75d33fb4163"
                  },
                  {
                    "reference": "urn:uuid:b57a364c-5721-4a65-8e39-b8173ef1fea1"
                  },
                  {
                    "reference": "urn:uuid:b7bdd7df-aea2-41dd-aa14-3ab1cb26d0f4"
                  },
                  {
                    "reference": "urn:uuid:262c897e-ea49-4952-825c-bf018036e5ec"
                  },
                  {
                    "reference": "urn:uuid:a357e8cd-9bbb-4fd1-8805-560354e6eb21"
                  },
                  {
                    "reference": "urn:uuid:afb68a6a-680c-4388-92bb-df93d0cd646e"
                  },
                  {
                    "reference": "urn:uuid:885f4aed-1c26-4cb0-932a-ac64ea9a37b3"
                  },
                  {
                    "reference": "urn:uuid:e8010dae-94e3-4b84-a39e-39bf961984ca"
                  },
                  {
                    "reference": "urn:uuid:288e8c77-8634-4336-af5d-fee6abcf6b07"
                  },
                  {
                    "reference": "urn:uuid:9bc29a9c-28aa-4189-bf90-b8a7f35df3cc"
                  },
                  {
                    "reference": "urn:uuid:3ed90e4c-dc87-44f5-a1d5-c0120f7c247d"
                  },
                  {
                    "reference": "urn:uuid:c489a843-fbd7-4870-95a4-fcfc53473b8e"
                  },
                  {
                    "reference": "urn:uuid:37ef681a-b632-40a3-8a71-6c4e62269099"
                  }
                ],
                "text": {
                  "status": "generated",
                  "div": "<div xmlns=\"http://www.w3.org/1999/xhtml\"><h3>Chemistry</h3><table class=\"hl7__eu__lab__report\"><thead><tr><th>Test</th><th>01-MAR-2016</th><th>Reference&#xA0;Range</th><th>Unit</th></tr></thead><tbody><tr><td>Hemoglobin A1c/Hemoglobin.total in Blood</td><td><strong>7.0 H</strong></td><td>4.6 - 6</td><td>%</td></tr><tr><td>Glucose [Mass/volume] in Blood</td><td><strong>116.8 H</strong></td><td>70 - 99</td><td>mg/dL</td></tr><tr><td>Urea nitrogen [Mass/volume] in Blood</td><td>16.8</td><td>7 - 50</td><td>mg/dL</td></tr><tr><td>Creatinine [Mass/volume] in Blood</td><td>1.2</td><td>0.9 - 1.3</td><td>mg/dL</td></tr><tr><td>Calcium [Mass/volume] in Blood</td><td>10.1</td><td>8.5 - 10.5</td><td>mg/dL</td></tr><tr><td>Sodium [Moles/volume] in Blood</td><td>136.3</td><td>135 - 145</td><td>mmol/L</td></tr><tr><td>Potassium [Moles/volume] in Blood</td><td>4.0</td><td>3.5 - 5.1</td><td>mmol/L</td></tr><tr><td>Chloride [Moles/volume] in Blood</td><td>107.5</td><td>98 - 114</td><td>mmol/L</td></tr><tr><td>Carbon dioxide, total [Moles/volume] in Blood</td><td>28.5</td><td>22 - 32</td><td>mmol/L</td></tr><tr><td>Cholesterol [Mass/volume] in Serum or Plasma</td><td><strong>216.6 H</strong></td><td>125 - 200</td><td>mg/dL</td></tr><tr><td>Triglyceride [Mass/volume] in Serum or Plasma</td><td><strong>178.5 H</strong></td><td>0 - 150</td><td>mg/dL</td></tr><tr><td>Cholesterol in LDL [Mass/volume] in Serum or Plasma by Direct assay</td><td><strong>134.4 H</strong></td><td>0 - 130</td><td>mg/dL</td></tr><tr><td>Cholesterol in HDL [Mass/volume] in Serum or Plasma</td><td>46.5</td><td>40 - 60</td><td>mg/dL</td></tr><tr><td>Microalbumin/Creatinine [Mass Ratio] in Urine</td><td>11.9</td><td>0 - 30</td><td>mg/g</td></tr></tbody></table></div>"
                },
                "title": "Chemistry"
              }
            ],
            "title": "Laboratory Report"
          },
          {
            "text": {
              "status": "generated",
              "div": "<div xmlns=\"http://www.w3.org/1999/xhtml\"><h3>Annotation</h3><table class=\"hl7__eu__lab__report\"><tr><th>Conclusion and Recommendations based on this report and previous findings known to us</th></tr><tr><td>The results indicate poor glycemic control (elevated HbA1c and fasting glucose), dyslipidemia (high total cholesterol, LDL, and triglycerides), and mild erythrocytopenia. Renal function and microalbuminuria are within normal limits. Platelet indices show mild abnormalities but are not critical. These findings are consistent with metabolic syndrome and increased cardiovascular risk; clinical correlation and management optimization are recommended.</td></tr></table></div>"
            },
            "code": {
              "coding": [
                {
                  "system": "http://loinc.org",
                  "code": "48767-8",
                  "display": "Annotation comment"
                }
              ]
            },
            "title": "Annotation comment"
          }
        ],
        "status": "final",
        "subject": {
          "reference": "urn:uuid:6505b442-8540-44ce-8676-1bc6e8bbb593",
          "display": "Roy Harrison"
        },
        "date": "2016-03-01T03:49:43Z",
        "title": "Laboratory Report",
        "confidentiality": "N"
      }
    },
    {
      "fullUrl": "urn:uuid:154dcb3a-52c9-4291-aa41-4bb84118739b",
      "resource": {
        "resourceType": "DiagnosticReport",
        "id": "154dcb3a-52c9-4291-aa41-4bb84118739b",
        "meta": {
          "profile": [
            "http://hl7.eu/fhir/laboratory/StructureDefinition/DiagnosticReport-eu-lab"
          ]
        },
        "identifier": [
          {
            "assigner": {
              "display": "HL7 Europe"
            },
            "system": "urn:oid:2.16.840.1.113883.2.51.999",
            "value": "96803083-ad96-4985-8f67-0b30132ee5c6"
          }
        ],
        "extension": [
          {
            "url": "http://hl7.org/fhir/5.0/StructureDefinition/extension-DiagnosticReport.composition",
            "valueReference": {
              "reference": "urn:uuid:623eca18-08a9-44fa-b49c-1a3ce133c3b6"
            }
          }
        ],
        "category": [
          {
            "coding": [
              {
                "code": "26436-6",
                "system": "http://loinc.org",
                "display": "Laboratory studies (set)"
              }
            ]
          }
        ],
        "specimen": [
          {
            "reference": "urn:uuid:18a5a67d-f3e6-40f7-bfc5-8aa64ec9a0a6"
          },
          {
            "reference": "urn:uuid:7abb6753-b731-44b5-b783-4e40b3bd2d0b"
          },
          {
            "reference": "urn:uuid:3c0005c2-c3f8-41d7-b381-de1243c148e7"
          },
          {
            "reference": "urn:uuid:18a5a67d-f3e6-40f7-bfc5-8aa64ec9a0a6"
          }
        ],
        "result": [
          {
            "reference": "urn:uuid:b2489443-db15-4fb4-839c-925939a9f15e"
          },
          {
            "reference": "urn:uuid:520c9f9c-d789-4fe2-a3de-c75d33fb4163"
          },
          {
            "reference": "urn:uuid:b57a364c-5721-4a65-8e39-b8173ef1fea1"
          },
          {
            "reference": "urn:uuid:b7bdd7df-aea2-41dd-aa14-3ab1cb26d0f4"
          },
          {
            "reference": "urn:uuid:262c897e-ea49-4952-825c-bf018036e5ec"
          },
          {
            "reference": "urn:uuid:a357e8cd-9bbb-4fd1-8805-560354e6eb21"
          },
          {
            "reference": "urn:uuid:afb68a6a-680c-4388-92bb-df93d0cd646e"
          },
          {
            "reference": "urn:uuid:885f4aed-1c26-4cb0-932a-ac64ea9a37b3"
          },
          {
            "reference": "urn:uuid:e8010dae-94e3-4b84-a39e-39bf961984ca"
          },
          {
            "reference": "urn:uuid:288e8c77-8634-4336-af5d-fee6abcf6b07"
          },
          {
            "reference": "urn:uuid:9bc29a9c-28aa-4189-bf90-b8a7f35df3cc"
          },
          {
            "reference": "urn:uuid:3ed90e4c-dc87-44f5-a1d5-c0120f7c247d"
          },
          {
            "reference": "urn:uuid:c489a843-fbd7-4870-95a4-fcfc53473b8e"
          },
          {
            "reference": "urn:uuid:37ef681a-b632-40a3-8a71-6c4e62269099"
          },
          {
            "reference": "urn:uuid:92fe6cc5-b0d1-4357-b4f1-08965c031e2d"
          },
          {
            "reference": "urn:uuid:48fe9e34-8bc2-490e-bee6-8a87eb731f30"
          },
          {
            "reference": "urn:uuid:5685919a-e9e9-4d00-9c61-5b1f0a3337ec"
          },
          {
            "reference": "urn:uuid:74971cf1-e4b0-42b3-accf-199a6a098c19"
          },
          {
            "reference": "urn:uuid:6cca8fd8-a6c6-4cbf-a928-a11642f3404d"
          },
          {
            "reference": "urn:uuid:03cd1060-0d97-4ba6-87ed-3aea0704b49c"
          },
          {
            "reference": "urn:uuid:d3bc3bf2-eb7d-4e3d-8b3d-05d28ec80295"
          },
          {
            "reference": "urn:uuid:8268dc9c-5ab4-4eb4-92a5-25044e34023e"
          },
          {
            "reference": "urn:uuid:bd1af12e-1604-4207-9b78-2e53b5b0f8d9"
          },
          {
            "reference": "urn:uuid:42d0d055-88c0-40e7-aa09-5045871907e8"
          },
          {
            "reference": "urn:uuid:107344b2-8f1d-4581-8713-d5a79179550d"
          }
        ],
        "status": "registered",
        "code": {
          "coding": [
            {
              "code": "11502-2",
              "system": "http://loinc.org",
              "display": "Laboratory report"
            }
          ]
        },
        "subject": {
          "reference": "urn:uuid:6505b442-8540-44ce-8676-1bc6e8bbb593",
          "display": "Roy Harrison"
        }
      }
    },
    {
      "fullUrl": "urn:uuid:6505b442-8540-44ce-8676-1bc6e8bbb593",
      "resource": {
        "resourceType": "Patient",
        "id": "6505b442-8540-44ce-8676-1bc6e8bbb593",
        "meta": {
          "security": [
            {
              "system": "http://terminology.hl7.org/CodeSystem/v3-ActReason",
              "code": "HTEST"
            },
            {
              "system": "http://terminology.hl7.org/CodeSystem/v3-ActReason",
              "code": "TRAIN"
            }
          ],
          "tag": [
            {
              "system": "https://synderai.net/fhir/CodeSystem/tags",
              "code": "synthetic",
              "display": "SYNDERAI Synthetic data"
            }
          ],
          "profile": [
            "http://hl7.eu/fhir/base/StructureDefinition/patient-eu-core"
          ]
        },
        "identifier": [
          {
            "type": {
              "coding": [
                {
                  "code": "PT",
                  "system": "http://terminology.hl7.org/CodeSystem/v2-0203"
                }
              ]
            },
            "system": "http://ec.europa.eu/identifier/eci",
            "value": "7093-553922-4"
          },
          {
            "type": {
              "coding": [
                {
                  "code": "MR",
                  "system": "http://terminology.hl7.org/CodeSystem/v2-0203"
                }
              ]
            },
            "system": "http://local.setting.eu/identifier",
            "value": "42633ccd-9ef5-6a00-b7c9-353a9679bf2b"
          }
        ],
        "name": [
          {
            "family": "Harrison"
          },
          {
            "given": [
              "Roy"
            ]
          },
          {
            "text": "Roy Harrison"
          }
        ],
        "address": [
          {
            "line": [
              "Flat 4",
              "Dyer route"
            ],
            "use": "home",
            "type": "physical",
            "postalCode": "BA1",
            "city": "Baileyville",
            "country": "United Kingdom"
          }
        ],
        "telecom": [
          {
            "system": "phone",
            "value": "01632960974"
          }
        ],
        "extension": [
          {
            "url": "http://hl7.org/fhir/StructureDefinition/patient-nationality",
            "valueCodeableConcept": {
              "coding": [
                {
                  "code": "GB",
                  "system": "http://hl7.org/fhir/ValueSet/country"
                }
              ]
            }
          }
        ],
        "text": {
          "status": "generated",
          "div": "<div xmlns=\"http://www.w3.org/1999/xhtml\"><table class=\"hl7__ips\"><tr><td>Roy Harrison</td><td>male</td><td>02-Oct-1969</td></tr></table></div>"
        },
        "gender": "male",
        "birthDate": "1969-10-02"
      }
    },
    {
      "fullUrl": "urn:uuid:68a93ab4-9e96-4554-a844-32f342373935",
      "resource": {
        "resourceType": "ServiceRequest",
        "id": "68a93ab4-9e96-4554-a844-32f342373935",
        "meta": {
          "profile": [
            "http://hl7.eu/fhir/laboratory/StructureDefinition/ServiceRequest-eu-lab"
          ]
        },
        "identifier": [
          {
            "system": "http://example.org",
            "value": "ec1694fa-63d4-4f4f-9244-1157f16fd2e6"
          }
        ],
        "specimen": [
          {
            "reference": "urn:uuid:18a5a67d-f3e6-40f7-bfc5-8aa64ec9a0a6"
          },
          {
            "reference": "urn:uuid:7abb6753-b731-44b5-b783-4e40b3bd2d0b"
          },
          {
            "reference": "urn:uuid:3c0005c2-c3f8-41d7-b381-de1243c148e7"
          }
        ],
        "reasonCode": [
          {
            "coding": [
              {
                "code": "302870006",
                "system": "http://snomed.info/sct",
                "display": "Hypertriglyceridemia"
              }
            ]
          },
          {
            "coding": [
              {
                "code": "44054006",
                "system": "http://snomed.info/sct",
                "display": "Type 2 diabetes mellitus"
              }
            ]
          },
          {
            "coding": [
              {
                "code": "59621000",
                "system": "http://snomed.info/sct",
                "display": "Essential hypertension"
              }
            ]
          },
          {
            "coding": [
              {
                "code": "237602007",
                "system": "http://snomed.info/sct",
                "display": "Metabolic syndrome X"
              }
            ]
          },
          {
            "coding": [
              {
                "code": "271737000",
                "system": "http://snomed.info/sct",
                "display": "Anemia"
              }
            ]
          },
          {
            "coding": [
              {
                "code": "90560007",
                "system": "http://snomed.info/sct",
                "display": "Gout"
              }
            ]
          }
        ],
        "status": "active",
        "intent": "order",
        "code": {
          "coding": [
            {
              "code": "108252007",
              "system": "http://snomed.info/sct",
              "display": "Laboratory procedure"
            }
          ]
        },
        "subject": {
          "reference": "urn:uuid:6505b442-8540-44ce-8676-1bc6e8bbb593",
          "display": "Roy Harrison"
        },
        "requester": {
          "reference": "urn:uuid:88ef9e84-d8d0-4c87-b98b-e5035ba48897"
        }
      }
    },
    {
      "fullUrl": "urn:uuid:88ef9e84-d8d0-4c87-b98b-e5035ba48897",
      "resource": {
        "resourceType": "PractitionerRole",
        "id": "88ef9e84-d8d0-4c87-b98b-e5035ba48897",
        "meta": {
          "profile": [
            "http://hl7.eu/fhir/base/StructureDefinition/practitionerRole-eu"
          ]
        },
        "text": {
          "status": "generated",
          "div": "<div xmlns=\"http://www.w3.org/1999/xhtml\">Provider Role Id: 88ef9e84-d8d0-4c87-b98b-e5035ba48897</div>"
        },
        "organization": {
          "reference": "urn:uuid:8c8660ac-ab9c-4fe6-9bac-a5bb830e0c24"
        }
      }
    },
    {
      "fullUrl": "urn:uuid:8c8660ac-ab9c-4fe6-9bac-a5bb830e0c24",
      "resource": {
        "resourceType": "Organization",
        "id": "8c8660ac-ab9c-4fe6-9bac-a5bb830e0c24",
        "meta": {
          "profile": [
            "http://hl7.eu/fhir/base/StructureDefinition/organization-eu"
          ]
        },
        "identifier": [
          {
            "assigner": {
              "display": "HL7 Europe"
            },
            "system": "urn:oid:2.16.840.1.113883.2.51.999",
            "value": "7791a217-67f8-4580-9ff0-48ff7e6d2957"
          }
        ],
        "address": [
          {
            "city": "London",
            "postalCode": "SE1 7",
            "country": "United Kingdom"
          }
        ],
        "text": {
          "status": "generated",
          "div": "<div xmlns=\"http://www.w3.org/1999/xhtml\">Provider Organization: Evelina Children&#039;s Hospital</div>"
        },
        "name": "Evelina Children&#039;s Hospital"
      }
    },
    {
      "fullUrl": "urn:uuid:18a5a67d-f3e6-40f7-bfc5-8aa64ec9a0a6",
      "resource": {
        "resourceType": "Specimen",
        "id": "18a5a67d-f3e6-40f7-bfc5-8aa64ec9a0a6",
        "meta": {
          "profile": [
            "http://hl7.eu/fhir/laboratory/StructureDefinition/Specimen-eu-lab"
          ]
        },
        "collection": {
          "collectedDateTime": "2016-03-01"
        },
        "text": {
          "status": "generated",
          "div": "<div xmlns=\"http://www.w3.org/1999/xhtml\"><table class=\"hl7__eu__lab__report\"><tr><th>Specimen</th><th>Collection Date</th></tr><tr><td>Whole blood specimen (specimen)</td><td><span class=\"nb\">01-Mar-2016</span></td></tr></table></div>"
        },
        "type": {
          "coding": [
            {
              "code": "258580003",
              "system": "http://snomed.info/sct",
              "display": "Whole blood specimen (specimen)"
            }
          ]
        }
      }
    },
    {
      "fullUrl": "urn:uuid:7abb6753-b731-44b5-b783-4e40b3bd2d0b",
      "resource": {
        "resourceType": "Specimen",
        "id": "7abb6753-b731-44b5-b783-4e40b3bd2d0b",
        "meta": {
          "profile": [
            "http://hl7.eu/fhir/laboratory/StructureDefinition/Specimen-eu-lab"
          ]
        },
        "collection": {
          "collectedDateTime": "2016-03-01"
        },
        "text": {
          "status": "generated",
          "div": "<div xmlns=\"http://www.w3.org/1999/xhtml\"><table class=\"hl7__eu__lab__report\"><tr><th>Specimen</th><th>Collection Date</th></tr><tr><td>Acellular blood (serum or plasma) specimen</td><td><span class=\"nb\">01-Mar-2016</span></td></tr></table></div>"
        },
        "type": {
          "coding": [
            {
              "code": "122592007",
              "system": "http://snomed.info/sct",
              "display": "Acellular blood (serum or plasma) specimen"
            }
          ]
        }
      }
    },
    {
      "fullUrl": "urn:uuid:3c0005c2-c3f8-41d7-b381-de1243c148e7",
      "resource": {
        "resourceType": "Specimen",
        "id": "3c0005c2-c3f8-41d7-b381-de1243c148e7",
        "meta": {
          "profile": [
            "http://hl7.eu/fhir/laboratory/StructureDefinition/Specimen-eu-lab"
          ]
        },
        "collection": {
          "collectedDateTime": "2016-03-01"
        },
        "text": {
          "status": "generated",
          "div": "<div xmlns=\"http://www.w3.org/1999/xhtml\"><table class=\"hl7__eu__lab__report\"><tr><th>Specimen</th><th>Collection Date</th></tr><tr><td>Urine specimen</td><td><span class=\"nb\">01-Mar-2016</span></td></tr></table></div>"
        },
        "type": {
          "coding": [
            {
              "code": "122575003",
              "system": "http://snomed.info/sct",
              "display": "Urine specimen"
            }
          ]
        }
      }
    },
    {
      "fullUrl": "urn:uuid:18a5a67d-f3e6-40f7-bfc5-8aa64ec9a0a6",
      "resource": {
        "resourceType": "Specimen",
        "id": "18a5a67d-f3e6-40f7-bfc5-8aa64ec9a0a6",
        "meta": {
          "profile": [
            "http://hl7.eu/fhir/laboratory/StructureDefinition/Specimen-eu-lab"
          ]
        },
        "collection": {
          "collectedDateTime": "2016-03-01"
        },
        "text": {
          "status": "generated",
          "div": "<div xmlns=\"http://www.w3.org/1999/xhtml\"><table class=\"hl7__eu__lab__report\"><tr><th>Specimen</th><th>Collection Date</th></tr><tr><td>Whole blood specimen (specimen)</td><td><span class=\"nb\">01-Mar-2016</span></td></tr></table></div>"
        },
        "type": {
          "coding": [
            {
              "code": "258580003",
              "system": "http://snomed.info/sct",
              "display": "Whole blood specimen (specimen)"
            }
          ]
        }
      }
    },
    {
      "fullUrl": "urn:uuid:b2489443-db15-4fb4-839c-925939a9f15e",
      "resource": {
        "resourceType": "Observation",
        "id": "b2489443-db15-4fb4-839c-925939a9f15e",
        "meta": {
          "profile": [
            "http://hl7.eu/fhir/laboratory/StructureDefinition/Observation-resultslab-eu-lab"
          ]
        },
        "performer": [
          {
            "display": "The Central European Lab"
          }
        ],
        "category": [
          {
            "coding": [
              {
                "system": "http://terminology.hl7.org/CodeSystem/observation-category",
                "code": "laboratory"
              }
            ]
          }
        ],
        "code": {
          "coding": [
            {
              "code": "4548-4",
              "system": "http://loinc.org",
              "display": "Hemoglobin A1c/Hemoglobin.total in Blood"
            }
          ],
          "text": "Hemoglobin A1c/Hemoglobin.total in Blood"
        },
        "valueQuantity": {
          "system": "http://unitsofmeasure.org",
          "value": 7,
          "unit": "%",
          "code": "%"
        },
        "referenceRange": [
          {
            "low": {
              "value": 4.6,
              "code": "%",
              "system": "http://unitsofmeasure.org"
            }
          },
          {
            "high": {
              "value": 6,
              "code": "%",
              "system": "http://unitsofmeasure.org"
            }
          }
        ],
        "interpretation": [
          {
            "coding": [
              {
                "code": "H",
                "system": "http://terminology.hl7.org/CodeSystem/v3-ObservationInterpretation",
                "display": "High"
              }
            ]
          }
        ],
        "text": {
          "status": "generated",
          "div": "<div xmlns=\"http://www.w3.org/1999/xhtml\"><table class=\"hl7__eu__lab__report\"><tr><th>Test</th><th>01-Mar-2016</th><th>Reference&#xA0;Range</th><th>Unit</th></tr><tr><td>Hemoglobin A1c/Hemoglobin.total in Blood</td><td>7.0</td><td>4.6 - 6</td><td>H</td><td>%</td></tr></table></div>"
        },
        "status": "final",
        "subject": {
          "reference": "urn:uuid:6505b442-8540-44ce-8676-1bc6e8bbb593",
          "display": "Roy Harrison"
        },
        "effectiveDateTime": "2016-03-01T02:49:43Z",
        "specimen": {
          "reference": "urn:uuid:18a5a67d-f3e6-40f7-bfc5-8aa64ec9a0a6"
        }
      }
    },
    {
      "fullUrl": "urn:uuid:520c9f9c-d789-4fe2-a3de-c75d33fb4163",
      "resource": {
        "resourceType": "Observation",
        "id": "520c9f9c-d789-4fe2-a3de-c75d33fb4163",
        "meta": {
          "profile": [
            "http://hl7.eu/fhir/laboratory/StructureDefinition/Observation-resultslab-eu-lab"
          ]
        },
        "performer": [
          {
            "display": "The Central European Lab"
          }
        ],
        "category": [
          {
            "coding": [
              {
                "system": "http://terminology.hl7.org/CodeSystem/observation-category",
                "code": "laboratory"
              }
            ]
          }
        ],
        "code": {
          "coding": [
            {
              "code": "2339-0",
              "system": "http://loinc.org",
              "display": "Glucose [Mass/volume] in Blood"
            }
          ],
          "text": "Glucose [Mass/volume] in Blood"
        },
        "valueQuantity": {
          "system": "http://unitsofmeasure.org",
          "value": 116.8,
          "unit": "mg/dL",
          "code": "mg/dL"
        },
        "referenceRange": [
          {
            "low": {
              "value": 70,
              "code": "mg/dL",
              "system": "http://unitsofmeasure.org"
            }
          },
          {
            "high": {
              "value": 99,
              "code": "mg/dL",
              "system": "http://unitsofmeasure.org"
            }
          }
        ],
        "interpretation": [
          {
            "coding": [
              {
                "code": "H",
                "system": "http://terminology.hl7.org/CodeSystem/v3-ObservationInterpretation",
                "display": "High"
              }
            ]
          }
        ],
        "text": {
          "status": "generated",
          "div": "<div xmlns=\"http://www.w3.org/1999/xhtml\"><table class=\"hl7__eu__lab__report\"><tr><th>Test</th><th>01-Mar-2016</th><th>Reference&#xA0;Range</th><th>Unit</th></tr><tr><td>Glucose [Mass/volume] in Blood</td><td>116.8</td><td>70 - 99</td><td>H</td><td>mg/dL</td></tr></table></div>"
        },
        "status": "final",
        "subject": {
          "reference": "urn:uuid:6505b442-8540-44ce-8676-1bc6e8bbb593",
          "display": "Roy Harrison"
        },
        "effectiveDateTime": "2016-03-01T02:49:43Z",
        "specimen": {
          "reference": "urn:uuid:18a5a67d-f3e6-40f7-bfc5-8aa64ec9a0a6"
        }
      }
    },
    {
      "fullUrl": "urn:uuid:b57a364c-5721-4a65-8e39-b8173ef1fea1",
      "resource": {
        "resourceType": "Observation",
        "id": "b57a364c-5721-4a65-8e39-b8173ef1fea1",
        "meta": {
          "profile": [
            "http://hl7.eu/fhir/laboratory/StructureDefinition/Observation-resultslab-eu-lab"
          ]
        },
        "performer": [
          {
            "display": "The Central European Lab"
          }
        ],
        "category": [
          {
            "coding": [
              {
                "system": "http://terminology.hl7.org/CodeSystem/observation-category",
                "code": "laboratory"
              }
            ]
          }
        ],
        "code": {
          "coding": [
            {
              "code": "6299-2",
              "system": "http://loinc.org",
              "display": "Urea nitrogen [Mass/volume] in Blood"
            }
          ],
          "text": "Urea nitrogen [Mass/volume] in Blood"
        },
        "valueQuantity": {
          "system": "http://unitsofmeasure.org",
          "value": 16.8,
          "unit": "mg/dL",
          "code": "mg/dL"
        },
        "referenceRange": [
          {
            "low": {
              "value": 7,
              "code": "mg/dL",
              "system": "http://unitsofmeasure.org"
            }
          },
          {
            "high": {
              "value": 50,
              "code": "mg/dL",
              "system": "http://unitsofmeasure.org"
            }
          }
        ],
        "text": {
          "status": "generated",
          "div": "<div xmlns=\"http://www.w3.org/1999/xhtml\"><table class=\"hl7__eu__lab__report\"><tr><th>Test</th><th>01-Mar-2016</th><th>Reference&#xA0;Range</th><th>Unit</th></tr><tr><td>Urea nitrogen [Mass/volume] in Blood</td><td>16.8</td><td>7 - 50</td><td></td><td>mg/dL</td></tr></table></div>"
        },
        "status": "final",
        "subject": {
          "reference": "urn:uuid:6505b442-8540-44ce-8676-1bc6e8bbb593",
          "display": "Roy Harrison"
        },
        "effectiveDateTime": "2016-03-01T02:49:43Z",
        "specimen": {
          "reference": "urn:uuid:18a5a67d-f3e6-40f7-bfc5-8aa64ec9a0a6"
        }
      }
    },
    {
      "fullUrl": "urn:uuid:b7bdd7df-aea2-41dd-aa14-3ab1cb26d0f4",
      "resource": {
        "resourceType": "Observation",
        "id": "b7bdd7df-aea2-41dd-aa14-3ab1cb26d0f4",
        "meta": {
          "profile": [
            "http://hl7.eu/fhir/laboratory/StructureDefinition/Observation-resultslab-eu-lab"
          ]
        },
        "performer": [
          {
            "display": "The Central European Lab"
          }
        ],
        "category": [
          {
            "coding": [
              {
                "system": "http://terminology.hl7.org/CodeSystem/observation-category",
                "code": "laboratory"
              }
            ]
          }
        ],
        "code": {
          "coding": [
            {
              "code": "38483-4",
              "system": "http://loinc.org",
              "display": "Creatinine [Mass/volume] in Blood"
            }
          ],
          "text": "Creatinine [Mass/volume] in Blood"
        },
        "valueQuantity": {
          "system": "http://unitsofmeasure.org",
          "value": 1.2,
          "unit": "mg/dL",
          "code": "mg/dL"
        },
        "referenceRange": [
          {
            "low": {
              "value": 0.9,
              "code": "mg/dL",
              "system": "http://unitsofmeasure.org"
            }
          },
          {
            "high": {
              "value": 1.3,
              "code": "mg/dL",
              "system": "http://unitsofmeasure.org"
            }
          }
        ],
        "text": {
          "status": "generated",
          "div": "<div xmlns=\"http://www.w3.org/1999/xhtml\"><table class=\"hl7__eu__lab__report\"><tr><th>Test</th><th>01-Mar-2016</th><th>Reference&#xA0;Range</th><th>Unit</th></tr><tr><td>Creatinine [Mass/volume] in Blood</td><td>1.2</td><td>0.9 - 1.3</td><td></td><td>mg/dL</td></tr></table></div>"
        },
        "status": "final",
        "subject": {
          "reference": "urn:uuid:6505b442-8540-44ce-8676-1bc6e8bbb593",
          "display": "Roy Harrison"
        },
        "effectiveDateTime": "2016-03-01T02:49:43Z",
        "specimen": {
          "reference": "urn:uuid:18a5a67d-f3e6-40f7-bfc5-8aa64ec9a0a6"
        }
      }
    },
    {
      "fullUrl": "urn:uuid:262c897e-ea49-4952-825c-bf018036e5ec",
      "resource": {
        "resourceType": "Observation",
        "id": "262c897e-ea49-4952-825c-bf018036e5ec",
        "meta": {
          "profile": [
            "http://hl7.eu/fhir/laboratory/StructureDefinition/Observation-resultslab-eu-lab"
          ]
        },
        "performer": [
          {
            "display": "The Central European Lab"
          }
        ],
        "category": [
          {
            "coding": [
              {
                "system": "http://terminology.hl7.org/CodeSystem/observation-category",
                "code": "laboratory"
              }
            ]
          }
        ],
        "code": {
          "coding": [
            {
              "code": "49765-1",
              "system": "http://loinc.org",
              "display": "Calcium [Mass/volume] in Blood"
            }
          ],
          "text": "Calcium [Mass/volume] in Blood"
        },
        "valueQuantity": {
          "system": "http://unitsofmeasure.org",
          "value": 10.1,
          "unit": "mg/dL",
          "code": "mg/dL"
        },
        "referenceRange": [
          {
            "low": {
              "value": 8.5,
              "code": "mg/dL",
              "system": "http://unitsofmeasure.org"
            }
          },
          {
            "high": {
              "value": 10.5,
              "code": "mg/dL",
              "system": "http://unitsofmeasure.org"
            }
          }
        ],
        "text": {
          "status": "generated",
          "div": "<div xmlns=\"http://www.w3.org/1999/xhtml\"><table class=\"hl7__eu__lab__report\"><tr><th>Test</th><th>01-Mar-2016</th><th>Reference&#xA0;Range</th><th>Unit</th></tr><tr><td>Calcium [Mass/volume] in Blood</td><td>10.1</td><td>8.5 - 10.5</td><td></td><td>mg/dL</td></tr></table></div>"
        },
        "status": "final",
        "subject": {
          "reference": "urn:uuid:6505b442-8540-44ce-8676-1bc6e8bbb593",
          "display": "Roy Harrison"
        },
        "effectiveDateTime": "2016-03-01T02:49:43Z",
        "specimen": {
          "reference": "urn:uuid:18a5a67d-f3e6-40f7-bfc5-8aa64ec9a0a6"
        }
      }
    },
    {
      "fullUrl": "urn:uuid:a357e8cd-9bbb-4fd1-8805-560354e6eb21",
      "resource": {
        "resourceType": "Observation",
        "id": "a357e8cd-9bbb-4fd1-8805-560354e6eb21",
        "meta": {
          "profile": [
            "http://hl7.eu/fhir/laboratory/StructureDefinition/Observation-resultslab-eu-lab"
          ]
        },
        "performer": [
          {
            "display": "The Central European Lab"
          }
        ],
        "category": [
          {
            "coding": [
              {
                "system": "http://terminology.hl7.org/CodeSystem/observation-category",
                "code": "laboratory"
              }
            ]
          }
        ],
        "code": {
          "coding": [
            {
              "code": "2947-0",
              "system": "http://loinc.org",
              "display": "Sodium [Moles/volume] in Blood"
            }
          ],
          "text": "Sodium [Moles/volume] in Blood"
        },
        "valueQuantity": {
          "system": "http://unitsofmeasure.org",
          "value": 136.3,
          "unit": "mmol/L",
          "code": "mmol/L"
        },
        "referenceRange": [
          {
            "low": {
              "value": 135,
              "code": "mmol/L",
              "system": "http://unitsofmeasure.org"
            }
          },
          {
            "high": {
              "value": 145,
              "code": "mmol/L",
              "system": "http://unitsofmeasure.org"
            }
          }
        ],
        "text": {
          "status": "generated",
          "div": "<div xmlns=\"http://www.w3.org/1999/xhtml\"><table class=\"hl7__eu__lab__report\"><tr><th>Test</th><th>01-Mar-2016</th><th>Reference&#xA0;Range</th><th>Unit</th></tr><tr><td>Sodium [Moles/volume] in Blood</td><td>136.3</td><td>135 - 145</td><td></td><td>mmol/L</td></tr></table></div>"
        },
        "status": "final",
        "subject": {
          "reference": "urn:uuid:6505b442-8540-44ce-8676-1bc6e8bbb593",
          "display": "Roy Harrison"
        },
        "effectiveDateTime": "2016-03-01T02:49:43Z",
        "specimen": {
          "reference": "urn:uuid:18a5a67d-f3e6-40f7-bfc5-8aa64ec9a0a6"
        }
      }
    },
    {
      "fullUrl": "urn:uuid:afb68a6a-680c-4388-92bb-df93d0cd646e",
      "resource": {
        "resourceType": "Observation",
        "id": "afb68a6a-680c-4388-92bb-df93d0cd646e",
        "meta": {
          "profile": [
            "http://hl7.eu/fhir/laboratory/StructureDefinition/Observation-resultslab-eu-lab"
          ]
        },
        "performer": [
          {
            "display": "The Central European Lab"
          }
        ],
        "category": [
          {
            "coding": [
              {
                "system": "http://terminology.hl7.org/CodeSystem/observation-category",
                "code": "laboratory"
              }
            ]
          }
        ],
        "code": {
          "coding": [
            {
              "code": "6298-4",
              "system": "http://loinc.org",
              "display": "Potassium [Moles/volume] in Blood"
            }
          ],
          "text": "Potassium [Moles/volume] in Blood"
        },
        "valueQuantity": {
          "system": "http://unitsofmeasure.org",
          "value": 4,
          "unit": "mmol/L",
          "code": "mmol/L"
        },
        "referenceRange": [
          {
            "low": {
              "value": 3.5,
              "code": "mmol/L",
              "system": "http://unitsofmeasure.org"
            }
          },
          {
            "high": {
              "value": 5.1,
              "code": "mmol/L",
              "system": "http://unitsofmeasure.org"
            }
          }
        ],
        "text": {
          "status": "generated",
          "div": "<div xmlns=\"http://www.w3.org/1999/xhtml\"><table class=\"hl7__eu__lab__report\"><tr><th>Test</th><th>01-Mar-2016</th><th>Reference&#xA0;Range</th><th>Unit</th></tr><tr><td>Potassium [Moles/volume] in Blood</td><td>4.0</td><td>3.5 - 5.1</td><td></td><td>mmol/L</td></tr></table></div>"
        },
        "status": "final",
        "subject": {
          "reference": "urn:uuid:6505b442-8540-44ce-8676-1bc6e8bbb593",
          "display": "Roy Harrison"
        },
        "effectiveDateTime": "2016-03-01T02:49:43Z",
        "specimen": {
          "reference": "urn:uuid:18a5a67d-f3e6-40f7-bfc5-8aa64ec9a0a6"
        }
      }
    },
    {
      "fullUrl": "urn:uuid:885f4aed-1c26-4cb0-932a-ac64ea9a37b3",
      "resource": {
        "resourceType": "Observation",
        "id": "885f4aed-1c26-4cb0-932a-ac64ea9a37b3",
        "meta": {
          "profile": [
            "http://hl7.eu/fhir/laboratory/StructureDefinition/Observation-resultslab-eu-lab"
          ]
        },
        "performer": [
          {
            "display": "The Central European Lab"
          }
        ],
        "category": [
          {
            "coding": [
              {
                "system": "http://terminology.hl7.org/CodeSystem/observation-category",
                "code": "laboratory"
              }
            ]
          }
        ],
        "code": {
          "coding": [
            {
              "code": "2069-3",
              "system": "http://loinc.org",
              "display": "Chloride [Moles/volume] in Blood"
            }
          ],
          "text": "Chloride [Moles/volume] in Blood"
        },
        "valueQuantity": {
          "system": "http://unitsofmeasure.org",
          "value": 107.5,
          "unit": "mmol/L",
          "code": "mmol/L"
        },
        "referenceRange": [
          {
            "low": {
              "value": 98,
              "code": "mmol/L",
              "system": "http://unitsofmeasure.org"
            }
          },
          {
            "high": {
              "value": 114,
              "code": "mmol/L",
              "system": "http://unitsofmeasure.org"
            }
          }
        ],
        "text": {
          "status": "generated",
          "div": "<div xmlns=\"http://www.w3.org/1999/xhtml\"><table class=\"hl7__eu__lab__report\"><tr><th>Test</th><th>01-Mar-2016</th><th>Reference&#xA0;Range</th><th>Unit</th></tr><tr><td>Chloride [Moles/volume] in Blood</td><td>107.5</td><td>98 - 114</td><td></td><td>mmol/L</td></tr></table></div>"
        },
        "status": "final",
        "subject": {
          "reference": "urn:uuid:6505b442-8540-44ce-8676-1bc6e8bbb593",
          "display": "Roy Harrison"
        },
        "effectiveDateTime": "2016-03-01T02:49:43Z",
        "specimen": {
          "reference": "urn:uuid:18a5a67d-f3e6-40f7-bfc5-8aa64ec9a0a6"
        }
      }
    },
    {
      "fullUrl": "urn:uuid:e8010dae-94e3-4b84-a39e-39bf961984ca",
      "resource": {
        "resourceType": "Observation",
        "id": "e8010dae-94e3-4b84-a39e-39bf961984ca",
        "meta": {
          "profile": [
            "http://hl7.eu/fhir/laboratory/StructureDefinition/Observation-resultslab-eu-lab"
          ]
        },
        "performer": [
          {
            "display": "The Central European Lab"
          }
        ],
        "category": [
          {
            "coding": [
              {
                "system": "http://terminology.hl7.org/CodeSystem/observation-category",
                "code": "laboratory"
              }
            ]
          }
        ],
        "code": {
          "coding": [
            {
              "code": "20565-8",
              "system": "http://loinc.org",
              "display": "Carbon dioxide, total [Moles/volume] in Blood"
            }
          ],
          "text": "Carbon dioxide, total [Moles/volume] in Blood"
        },
        "valueQuantity": {
          "system": "http://unitsofmeasure.org",
          "value": 28.5,
          "unit": "mmol/L",
          "code": "mmol/L"
        },
        "referenceRange": [
          {
            "low": {
              "value": 22,
              "code": "mmol/L",
              "system": "http://unitsofmeasure.org"
            }
          },
          {
            "high": {
              "value": 32,
              "code": "mmol/L",
              "system": "http://unitsofmeasure.org"
            }
          }
        ],
        "text": {
          "status": "generated",
          "div": "<div xmlns=\"http://www.w3.org/1999/xhtml\"><table class=\"hl7__eu__lab__report\"><tr><th>Test</th><th>01-Mar-2016</th><th>Reference&#xA0;Range</th><th>Unit</th></tr><tr><td>Carbon dioxide, total [Moles/volume] in Blood</td><td>28.5</td><td>22 - 32</td><td></td><td>mmol/L</td></tr></table></div>"
        },
        "status": "final",
        "subject": {
          "reference": "urn:uuid:6505b442-8540-44ce-8676-1bc6e8bbb593",
          "display": "Roy Harrison"
        },
        "effectiveDateTime": "2016-03-01T02:49:43Z",
        "specimen": {
          "reference": "urn:uuid:18a5a67d-f3e6-40f7-bfc5-8aa64ec9a0a6"
        }
      }
    },
    {
      "fullUrl": "urn:uuid:288e8c77-8634-4336-af5d-fee6abcf6b07",
      "resource": {
        "resourceType": "Observation",
        "id": "288e8c77-8634-4336-af5d-fee6abcf6b07",
        "meta": {
          "profile": [
            "http://hl7.eu/fhir/laboratory/StructureDefinition/Observation-resultslab-eu-lab"
          ]
        },
        "performer": [
          {
            "display": "The Central European Lab"
          }
        ],
        "category": [
          {
            "coding": [
              {
                "system": "http://terminology.hl7.org/CodeSystem/observation-category",
                "code": "laboratory"
              }
            ]
          }
        ],
        "code": {
          "coding": [
            {
              "code": "2093-3",
              "system": "http://loinc.org",
              "display": "Cholesterol [Mass/volume] in Serum or Plasma"
            }
          ],
          "text": "Cholesterol [Mass/volume] in Serum or Plasma"
        },
        "valueQuantity": {
          "system": "http://unitsofmeasure.org",
          "value": 216.6,
          "unit": "mg/dL",
          "code": "mg/dL"
        },
        "referenceRange": [
          {
            "low": {
              "value": 125,
              "code": "mg/dL",
              "system": "http://unitsofmeasure.org"
            }
          },
          {
            "high": {
              "value": 200,
              "code": "mg/dL",
              "system": "http://unitsofmeasure.org"
            }
          }
        ],
        "interpretation": [
          {
            "coding": [
              {
                "code": "H",
                "system": "http://terminology.hl7.org/CodeSystem/v3-ObservationInterpretation",
                "display": "High"
              }
            ]
          }
        ],
        "text": {
          "status": "generated",
          "div": "<div xmlns=\"http://www.w3.org/1999/xhtml\"><table class=\"hl7__eu__lab__report\"><tr><th>Test</th><th>01-Mar-2016</th><th>Reference&#xA0;Range</th><th>Unit</th></tr><tr><td>Cholesterol [Mass/volume] in Serum or Plasma</td><td>216.6</td><td>125 - 200</td><td>H</td><td>mg/dL</td></tr></table></div>"
        },
        "status": "final",
        "subject": {
          "reference": "urn:uuid:6505b442-8540-44ce-8676-1bc6e8bbb593",
          "display": "Roy Harrison"
        },
        "effectiveDateTime": "2016-03-01T02:49:43Z",
        "specimen": {
          "reference": "urn:uuid:7abb6753-b731-44b5-b783-4e40b3bd2d0b"
        }
      }
    },
    {
      "fullUrl": "urn:uuid:9bc29a9c-28aa-4189-bf90-b8a7f35df3cc",
      "resource": {
        "resourceType": "Observation",
        "id": "9bc29a9c-28aa-4189-bf90-b8a7f35df3cc",
        "meta": {
          "profile": [
            "http://hl7.eu/fhir/laboratory/StructureDefinition/Observation-resultslab-eu-lab"
          ]
        },
        "performer": [
          {
            "display": "The Central European Lab"
          }
        ],
        "category": [
          {
            "coding": [
              {
                "system": "http://terminology.hl7.org/CodeSystem/observation-category",
                "code": "laboratory"
              }
            ]
          }
        ],
        "code": {
          "coding": [
            {
              "code": "2571-8",
              "system": "http://loinc.org",
              "display": "Triglyceride [Mass/volume] in Serum or Plasma"
            }
          ],
          "text": "Triglyceride [Mass/volume] in Serum or Plasma"
        },
        "valueQuantity": {
          "system": "http://unitsofmeasure.org",
          "value": 178.5,
          "unit": "mg/dL",
          "code": "mg/dL"
        },
        "referenceRange": [
          {
            "low": {
              "value": 0,
              "code": "mg/dL",
              "system": "http://unitsofmeasure.org"
            }
          },
          {
            "high": {
              "value": 150,
              "code": "mg/dL",
              "system": "http://unitsofmeasure.org"
            }
          }
        ],
        "interpretation": [
          {
            "coding": [
              {
                "code": "H",
                "system": "http://terminology.hl7.org/CodeSystem/v3-ObservationInterpretation",
                "display": "High"
              }
            ]
          }
        ],
        "text": {
          "status": "generated",
          "div": "<div xmlns=\"http://www.w3.org/1999/xhtml\"><table class=\"hl7__eu__lab__report\"><tr><th>Test</th><th>01-Mar-2016</th><th>Reference&#xA0;Range</th><th>Unit</th></tr><tr><td>Triglyceride [Mass/volume] in Serum or Plasma</td><td>178.5</td><td>0 - 150</td><td>H</td><td>mg/dL</td></tr></table></div>"
        },
        "status": "final",
        "subject": {
          "reference": "urn:uuid:6505b442-8540-44ce-8676-1bc6e8bbb593",
          "display": "Roy Harrison"
        },
        "effectiveDateTime": "2016-03-01T02:49:43Z",
        "specimen": {
          "reference": "urn:uuid:7abb6753-b731-44b5-b783-4e40b3bd2d0b"
        }
      }
    },
    {
      "fullUrl": "urn:uuid:3ed90e4c-dc87-44f5-a1d5-c0120f7c247d",
      "resource": {
        "resourceType": "Observation",
        "id": "3ed90e4c-dc87-44f5-a1d5-c0120f7c247d",
        "meta": {
          "profile": [
            "http://hl7.eu/fhir/laboratory/StructureDefinition/Observation-resultslab-eu-lab"
          ]
        },
        "performer": [
          {
            "display": "The Central European Lab"
          }
        ],
        "category": [
          {
            "coding": [
              {
                "system": "http://terminology.hl7.org/CodeSystem/observation-category",
                "code": "laboratory"
              }
            ]
          }
        ],
        "code": {
          "coding": [
            {
              "code": "18262-6",
              "system": "http://loinc.org",
              "display": "Cholesterol in LDL [Mass/volume] in Serum or Plasma by Direct assay"
            }
          ],
          "text": "Cholesterol in LDL [Mass/volume] in Serum or Plasma by Direct assay"
        },
        "valueQuantity": {
          "system": "http://unitsofmeasure.org",
          "value": 134.4,
          "unit": "mg/dL",
          "code": "mg/dL"
        },
        "referenceRange": [
          {
            "low": {
              "value": 0,
              "code": "mg/dL",
              "system": "http://unitsofmeasure.org"
            }
          },
          {
            "high": {
              "value": 130,
              "code": "mg/dL",
              "system": "http://unitsofmeasure.org"
            }
          }
        ],
        "interpretation": [
          {
            "coding": [
              {
                "code": "H",
                "system": "http://terminology.hl7.org/CodeSystem/v3-ObservationInterpretation",
                "display": "High"
              }
            ]
          }
        ],
        "text": {
          "status": "generated",
          "div": "<div xmlns=\"http://www.w3.org/1999/xhtml\"><table class=\"hl7__eu__lab__report\"><tr><th>Test</th><th>01-Mar-2016</th><th>Reference&#xA0;Range</th><th>Unit</th></tr><tr><td>Cholesterol in LDL [Mass/volume] in Serum or Plasma by Direct assay</td><td>134.4</td><td>0 - 130</td><td>H</td><td>mg/dL</td></tr></table></div>"
        },
        "status": "final",
        "subject": {
          "reference": "urn:uuid:6505b442-8540-44ce-8676-1bc6e8bbb593",
          "display": "Roy Harrison"
        },
        "effectiveDateTime": "2016-03-01T02:49:43Z",
        "specimen": {
          "reference": "urn:uuid:7abb6753-b731-44b5-b783-4e40b3bd2d0b"
        }
      }
    },
    {
      "fullUrl": "urn:uuid:c489a843-fbd7-4870-95a4-fcfc53473b8e",
      "resource": {
        "resourceType": "Observation",
        "id": "c489a843-fbd7-4870-95a4-fcfc53473b8e",
        "meta": {
          "profile": [
            "http://hl7.eu/fhir/laboratory/StructureDefinition/Observation-resultslab-eu-lab"
          ]
        },
        "performer": [
          {
            "display": "The Central European Lab"
          }
        ],
        "category": [
          {
            "coding": [
              {
                "system": "http://terminology.hl7.org/CodeSystem/observation-category",
                "code": "laboratory"
              }
            ]
          }
        ],
        "code": {
          "coding": [
            {
              "code": "2085-9",
              "system": "http://loinc.org",
              "display": "Cholesterol in HDL [Mass/volume] in Serum or Plasma"
            }
          ],
          "text": "Cholesterol in HDL [Mass/volume] in Serum or Plasma"
        },
        "valueQuantity": {
          "system": "http://unitsofmeasure.org",
          "value": 46.5,
          "unit": "mg/dL",
          "code": "mg/dL"
        },
        "referenceRange": [
          {
            "low": {
              "value": 40,
              "code": "mg/dL",
              "system": "http://unitsofmeasure.org"
            }
          },
          {
            "high": {
              "value": 60,
              "code": "mg/dL",
              "system": "http://unitsofmeasure.org"
            }
          }
        ],
        "text": {
          "status": "generated",
          "div": "<div xmlns=\"http://www.w3.org/1999/xhtml\"><table class=\"hl7__eu__lab__report\"><tr><th>Test</th><th>01-Mar-2016</th><th>Reference&#xA0;Range</th><th>Unit</th></tr><tr><td>Cholesterol in HDL [Mass/volume] in Serum or Plasma</td><td>46.5</td><td>40 - 60</td><td></td><td>mg/dL</td></tr></table></div>"
        },
        "status": "final",
        "subject": {
          "reference": "urn:uuid:6505b442-8540-44ce-8676-1bc6e8bbb593",
          "display": "Roy Harrison"
        },
        "effectiveDateTime": "2016-03-01T02:49:43Z",
        "specimen": {
          "reference": "urn:uuid:7abb6753-b731-44b5-b783-4e40b3bd2d0b"
        }
      }
    },
    {
      "fullUrl": "urn:uuid:37ef681a-b632-40a3-8a71-6c4e62269099",
      "resource": {
        "resourceType": "Observation",
        "id": "37ef681a-b632-40a3-8a71-6c4e62269099",
        "meta": {
          "profile": [
            "http://hl7.eu/fhir/laboratory/StructureDefinition/Observation-resultslab-eu-lab"
          ]
        },
        "performer": [
          {
            "display": "The Central European Lab"
          }
        ],
        "category": [
          {
            "coding": [
              {
                "system": "http://terminology.hl7.org/CodeSystem/observation-category",
                "code": "laboratory"
              }
            ]
          }
        ],
        "code": {
          "coding": [
            {
              "code": "14959-1",
              "system": "http://loinc.org",
              "display": "Microalbumin/Creatinine [Mass Ratio] in Urine"
            }
          ],
          "text": "Microalbumin/Creatinine [Mass Ratio] in Urine"
        },
        "valueQuantity": {
          "system": "http://unitsofmeasure.org",
          "value": 11.9,
          "unit": "mg/g",
          "code": "mg/g"
        },
        "referenceRange": [
          {
            "low": {
              "value": 0,
              "code": "mg/g",
              "system": "http://unitsofmeasure.org"
            }
          },
          {
            "high": {
              "value": 30,
              "code": "mg/g",
              "system": "http://unitsofmeasure.org"
            }
          }
        ],
        "text": {
          "status": "generated",
          "div": "<div xmlns=\"http://www.w3.org/1999/xhtml\"><table class=\"hl7__eu__lab__report\"><tr><th>Test</th><th>01-Mar-2016</th><th>Reference&#xA0;Range</th><th>Unit</th></tr><tr><td>Microalbumin/Creatinine [Mass Ratio] in Urine</td><td>11.9</td><td>0 - 30</td><td></td><td>mg/g</td></tr></table></div>"
        },
        "status": "final",
        "subject": {
          "reference": "urn:uuid:6505b442-8540-44ce-8676-1bc6e8bbb593",
          "display": "Roy Harrison"
        },
        "effectiveDateTime": "2016-03-01T02:49:43Z",
        "specimen": {
          "reference": "urn:uuid:3c0005c2-c3f8-41d7-b381-de1243c148e7"
        }
      }
    },
    {
      "fullUrl": "urn:uuid:92fe6cc5-b0d1-4357-b4f1-08965c031e2d",
      "resource": {
        "resourceType": "Observation",
        "id": "92fe6cc5-b0d1-4357-b4f1-08965c031e2d",
        "meta": {
          "profile": [
            "http://hl7.eu/fhir/laboratory/StructureDefinition/Observation-resultslab-eu-lab"
          ]
        },
        "performer": [
          {
            "display": "The Central European Lab"
          }
        ],
        "category": [
          {
            "coding": [
              {
                "system": "http://terminology.hl7.org/CodeSystem/observation-category",
                "code": "laboratory"
              }
            ]
          }
        ],
        "code": {
          "coding": [
            {
              "code": "6690-2",
              "system": "http://loinc.org",
              "display": "Leukocytes [#/volume] in Blood by Automated count"
            }
          ],
          "text": "Leukocytes [#/volume] in Blood by Automated count"
        },
        "valueQuantity": {
          "system": "http://unitsofmeasure.org",
          "value": 10.2,
          "unit": "10*3/uL",
          "code": "10*3/uL"
        },
        "referenceRange": [
          {
            "low": {
              "value": 3.4,
              "code": "10*3/uL",
              "system": "http://unitsofmeasure.org"
            }
          },
          {
            "high": {
              "value": 10.6,
              "code": "10*3/uL",
              "system": "http://unitsofmeasure.org"
            }
          }
        ],
        "text": {
          "status": "generated",
          "div": "<div xmlns=\"http://www.w3.org/1999/xhtml\"><table class=\"hl7__eu__lab__report\"><tr><th>Test</th><th>01-Mar-2016</th><th>Reference&#xA0;Range</th><th>Unit</th></tr><tr><td>Leukocytes [#/volume] in Blood by Automated count</td><td>10.2</td><td>3.4 - 10.6</td><td></td><td>10*3/uL</td></tr></table></div>"
        },
        "status": "final",
        "subject": {
          "reference": "urn:uuid:6505b442-8540-44ce-8676-1bc6e8bbb593",
          "display": "Roy Harrison"
        },
        "effectiveDateTime": "2016-03-01T02:49:43Z",
        "specimen": {
          "reference": "urn:uuid:18a5a67d-f3e6-40f7-bfc5-8aa64ec9a0a6"
        }
      }
    },
    {
      "fullUrl": "urn:uuid:48fe9e34-8bc2-490e-bee6-8a87eb731f30",
      "resource": {
        "resourceType": "Observation",
        "id": "48fe9e34-8bc2-490e-bee6-8a87eb731f30",
        "meta": {
          "profile": [
            "http://hl7.eu/fhir/laboratory/StructureDefinition/Observation-resultslab-eu-lab"
          ]
        },
        "performer": [
          {
            "display": "The Central European Lab"
          }
        ],
        "category": [
          {
            "coding": [
              {
                "system": "http://terminology.hl7.org/CodeSystem/observation-category",
                "code": "laboratory"
              }
            ]
          }
        ],
        "code": {
          "coding": [
            {
              "code": "789-8",
              "system": "http://loinc.org",
              "display": "Erythrocytes [#/volume] in Blood by Automated count"
            }
          ],
          "text": "Erythrocytes [#/volume] in Blood by Automated count"
        },
        "valueQuantity": {
          "system": "http://unitsofmeasure.org",
          "value": 4.4,
          "unit": "10*6/uL",
          "code": "10*6/uL"
        },
        "referenceRange": [
          {
            "low": {
              "value": 4.5,
              "code": "10*6/uL",
              "system": "http://unitsofmeasure.org"
            }
          },
          {
            "high": {
              "value": 6.2,
              "code": "10*6/uL",
              "system": "http://unitsofmeasure.org"
            }
          }
        ],
        "interpretation": [
          {
            "coding": [
              {
                "code": "L",
                "system": "http://terminology.hl7.org/CodeSystem/v3-ObservationInterpretation",
                "display": "Low"
              }
            ]
          }
        ],
        "text": {
          "status": "generated",
          "div": "<div xmlns=\"http://www.w3.org/1999/xhtml\"><table class=\"hl7__eu__lab__report\"><tr><th>Test</th><th>01-Mar-2016</th><th>Reference&#xA0;Range</th><th>Unit</th></tr><tr><td>Erythrocytes [#/volume] in Blood by Automated count</td><td>4.4</td><td>4.5 - 6.2</td><td>L</td><td>10*6/uL</td></tr></table></div>"
        },
        "status": "final",
        "subject": {
          "reference": "urn:uuid:6505b442-8540-44ce-8676-1bc6e8bbb593",
          "display": "Roy Harrison"
        },
        "effectiveDateTime": "2016-03-01T02:49:43Z",
        "specimen": {
          "reference": "urn:uuid:18a5a67d-f3e6-40f7-bfc5-8aa64ec9a0a6"
        }
      }
    },
    {
      "fullUrl": "urn:uuid:5685919a-e9e9-4d00-9c61-5b1f0a3337ec",
      "resource": {
        "resourceType": "Observation",
        "id": "5685919a-e9e9-4d00-9c61-5b1f0a3337ec",
        "meta": {
          "profile": [
            "http://hl7.eu/fhir/laboratory/StructureDefinition/Observation-resultslab-eu-lab"
          ]
        },
        "performer": [
          {
            "display": "The Central European Lab"
          }
        ],
        "category": [
          {
            "coding": [
              {
                "system": "http://terminology.hl7.org/CodeSystem/observation-category",
                "code": "laboratory"
              }
            ]
          }
        ],
        "code": {
          "coding": [
            {
              "code": "718-7",
              "system": "http://loinc.org",
              "display": "Hemoglobin [Mass/volume] in Blood"
            }
          ],
          "text": "Hemoglobin [Mass/volume] in Blood"
        },
        "valueQuantity": {
          "system": "http://unitsofmeasure.org",
          "value": 17.1,
          "unit": "g/dL",
          "code": "g/dL"
        },
        "referenceRange": [
          {
            "low": {
              "value": 13.5,
              "code": "g/dL",
              "system": "http://unitsofmeasure.org"
            }
          },
          {
            "high": {
              "value": 17.5,
              "code": "g/dL",
              "system": "http://unitsofmeasure.org"
            }
          }
        ],
        "text": {
          "status": "generated",
          "div": "<div xmlns=\"http://www.w3.org/1999/xhtml\"><table class=\"hl7__eu__lab__report\"><tr><th>Test</th><th>01-Mar-2016</th><th>Reference&#xA0;Range</th><th>Unit</th></tr><tr><td>Hemoglobin [Mass/volume] in Blood</td><td>17.1</td><td>13.5 - 17.5</td><td></td><td>g/dL</td></tr></table></div>"
        },
        "status": "final",
        "subject": {
          "reference": "urn:uuid:6505b442-8540-44ce-8676-1bc6e8bbb593",
          "display": "Roy Harrison"
        },
        "effectiveDateTime": "2016-03-01T02:49:43Z",
        "specimen": {
          "reference": "urn:uuid:18a5a67d-f3e6-40f7-bfc5-8aa64ec9a0a6"
        }
      }
    },
    {
      "fullUrl": "urn:uuid:74971cf1-e4b0-42b3-accf-199a6a098c19",
      "resource": {
        "resourceType": "Observation",
        "id": "74971cf1-e4b0-42b3-accf-199a6a098c19",
        "meta": {
          "profile": [
            "http://hl7.eu/fhir/laboratory/StructureDefinition/Observation-resultslab-eu-lab"
          ]
        },
        "performer": [
          {
            "display": "The Central European Lab"
          }
        ],
        "category": [
          {
            "coding": [
              {
                "system": "http://terminology.hl7.org/CodeSystem/observation-category",
                "code": "laboratory"
              }
            ]
          }
        ],
        "code": {
          "coding": [
            {
              "code": "4544-3",
              "system": "http://loinc.org",
              "display": "Hematocrit [Volume Fraction] of Blood by Automated count"
            }
          ],
          "text": "Hematocrit [Volume Fraction] of Blood by Automated count"
        },
        "valueQuantity": {
          "system": "http://unitsofmeasure.org",
          "value": 44.4,
          "unit": "%",
          "code": "%"
        },
        "referenceRange": [
          {
            "low": {
              "value": 38,
              "code": "%",
              "system": "http://unitsofmeasure.org"
            }
          },
          {
            "high": {
              "value": 50,
              "code": "%",
              "system": "http://unitsofmeasure.org"
            }
          }
        ],
        "text": {
          "status": "generated",
          "div": "<div xmlns=\"http://www.w3.org/1999/xhtml\"><table class=\"hl7__eu__lab__report\"><tr><th>Test</th><th>01-Mar-2016</th><th>Reference&#xA0;Range</th><th>Unit</th></tr><tr><td>Hematocrit [Volume Fraction] of Blood by Automated count</td><td>44.4</td><td>38 - 50</td><td></td><td>%</td></tr></table></div>"
        },
        "status": "final",
        "subject": {
          "reference": "urn:uuid:6505b442-8540-44ce-8676-1bc6e8bbb593",
          "display": "Roy Harrison"
        },
        "effectiveDateTime": "2016-03-01T02:49:43Z",
        "specimen": {
          "reference": "urn:uuid:18a5a67d-f3e6-40f7-bfc5-8aa64ec9a0a6"
        }
      }
    },
    {
      "fullUrl": "urn:uuid:6cca8fd8-a6c6-4cbf-a928-a11642f3404d",
      "resource": {
        "resourceType": "Observation",
        "id": "6cca8fd8-a6c6-4cbf-a928-a11642f3404d",
        "meta": {
          "profile": [
            "http://hl7.eu/fhir/laboratory/StructureDefinition/Observation-resultslab-eu-lab"
          ]
        },
        "performer": [
          {
            "display": "The Central European Lab"
          }
        ],
        "category": [
          {
            "coding": [
              {
                "system": "http://terminology.hl7.org/CodeSystem/observation-category",
                "code": "laboratory"
              }
            ]
          }
        ],
        "code": {
          "coding": [
            {
              "code": "787-2",
              "system": "http://loinc.org",
              "display": "MCV [Entitic volume] by Automated count"
            }
          ],
          "text": "MCV [Entitic volume] by Automated count"
        },
        "valueQuantity": {
          "system": "http://unitsofmeasure.org",
          "value": 92.6,
          "unit": "fL",
          "code": "fL"
        },
        "referenceRange": [
          {
            "low": {
              "value": 80,
              "code": "fL",
              "system": "http://unitsofmeasure.org"
            }
          },
          {
            "high": {
              "value": 105,
              "code": "fL",
              "system": "http://unitsofmeasure.org"
            }
          }
        ],
        "text": {
          "status": "generated",
          "div": "<div xmlns=\"http://www.w3.org/1999/xhtml\"><table class=\"hl7__eu__lab__report\"><tr><th>Test</th><th>01-Mar-2016</th><th>Reference&#xA0;Range</th><th>Unit</th></tr><tr><td>MCV [Entitic volume] by Automated count</td><td>92.6</td><td>80 - 105</td><td></td><td>fL</td></tr></table></div>"
        },
        "status": "final",
        "subject": {
          "reference": "urn:uuid:6505b442-8540-44ce-8676-1bc6e8bbb593",
          "display": "Roy Harrison"
        },
        "effectiveDateTime": "2016-03-01T02:49:43Z",
        "specimen": {
          "reference": "urn:uuid:18a5a67d-f3e6-40f7-bfc5-8aa64ec9a0a6"
        }
      }
    },
    {
      "fullUrl": "urn:uuid:03cd1060-0d97-4ba6-87ed-3aea0704b49c",
      "resource": {
        "resourceType": "Observation",
        "id": "03cd1060-0d97-4ba6-87ed-3aea0704b49c",
        "meta": {
          "profile": [
            "http://hl7.eu/fhir/laboratory/StructureDefinition/Observation-resultslab-eu-lab"
          ]
        },
        "performer": [
          {
            "display": "The Central European Lab"
          }
        ],
        "category": [
          {
            "coding": [
              {
                "system": "http://terminology.hl7.org/CodeSystem/observation-category",
                "code": "laboratory"
              }
            ]
          }
        ],
        "code": {
          "coding": [
            {
              "code": "785-6",
              "system": "http://loinc.org",
              "display": "MCH [Entitic mass] by Automated count"
            }
          ],
          "text": "MCH [Entitic mass] by Automated count"
        },
        "valueQuantity": {
          "system": "http://unitsofmeasure.org",
          "value": 32.8,
          "unit": "pg",
          "code": "pg"
        },
        "referenceRange": [
          {
            "low": {
              "value": 27,
              "code": "pg",
              "system": "http://unitsofmeasure.org"
            }
          },
          {
            "high": {
              "value": 34,
              "code": "pg",
              "system": "http://unitsofmeasure.org"
            }
          }
        ],
        "text": {
          "status": "generated",
          "div": "<div xmlns=\"http://www.w3.org/1999/xhtml\"><table class=\"hl7__eu__lab__report\"><tr><th>Test</th><th>01-Mar-2016</th><th>Reference&#xA0;Range</th><th>Unit</th></tr><tr><td>MCH [Entitic mass] by Automated count</td><td>32.8</td><td>27 - 34</td><td></td><td>pg</td></tr></table></div>"
        },
        "status": "final",
        "subject": {
          "reference": "urn:uuid:6505b442-8540-44ce-8676-1bc6e8bbb593",
          "display": "Roy Harrison"
        },
        "effectiveDateTime": "2016-03-01T02:49:43Z",
        "specimen": {
          "reference": "urn:uuid:18a5a67d-f3e6-40f7-bfc5-8aa64ec9a0a6"
        }
      }
    },
    {
      "fullUrl": "urn:uuid:d3bc3bf2-eb7d-4e3d-8b3d-05d28ec80295",
      "resource": {
        "resourceType": "Observation",
        "id": "d3bc3bf2-eb7d-4e3d-8b3d-05d28ec80295",
        "meta": {
          "profile": [
            "http://hl7.eu/fhir/laboratory/StructureDefinition/Observation-resultslab-eu-lab"
          ]
        },
        "performer": [
          {
            "display": "The Central European Lab"
          }
        ],
        "category": [
          {
            "coding": [
              {
                "system": "http://terminology.hl7.org/CodeSystem/observation-category",
                "code": "laboratory"
              }
            ]
          }
        ],
        "code": {
          "coding": [
            {
              "code": "786-4",
              "system": "http://loinc.org",
              "display": "MCHC [Mass/volume] by Automated count"
            }
          ],
          "text": "MCHC [Mass/volume] by Automated count"
        },
        "valueQuantity": {
          "system": "http://unitsofmeasure.org",
          "value": 33.1,
          "unit": "g/dL",
          "code": "g/dL"
        },
        "referenceRange": [
          {
            "low": {
              "value": 31.5,
              "code": "g/dL",
              "system": "http://unitsofmeasure.org"
            }
          },
          {
            "high": {
              "value": 36,
              "code": "g/dL",
              "system": "http://unitsofmeasure.org"
            }
          }
        ],
        "text": {
          "status": "generated",
          "div": "<div xmlns=\"http://www.w3.org/1999/xhtml\"><table class=\"hl7__eu__lab__report\"><tr><th>Test</th><th>01-Mar-2016</th><th>Reference&#xA0;Range</th><th>Unit</th></tr><tr><td>MCHC [Mass/volume] by Automated count</td><td>33.1</td><td>31.5 - 36</td><td></td><td>g/dL</td></tr></table></div>"
        },
        "status": "final",
        "subject": {
          "reference": "urn:uuid:6505b442-8540-44ce-8676-1bc6e8bbb593",
          "display": "Roy Harrison"
        },
        "effectiveDateTime": "2016-03-01T02:49:43Z",
        "specimen": {
          "reference": "urn:uuid:18a5a67d-f3e6-40f7-bfc5-8aa64ec9a0a6"
        }
      }
    },
    {
      "fullUrl": "urn:uuid:8268dc9c-5ab4-4eb4-92a5-25044e34023e",
      "resource": {
        "resourceType": "Observation",
        "id": "8268dc9c-5ab4-4eb4-92a5-25044e34023e",
        "meta": {
          "profile": [
            "http://hl7.eu/fhir/laboratory/StructureDefinition/Observation-resultslab-eu-lab"
          ]
        },
        "performer": [
          {
            "display": "The Central European Lab"
          }
        ],
        "category": [
          {
            "coding": [
              {
                "system": "http://terminology.hl7.org/CodeSystem/observation-category",
                "code": "laboratory"
              }
            ]
          }
        ],
        "code": {
          "coding": [
            {
              "code": "21000-5",
              "system": "http://loinc.org",
              "display": "Erythrocyte distribution width [Entitic volume] by Automated count"
            }
          ],
          "text": "Erythrocyte distribution width [Entitic volume] by Automated count"
        },
        "valueQuantity": {
          "system": "http://unitsofmeasure.org",
          "value": 41.7,
          "unit": "fL",
          "code": "fL"
        },
        "referenceRange": [
          {
            "low": {
              "value": 36,
              "code": "fL",
              "system": "http://unitsofmeasure.org"
            }
          },
          {
            "high": {
              "value": 55,
              "code": "fL",
              "system": "http://unitsofmeasure.org"
            }
          }
        ],
        "text": {
          "status": "generated",
          "div": "<div xmlns=\"http://www.w3.org/1999/xhtml\"><table class=\"hl7__eu__lab__report\"><tr><th>Test</th><th>01-Mar-2016</th><th>Reference&#xA0;Range</th><th>Unit</th></tr><tr><td>Erythrocyte distribution width [Entitic volume] by Automated count</td><td>41.7</td><td>36 - 55</td><td></td><td>fL</td></tr></table></div>"
        },
        "status": "final",
        "subject": {
          "reference": "urn:uuid:6505b442-8540-44ce-8676-1bc6e8bbb593",
          "display": "Roy Harrison"
        },
        "effectiveDateTime": "2016-03-01T02:49:43Z",
        "specimen": {
          "reference": "urn:uuid:18a5a67d-f3e6-40f7-bfc5-8aa64ec9a0a6"
        }
      }
    },
    {
      "fullUrl": "urn:uuid:bd1af12e-1604-4207-9b78-2e53b5b0f8d9",
      "resource": {
        "resourceType": "Observation",
        "id": "bd1af12e-1604-4207-9b78-2e53b5b0f8d9",
        "meta": {
          "profile": [
            "http://hl7.eu/fhir/laboratory/StructureDefinition/Observation-resultslab-eu-lab"
          ]
        },
        "performer": [
          {
            "display": "The Central European Lab"
          }
        ],
        "category": [
          {
            "coding": [
              {
                "system": "http://terminology.hl7.org/CodeSystem/observation-category",
                "code": "laboratory"
              }
            ]
          }
        ],
        "code": {
          "coding": [
            {
              "code": "777-3",
              "system": "http://loinc.org",
              "display": "Platelets [#/volume] in Blood by Automated count"
            }
          ],
          "text": "Platelets [#/volume] in Blood by Automated count"
        },
        "valueQuantity": {
          "system": "http://unitsofmeasure.org",
          "value": 178.6,
          "unit": "10*3/uL",
          "code": "10*3/uL"
        },
        "referenceRange": [
          {
            "low": {
              "value": 150,
              "code": "10*3/uL",
              "system": "http://unitsofmeasure.org"
            }
          },
          {
            "high": {
              "value": 450,
              "code": "10*3/uL",
              "system": "http://unitsofmeasure.org"
            }
          }
        ],
        "text": {
          "status": "generated",
          "div": "<div xmlns=\"http://www.w3.org/1999/xhtml\"><table class=\"hl7__eu__lab__report\"><tr><th>Test</th><th>01-Mar-2016</th><th>Reference&#xA0;Range</th><th>Unit</th></tr><tr><td>Platelets [#/volume] in Blood by Automated count</td><td>178.6</td><td>150 - 450</td><td></td><td>10*3/uL</td></tr></table></div>"
        },
        "status": "final",
        "subject": {
          "reference": "urn:uuid:6505b442-8540-44ce-8676-1bc6e8bbb593",
          "display": "Roy Harrison"
        },
        "effectiveDateTime": "2016-03-01T02:49:43Z",
        "specimen": {
          "reference": "urn:uuid:18a5a67d-f3e6-40f7-bfc5-8aa64ec9a0a6"
        }
      }
    },
    {
      "fullUrl": "urn:uuid:42d0d055-88c0-40e7-aa09-5045871907e8",
      "resource": {
        "resourceType": "Observation",
        "id": "42d0d055-88c0-40e7-aa09-5045871907e8",
        "meta": {
          "profile": [
            "http://hl7.eu/fhir/laboratory/StructureDefinition/Observation-resultslab-eu-lab"
          ]
        },
        "performer": [
          {
            "display": "The Central European Lab"
          }
        ],
        "category": [
          {
            "coding": [
              {
                "system": "http://terminology.hl7.org/CodeSystem/observation-category",
                "code": "laboratory"
              }
            ]
          }
        ],
        "code": {
          "coding": [
            {
              "code": "32207-3",
              "system": "http://loinc.org",
              "display": "Platelet distribution width [Entitic volume] in Blood by Automated count"
            }
          ],
          "text": "Platelet distribution width [Entitic volume] in Blood by Automated count"
        },
        "valueQuantity": {
          "system": "http://unitsofmeasure.org",
          "value": 243.5,
          "unit": "fL",
          "code": "fL"
        },
        "referenceRange": [
          {
            "low": {
              "value": 13.4,
              "code": "fL",
              "system": "http://unitsofmeasure.org"
            }
          },
          {
            "high": {
              "value": 17.4,
              "code": "fL",
              "system": "http://unitsofmeasure.org"
            }
          }
        ],
        "interpretation": [
          {
            "coding": [
              {
                "code": "H",
                "system": "http://terminology.hl7.org/CodeSystem/v3-ObservationInterpretation",
                "display": "High"
              }
            ]
          }
        ],
        "text": {
          "status": "generated",
          "div": "<div xmlns=\"http://www.w3.org/1999/xhtml\"><table class=\"hl7__eu__lab__report\"><tr><th>Test</th><th>01-Mar-2016</th><th>Reference&#xA0;Range</th><th>Unit</th></tr><tr><td>Platelet distribution width [Entitic volume] in Blood by Automated count</td><td>243.5</td><td>13.4 - 17.4</td><td>H</td><td>fL</td></tr></table></div>"
        },
        "status": "final",
        "subject": {
          "reference": "urn:uuid:6505b442-8540-44ce-8676-1bc6e8bbb593",
          "display": "Roy Harrison"
        },
        "effectiveDateTime": "2016-03-01T02:49:43Z",
        "specimen": {
          "reference": "urn:uuid:18a5a67d-f3e6-40f7-bfc5-8aa64ec9a0a6"
        }
      }
    },
    {
      "fullUrl": "urn:uuid:107344b2-8f1d-4581-8713-d5a79179550d",
      "resource": {
        "resourceType": "Observation",
        "id": "107344b2-8f1d-4581-8713-d5a79179550d",
        "meta": {
          "profile": [
            "http://hl7.eu/fhir/laboratory/StructureDefinition/Observation-resultslab-eu-lab"
          ]
        },
        "performer": [
          {
            "display": "The Central European Lab"
          }
        ],
        "category": [
          {
            "coding": [
              {
                "system": "http://terminology.hl7.org/CodeSystem/observation-category",
                "code": "laboratory"
              }
            ]
          }
        ],
        "code": {
          "coding": [
            {
              "code": "32623-1",
              "system": "http://loinc.org",
              "display": "Platelet mean volume [Entitic volume] in Blood by Automated count"
            }
          ],
          "text": "Platelet mean volume [Entitic volume] in Blood by Automated count"
        },
        "valueQuantity": {
          "system": "http://unitsofmeasure.org",
          "value": 9.4,
          "unit": "fL",
          "code": "fL"
        },
        "referenceRange": [
          {
            "low": {
              "value": 9.8,
              "code": "fL",
              "system": "http://unitsofmeasure.org"
            }
          },
          {
            "high": {
              "value": 13.8,
              "code": "fL",
              "system": "http://unitsofmeasure.org"
            }
          }
        ],
        "interpretation": [
          {
            "coding": [
              {
                "code": "L",
                "system": "http://terminology.hl7.org/CodeSystem/v3-ObservationInterpretation",
                "display": "Low"
              }
            ]
          }
        ],
        "text": {
          "status": "generated",
          "div": "<div xmlns=\"http://www.w3.org/1999/xhtml\"><table class=\"hl7__eu__lab__report\"><tr><th>Test</th><th>01-Mar-2016</th><th>Reference&#xA0;Range</th><th>Unit</th></tr><tr><td>Platelet mean volume [Entitic volume] in Blood by Automated count</td><td>9.4</td><td>9.8 - 13.8</td><td>L</td><td>fL</td></tr></table></div>"
        },
        "status": "final",
        "subject": {
          "reference": "urn:uuid:6505b442-8540-44ce-8676-1bc6e8bbb593",
          "display": "Roy Harrison"
        },
        "effectiveDateTime": "2016-03-01T02:49:43Z",
        "specimen": {
          "reference": "urn:uuid:18a5a67d-f3e6-40f7-bfc5-8aa64ec9a0a6"
        }
      }
    },
    {
      "fullUrl": "urn:uuid:60e74f46-7b2b-4209-93ff-a4261343dfed",
      "resource": {
        "resourceType": "Device",
        "id": "60e74f46-7b2b-4209-93ff-a4261343dfed",
        "deviceName": [
          {
            "name": "SYNDERAI Synthetic Generator",
            "type": "manufacturer-name"
          }
        ],
        "version": [
          {
            "value": "5.0"
          }
        ],
        "text": {
          "status": "generated",
          "div": "<div xmlns=\"http://www.w3.org/1999/xhtml\">SYNDERAI Synthetic Generator v5.0</div>"
        },
        "status": "active\"",
        "distinctIdentifier": "synderai-generator-50",
        "manufacturer": "SYNDERAI Project"
      }
    },
    {
      "fullUrl": "urn:uuid:1cafbeec-25d9-4729-95f3-d70fa6c73d26",
      "resource": {
        "resourceType": "Provenance",
        "id": "1cafbeec-25d9-4729-95f3-d70fa6c73d26",
        "target": [
          {
            "reference": "Patient/6505b442-8540-44ce-8676-1bc6e8bbb593"
          },
          {
            "reference": "Bundle/ef2286aa-ba65-4aa5-a48b-eaf230b12fd2"
          },
          {
            "reference": "Composition/bec6ddde-34a5-4c82-8b92-2fb1652be301"
          },
          {
            "reference": "PractitionerRole/52c33c79-fbfd-4b8c-8166-154edb37e427"
          },
          {
            "reference": "Practitioner/5486f2d1-28f1-48b4-ab9f-6080942dcdff"
          },
          {
            "reference": "PractitionerRole/88ef9e84-d8d0-4c87-b98b-e5035ba48897"
          },
          {
            "reference": "Organization/8c8660ac-ab9c-4fe6-9bac-a5bb830e0c24"
          }
        ],
        "activity": {
          "text": "Synthetic Example Data Generation"
        },
        "policy": [
          "https://synderai.net/synderai-synthetic-data-policy"
        ],
        "agent": [
          {
            "type": {
              "text": "author"
            },
            "who": {
              "reference": "Device/60e74f46-7b2b-4209-93ff-a4261343dfed"
            }
          }
        ],
        "reason": [
          {
            "text": "Interoperability Testing and Training (non-clinical use)"
          }
        ],
        "text": {
          "status": "generated",
          "div": "<div xmlns=\"http://www.w3.org/1999/xhtml\">Provenance for SYNDERAI Synthetic Example Data Resource</div>"
        },
        "recorded": "2016-03-01T03:49:43Z"
      }
    },
    {
      "fullUrl": "urn:uuid:52c33c79-fbfd-4b8c-8166-154edb37e427",
      "resource": {
        "resourceType": "PractitionerRole",
        "id": "52c33c79-fbfd-4b8c-8166-154edb37e427",
        "meta": {
          "profile": [
            "http://hl7.eu/fhir/base/StructureDefinition/practitionerRole-eu"
          ]
        },
        "text": {
          "status": "generated",
          "div": "<div xmlns=\"http://www.w3.org/1999/xhtml\">Laboratory Role Id: 52c33c79-fbfd-4b8c-8166-154edb37e427</div>"
        },
        "practitioner": {
          "reference": "urn:uuid:5486f2d1-28f1-48b4-ab9f-6080942dcdff"
        }
      }
    },
    {
      "fullUrl": "urn:uuid:5486f2d1-28f1-48b4-ab9f-6080942dcdff",
      "resource": {
        "resourceType": "Practitioner",
        "id": "5486f2d1-28f1-48b4-ab9f-6080942dcdff",
        "meta": {
          "profile": [
            "http://hl7.eu/fhir/base/StructureDefinition/practitioner-eu"
          ]
        },
        "identifier": [
          {
            "assigner": {
              "display": "HL7 Europe"
            },
            "system": "urn:oid:2.16.840.1.113883.2.51.999",
            "value": "4ac8e69a-d248-4999-b110-0813153d2677"
          }
        ],
        "name": [
          {
            "prefix": [
              "dr"
            ],
            "given": [
              "Ex"
            ],
            "family": "Ample"
          }
        ],
        "address": [
          {
            "line": [
              "Laboratoire Central Europenne",
              "Boulevard du Jardin Botanique 32"
            ],
            "postalCode": "1000",
            "city": "Brussels",
            "country": "Belgium"
          }
        ],
        "text": {
          "status": "generated",
          "div": "<div xmlns=\"http://www.w3.org/1999/xhtml\">Laboratory: Laboratoire Central Europenne, 1000 Brussels, Belgium</div>"
        }
      }
    }
  ],
  "type": "document",
  "timestamp": "2016-03-01T03:49:43Z"
}
