{
  "resourceType": "Bundle",
  "id": "dca30e8d-6816-4fff-8f2e-67df6ce52730",
  "meta": {
    "profile": [
      "http://hl7.eu/fhir/laboratory/StructureDefinition/Bundle-eu-lab"
    ]
  },
  "identifier": {
    "assigner": {
      "display": "HL7 Europe"
    },
    "system": "urn:oid:2.16.840.1.113883.2.51.999",
    "value": "b2e13db8-8967-4537-8e5f-9c0720f619a3"
  },
  "entry": [
    {
      "fullUrl": "urn:uuid:7f02d830-d22b-40d4-b715-b65944a23602",
      "resource": {
        "resourceType": "Composition",
        "id": "7f02d830-d22b-40d4-b715-b65944a23602",
        "meta": {
          "profile": [
            "http://hl7.eu/fhir/laboratory/StructureDefinition/Composition-eu-lab"
          ]
        },
        "identifier": {
          "assigner": {
            "display": "HL7 Europe"
          },
          "system": "urn:oid:2.16.840.1.113883.2.51.999",
          "value": "2c839761-5acb-4b46-8b51-892002ef3747"
        },
        "author": [
          {
            "reference": "urn:uuid:ec0e9806-4793-4da7-9bbd-a9786baf3b7f"
          }
        ],
        "category": [
          {
            "coding": [
              {
                "code": "26436-6",
                "system": "http://loinc.org",
                "display": "Laboratory studies (set)"
              }
            ]
          }
        ],
        "type": {
          "coding": [
            {
              "code": "11502-2",
              "system": "http://loinc.org",
              "display": "Laboratory report"
            }
          ],
          "text": "Laboratory Report"
        },
        "section": [
          {
            "code": {
              "coding": [
                {
                  "code": "26436-6",
                  "system": "http://loinc.org",
                  "display": "Laboratory studies (set)"
                }
              ],
              "text": "Laboratory studies"
            },
            "section": [
              {
                "code": {
                  "coding": [
                    {
                      "code": "$18723-7",
                      "system": "http://loinc.org",
                      "display": "Hematology studies (set)"
                    }
                  ],
                  "text": "Hematology"
                },
                "entry": [
                  {
                    "reference": "urn:uuid:f48a970c-d5d9-4184-bb7a-88e3dee554bb"
                  },
                  {
                    "reference": "urn:uuid:2fc4413e-8fca-471e-8f59-830e2799c4fa"
                  },
                  {
                    "reference": "urn:uuid:5fde4881-6112-439b-ba5f-833118ba7d0e"
                  },
                  {
                    "reference": "urn:uuid:bbe890ec-d38c-4531-91a0-3b87e5156be9"
                  },
                  {
                    "reference": "urn:uuid:5921b6e1-6755-4803-9ef8-c67ec2ef50f5"
                  },
                  {
                    "reference": "urn:uuid:45e71fbd-4788-4cfb-8174-3715a164d070"
                  },
                  {
                    "reference": "urn:uuid:c6e1930c-0024-464e-ac23-fa38622865d2"
                  },
                  {
                    "reference": "urn:uuid:44324ad6-8eab-4b60-9784-97d5babcfa50"
                  },
                  {
                    "reference": "urn:uuid:8db58a8c-fc4d-46d7-b7df-b3bef270c34a"
                  },
                  {
                    "reference": "urn:uuid:4e76cbe2-ec4f-477b-ba1a-6eb1f7a4309c"
                  },
                  {
                    "reference": "urn:uuid:37c3a6d0-bc48-407c-9d8f-b1fe477aec09"
                  }
                ],
                "text": {
                  "status": "generated",
                  "div": "<div xmlns=\"http://www.w3.org/1999/xhtml\"><h3>Hematology</h3><table class=\"hl7__eu__lab__report\"><thead><tr><th>Test</th><th>01-AUG-2018</th><th>Reference&#xA0;Range</th><th>Unit</th></tr></thead><tbody><tr><td>Leukocytes [#/volume] in Blood by Automated count</td><td>9.7</td><td>3.5 - 10.5</td><td>10*3/uL</td></tr><tr><td>Erythrocytes [#/volume] in Blood by Automated count</td><td>4.6</td><td>4.5 - 5.5</td><td>10*6/uL</td></tr><tr><td>Hemoglobin [Mass/volume] in Blood</td><td>14.3</td><td>12 - 16</td><td>g/dL</td></tr><tr><td>Hematocrit [Volume Fraction] of Blood by Automated count</td><td>44.7</td><td>36 - 48</td><td>%</td></tr><tr><td>MCV [Entitic volume] by Automated count</td><td>83.1</td><td>82 - 98</td><td>fL</td></tr><tr><td>MCH [Entitic mass] by Automated count</td><td>32.6</td><td>27.5 - 34.5</td><td>pg</td></tr><tr><td>MCHC [Mass/volume] by Automated count</td><td>35.9</td><td>32 - 37</td><td>g/dL</td></tr><tr><td>Erythrocyte distribution width [Entitic volume] by Automated count</td><td>41.4</td><td>36 - 55</td><td>fL</td></tr><tr><td>Platelets [#/volume] in Blood by Automated count</td><td>204.8</td><td>150 - 450</td><td>10*3/uL</td></tr><tr><td>Platelet distribution width [Entitic volume] in Blood by Automated count</td><td><strong>319.3 H</strong></td><td>11 - 15</td><td>fL</td></tr><tr><td>Platelet mean volume [Entitic volume] in Blood by Automated count</td><td>9.6</td><td>7.2 - 13.8</td><td>fL</td></tr></tbody></table></div>"
                },
                "title": "Hematology"
              }
            ],
            "title": "Laboratory Report"
          },
          {
            "text": {
              "status": "generated",
              "div": "<div xmlns=\"http://www.w3.org/1999/xhtml\"><h3>Annotation</h3><table class=\"hl7__eu__lab__report\"><tr><th>Conclusion and Recommendations based on this report and previous findings known to us</th></tr><tr><td>All hematological parameters are within normal limits except for a markedly elevated platelet distribution width (PDW), which may indicate increased platelet size variability, possibly due to platelet activation or turnover. No evidence of anemia, leukocytosis, or thrombocytopenia. Correlate PDW finding clinically; if no symptoms or relevant history, this isolated abnormality is likely of limited significance.</td></tr></table></div>"
            },
            "code": {
              "coding": [
                {
                  "system": "http://loinc.org",
                  "code": "48767-8",
                  "display": "Annotation comment"
                }
              ]
            },
            "title": "Annotation comment"
          }
        ],
        "status": "final",
        "subject": {
          "reference": "urn:uuid:31c54370-af67-4d7d-b76e-bf0276acb886",
          "display": "Charlene Sharpe"
        },
        "date": "2018-08-01T02:49:39Z",
        "title": "Laboratory Report",
        "confidentiality": "N"
      }
    },
    {
      "fullUrl": "urn:uuid:2b917909-a798-4281-a5a1-7362260d968a",
      "resource": {
        "resourceType": "DiagnosticReport",
        "id": "2b917909-a798-4281-a5a1-7362260d968a",
        "meta": {
          "profile": [
            "http://hl7.eu/fhir/laboratory/StructureDefinition/DiagnosticReport-eu-lab"
          ]
        },
        "identifier": [
          {
            "assigner": {
              "display": "HL7 Europe"
            },
            "system": "urn:oid:2.16.840.1.113883.2.51.999",
            "value": "02d70f4e-46dd-4b50-bc11-83581a094efd"
          }
        ],
        "extension": [
          {
            "url": "http://hl7.org/fhir/5.0/StructureDefinition/extension-DiagnosticReport.composition",
            "valueReference": {
              "reference": "urn:uuid:2c839761-5acb-4b46-8b51-892002ef3747"
            }
          }
        ],
        "category": [
          {
            "coding": [
              {
                "code": "26436-6",
                "system": "http://loinc.org",
                "display": "Laboratory studies (set)"
              }
            ]
          }
        ],
        "specimen": [
          {
            "reference": "urn:uuid:140e7322-15d4-4886-8bcd-5033036bc0ce"
          },
          {
            "reference": "urn:uuid:140e7322-15d4-4886-8bcd-5033036bc0ce"
          }
        ],
        "result": [
          {
            "reference": "urn:uuid:f48a970c-d5d9-4184-bb7a-88e3dee554bb"
          },
          {
            "reference": "urn:uuid:2fc4413e-8fca-471e-8f59-830e2799c4fa"
          },
          {
            "reference": "urn:uuid:5fde4881-6112-439b-ba5f-833118ba7d0e"
          },
          {
            "reference": "urn:uuid:bbe890ec-d38c-4531-91a0-3b87e5156be9"
          },
          {
            "reference": "urn:uuid:5921b6e1-6755-4803-9ef8-c67ec2ef50f5"
          },
          {
            "reference": "urn:uuid:45e71fbd-4788-4cfb-8174-3715a164d070"
          },
          {
            "reference": "urn:uuid:c6e1930c-0024-464e-ac23-fa38622865d2"
          },
          {
            "reference": "urn:uuid:44324ad6-8eab-4b60-9784-97d5babcfa50"
          },
          {
            "reference": "urn:uuid:8db58a8c-fc4d-46d7-b7df-b3bef270c34a"
          },
          {
            "reference": "urn:uuid:4e76cbe2-ec4f-477b-ba1a-6eb1f7a4309c"
          },
          {
            "reference": "urn:uuid:37c3a6d0-bc48-407c-9d8f-b1fe477aec09"
          }
        ],
        "status": "registered",
        "code": {
          "coding": [
            {
              "code": "11502-2",
              "system": "http://loinc.org",
              "display": "Laboratory report"
            }
          ]
        },
        "subject": {
          "reference": "urn:uuid:31c54370-af67-4d7d-b76e-bf0276acb886",
          "display": "Charlene Sharpe"
        }
      }
    },
    {
      "fullUrl": "urn:uuid:31c54370-af67-4d7d-b76e-bf0276acb886",
      "resource": {
        "resourceType": "Patient",
        "id": "31c54370-af67-4d7d-b76e-bf0276acb886",
        "meta": {
          "security": [
            {
              "system": "http://terminology.hl7.org/CodeSystem/v3-ActReason",
              "code": "HTEST"
            },
            {
              "system": "http://terminology.hl7.org/CodeSystem/v3-ActReason",
              "code": "TRAIN"
            }
          ],
          "tag": [
            {
              "system": "https://synderai.net/fhir/CodeSystem/tags",
              "code": "synthetic",
              "display": "SYNDERAI Synthetic data"
            }
          ],
          "profile": [
            "http://hl7.eu/fhir/base/StructureDefinition/patient-eu-core"
          ]
        },
        "identifier": [
          {
            "type": {
              "coding": [
                {
                  "code": "PT",
                  "system": "http://terminology.hl7.org/CodeSystem/v2-0203"
                }
              ]
            },
            "system": "http://ec.europa.eu/identifier/eci",
            "value": "1398-333111-0"
          },
          {
            "type": {
              "coding": [
                {
                  "code": "MR",
                  "system": "http://terminology.hl7.org/CodeSystem/v2-0203"
                }
              ]
            },
            "system": "http://local.setting.eu/identifier",
            "value": "6fe0fe4a-b508-d942-a7a7-576f68360f0d"
          }
        ],
        "name": [
          {
            "family": "Sharpe"
          },
          {
            "given": [
              "Charlene"
            ]
          },
          {
            "text": "Charlene Sharpe"
          }
        ],
        "address": [
          {
            "line": [
              "Studio 63",
              "Jenkins dale"
            ],
            "use": "home",
            "type": "physical",
            "postalCode": "SW1A",
            "city": "London",
            "country": "United Kingdom"
          }
        ],
        "telecom": [
          {
            "system": "phone",
            "value": "+44289018242"
          }
        ],
        "extension": [
          {
            "url": "http://hl7.org/fhir/StructureDefinition/patient-nationality",
            "valueCodeableConcept": {
              "coding": [
                {
                  "code": "GB",
                  "system": "http://hl7.org/fhir/ValueSet/country"
                }
              ]
            }
          }
        ],
        "text": {
          "status": "generated",
          "div": "<div xmlns=\"http://www.w3.org/1999/xhtml\"><table class=\"hl7__ips\"><tr><td>Charlene Sharpe</td><td>female</td><td>20-Jun-1991</td></tr></table></div>"
        },
        "gender": "female",
        "birthDate": "1991-06-20"
      }
    },
    {
      "fullUrl": "urn:uuid:e497e3d3-728f-41e7-853a-cce00dd50bbe",
      "resource": {
        "resourceType": "ServiceRequest",
        "id": "e497e3d3-728f-41e7-853a-cce00dd50bbe",
        "meta": {
          "profile": [
            "http://hl7.eu/fhir/laboratory/StructureDefinition/ServiceRequest-eu-lab"
          ]
        },
        "identifier": [
          {
            "system": "http://example.org",
            "value": "2d852d4e-4a69-42b0-9de7-280ca315afab"
          }
        ],
        "specimen": [
          {
            "reference": "urn:uuid:140e7322-15d4-4886-8bcd-5033036bc0ce"
          }
        ],
        "status": "active",
        "intent": "order",
        "code": {
          "coding": [
            {
              "code": "108252007",
              "system": "http://snomed.info/sct",
              "display": "Laboratory procedure"
            }
          ]
        },
        "subject": {
          "reference": "urn:uuid:31c54370-af67-4d7d-b76e-bf0276acb886",
          "display": "Charlene Sharpe"
        },
        "requester": {
          "reference": "urn:uuid:42585a6d-446c-4182-85ff-f1bc01a0a05a"
        }
      }
    },
    {
      "fullUrl": "urn:uuid:42585a6d-446c-4182-85ff-f1bc01a0a05a",
      "resource": {
        "resourceType": "PractitionerRole",
        "id": "42585a6d-446c-4182-85ff-f1bc01a0a05a",
        "meta": {
          "profile": [
            "http://hl7.eu/fhir/base/StructureDefinition/practitionerRole-eu"
          ]
        },
        "text": {
          "status": "generated",
          "div": "<div xmlns=\"http://www.w3.org/1999/xhtml\">Provider Role Id: 42585a6d-446c-4182-85ff-f1bc01a0a05a</div>"
        },
        "organization": {
          "reference": "urn:uuid:fdeed8ea-2fdb-4ef7-9c53-f46c76e12972"
        }
      }
    },
    {
      "fullUrl": "urn:uuid:fdeed8ea-2fdb-4ef7-9c53-f46c76e12972",
      "resource": {
        "resourceType": "Organization",
        "id": "fdeed8ea-2fdb-4ef7-9c53-f46c76e12972",
        "meta": {
          "profile": [
            "http://hl7.eu/fhir/base/StructureDefinition/organization-eu"
          ]
        },
        "identifier": [
          {
            "assigner": {
              "display": "HL7 Europe"
            },
            "system": "urn:oid:2.16.840.1.113883.2.51.999",
            "value": "91ce930f-61cf-4b8f-9ea8-1cf30841967d"
          }
        ],
        "address": [
          {
            "city": "London",
            "postalCode": "SE1 7",
            "country": "United Kingdom"
          }
        ],
        "text": {
          "status": "generated",
          "div": "<div xmlns=\"http://www.w3.org/1999/xhtml\">Provider Organization: Evelina Children&#039;s Hospital</div>"
        },
        "name": "Evelina Children&#039;s Hospital"
      }
    },
    {
      "fullUrl": "urn:uuid:140e7322-15d4-4886-8bcd-5033036bc0ce",
      "resource": {
        "resourceType": "Specimen",
        "id": "140e7322-15d4-4886-8bcd-5033036bc0ce",
        "meta": {
          "profile": [
            "http://hl7.eu/fhir/laboratory/StructureDefinition/Specimen-eu-lab"
          ]
        },
        "collection": {
          "collectedDateTime": "2018-08-01"
        },
        "text": {
          "status": "generated",
          "div": "<div xmlns=\"http://www.w3.org/1999/xhtml\"><table class=\"hl7__eu__lab__report\"><tr><th>Specimen</th><th>Collection Date</th></tr><tr><td>Whole blood specimen (specimen)</td><td><span class=\"nb\">01-Aug-2018</span></td></tr></table></div>"
        },
        "type": {
          "coding": [
            {
              "code": "258580003",
              "system": "http://snomed.info/sct",
              "display": "Whole blood specimen (specimen)"
            }
          ]
        }
      }
    },
    {
      "fullUrl": "urn:uuid:140e7322-15d4-4886-8bcd-5033036bc0ce",
      "resource": {
        "resourceType": "Specimen",
        "id": "140e7322-15d4-4886-8bcd-5033036bc0ce",
        "meta": {
          "profile": [
            "http://hl7.eu/fhir/laboratory/StructureDefinition/Specimen-eu-lab"
          ]
        },
        "collection": {
          "collectedDateTime": "2018-08-01"
        },
        "text": {
          "status": "generated",
          "div": "<div xmlns=\"http://www.w3.org/1999/xhtml\"><table class=\"hl7__eu__lab__report\"><tr><th>Specimen</th><th>Collection Date</th></tr><tr><td>Whole blood specimen (specimen)</td><td><span class=\"nb\">01-Aug-2018</span></td></tr></table></div>"
        },
        "type": {
          "coding": [
            {
              "code": "258580003",
              "system": "http://snomed.info/sct",
              "display": "Whole blood specimen (specimen)"
            }
          ]
        }
      }
    },
    {
      "fullUrl": "urn:uuid:f48a970c-d5d9-4184-bb7a-88e3dee554bb",
      "resource": {
        "resourceType": "Observation",
        "id": "f48a970c-d5d9-4184-bb7a-88e3dee554bb",
        "meta": {
          "profile": [
            "http://hl7.eu/fhir/laboratory/StructureDefinition/Observation-resultslab-eu-lab"
          ]
        },
        "performer": [
          {
            "display": "The Central European Lab"
          }
        ],
        "category": [
          {
            "coding": [
              {
                "system": "http://terminology.hl7.org/CodeSystem/observation-category",
                "code": "laboratory"
              }
            ]
          }
        ],
        "code": {
          "coding": [
            {
              "code": "6690-2",
              "system": "http://loinc.org",
              "display": "Leukocytes [#/volume] in Blood by Automated count"
            }
          ],
          "text": "Leukocytes [#/volume] in Blood by Automated count"
        },
        "valueQuantity": {
          "system": "http://unitsofmeasure.org",
          "value": 9.7,
          "unit": "10*3/uL",
          "code": "10*3/uL"
        },
        "referenceRange": [
          {
            "low": {
              "value": 3.5,
              "code": "10*3/uL",
              "system": "http://unitsofmeasure.org"
            }
          },
          {
            "high": {
              "value": 10.5,
              "code": "10*3/uL",
              "system": "http://unitsofmeasure.org"
            }
          }
        ],
        "text": {
          "status": "generated",
          "div": "<div xmlns=\"http://www.w3.org/1999/xhtml\"><table class=\"hl7__eu__lab__report\"><tr><th>Test</th><th>01-Aug-2018</th><th>Reference&#xA0;Range</th><th>Unit</th></tr><tr><td>Leukocytes [#/volume] in Blood by Automated count</td><td>9.7</td><td>3.5 - 10.5</td><td></td><td>10*3/uL</td></tr></table></div>"
        },
        "status": "final",
        "subject": {
          "reference": "urn:uuid:31c54370-af67-4d7d-b76e-bf0276acb886",
          "display": "Charlene Sharpe"
        },
        "effectiveDateTime": "2018-08-01T00:49:39Z",
        "specimen": {
          "reference": "urn:uuid:140e7322-15d4-4886-8bcd-5033036bc0ce"
        }
      }
    },
    {
      "fullUrl": "urn:uuid:2fc4413e-8fca-471e-8f59-830e2799c4fa",
      "resource": {
        "resourceType": "Observation",
        "id": "2fc4413e-8fca-471e-8f59-830e2799c4fa",
        "meta": {
          "profile": [
            "http://hl7.eu/fhir/laboratory/StructureDefinition/Observation-resultslab-eu-lab"
          ]
        },
        "performer": [
          {
            "display": "The Central European Lab"
          }
        ],
        "category": [
          {
            "coding": [
              {
                "system": "http://terminology.hl7.org/CodeSystem/observation-category",
                "code": "laboratory"
              }
            ]
          }
        ],
        "code": {
          "coding": [
            {
              "code": "789-8",
              "system": "http://loinc.org",
              "display": "Erythrocytes [#/volume] in Blood by Automated count"
            }
          ],
          "text": "Erythrocytes [#/volume] in Blood by Automated count"
        },
        "valueQuantity": {
          "system": "http://unitsofmeasure.org",
          "value": 4.6,
          "unit": "10*6/uL",
          "code": "10*6/uL"
        },
        "referenceRange": [
          {
            "low": {
              "value": 4.5,
              "code": "10*6/uL",
              "system": "http://unitsofmeasure.org"
            }
          },
          {
            "high": {
              "value": 5.5,
              "code": "10*6/uL",
              "system": "http://unitsofmeasure.org"
            }
          }
        ],
        "text": {
          "status": "generated",
          "div": "<div xmlns=\"http://www.w3.org/1999/xhtml\"><table class=\"hl7__eu__lab__report\"><tr><th>Test</th><th>01-Aug-2018</th><th>Reference&#xA0;Range</th><th>Unit</th></tr><tr><td>Erythrocytes [#/volume] in Blood by Automated count</td><td>4.6</td><td>4.5 - 5.5</td><td></td><td>10*6/uL</td></tr></table></div>"
        },
        "status": "final",
        "subject": {
          "reference": "urn:uuid:31c54370-af67-4d7d-b76e-bf0276acb886",
          "display": "Charlene Sharpe"
        },
        "effectiveDateTime": "2018-08-01T00:49:39Z",
        "specimen": {
          "reference": "urn:uuid:140e7322-15d4-4886-8bcd-5033036bc0ce"
        }
      }
    },
    {
      "fullUrl": "urn:uuid:5fde4881-6112-439b-ba5f-833118ba7d0e",
      "resource": {
        "resourceType": "Observation",
        "id": "5fde4881-6112-439b-ba5f-833118ba7d0e",
        "meta": {
          "profile": [
            "http://hl7.eu/fhir/laboratory/StructureDefinition/Observation-resultslab-eu-lab"
          ]
        },
        "performer": [
          {
            "display": "The Central European Lab"
          }
        ],
        "category": [
          {
            "coding": [
              {
                "system": "http://terminology.hl7.org/CodeSystem/observation-category",
                "code": "laboratory"
              }
            ]
          }
        ],
        "code": {
          "coding": [
            {
              "code": "718-7",
              "system": "http://loinc.org",
              "display": "Hemoglobin [Mass/volume] in Blood"
            }
          ],
          "text": "Hemoglobin [Mass/volume] in Blood"
        },
        "valueQuantity": {
          "system": "http://unitsofmeasure.org",
          "value": 14.3,
          "unit": "g/dL",
          "code": "g/dL"
        },
        "referenceRange": [
          {
            "low": {
              "value": 12,
              "code": "g/dL",
              "system": "http://unitsofmeasure.org"
            }
          },
          {
            "high": {
              "value": 16,
              "code": "g/dL",
              "system": "http://unitsofmeasure.org"
            }
          }
        ],
        "text": {
          "status": "generated",
          "div": "<div xmlns=\"http://www.w3.org/1999/xhtml\"><table class=\"hl7__eu__lab__report\"><tr><th>Test</th><th>01-Aug-2018</th><th>Reference&#xA0;Range</th><th>Unit</th></tr><tr><td>Hemoglobin [Mass/volume] in Blood</td><td>14.3</td><td>12 - 16</td><td></td><td>g/dL</td></tr></table></div>"
        },
        "status": "final",
        "subject": {
          "reference": "urn:uuid:31c54370-af67-4d7d-b76e-bf0276acb886",
          "display": "Charlene Sharpe"
        },
        "effectiveDateTime": "2018-08-01T00:49:39Z",
        "specimen": {
          "reference": "urn:uuid:140e7322-15d4-4886-8bcd-5033036bc0ce"
        }
      }
    },
    {
      "fullUrl": "urn:uuid:bbe890ec-d38c-4531-91a0-3b87e5156be9",
      "resource": {
        "resourceType": "Observation",
        "id": "bbe890ec-d38c-4531-91a0-3b87e5156be9",
        "meta": {
          "profile": [
            "http://hl7.eu/fhir/laboratory/StructureDefinition/Observation-resultslab-eu-lab"
          ]
        },
        "performer": [
          {
            "display": "The Central European Lab"
          }
        ],
        "category": [
          {
            "coding": [
              {
                "system": "http://terminology.hl7.org/CodeSystem/observation-category",
                "code": "laboratory"
              }
            ]
          }
        ],
        "code": {
          "coding": [
            {
              "code": "4544-3",
              "system": "http://loinc.org",
              "display": "Hematocrit [Volume Fraction] of Blood by Automated count"
            }
          ],
          "text": "Hematocrit [Volume Fraction] of Blood by Automated count"
        },
        "valueQuantity": {
          "system": "http://unitsofmeasure.org",
          "value": 44.7,
          "unit": "%",
          "code": "%"
        },
        "referenceRange": [
          {
            "low": {
              "value": 36,
              "code": "%",
              "system": "http://unitsofmeasure.org"
            }
          },
          {
            "high": {
              "value": 48,
              "code": "%",
              "system": "http://unitsofmeasure.org"
            }
          }
        ],
        "text": {
          "status": "generated",
          "div": "<div xmlns=\"http://www.w3.org/1999/xhtml\"><table class=\"hl7__eu__lab__report\"><tr><th>Test</th><th>01-Aug-2018</th><th>Reference&#xA0;Range</th><th>Unit</th></tr><tr><td>Hematocrit [Volume Fraction] of Blood by Automated count</td><td>44.7</td><td>36 - 48</td><td></td><td>%</td></tr></table></div>"
        },
        "status": "final",
        "subject": {
          "reference": "urn:uuid:31c54370-af67-4d7d-b76e-bf0276acb886",
          "display": "Charlene Sharpe"
        },
        "effectiveDateTime": "2018-08-01T00:49:39Z",
        "specimen": {
          "reference": "urn:uuid:140e7322-15d4-4886-8bcd-5033036bc0ce"
        }
      }
    },
    {
      "fullUrl": "urn:uuid:5921b6e1-6755-4803-9ef8-c67ec2ef50f5",
      "resource": {
        "resourceType": "Observation",
        "id": "5921b6e1-6755-4803-9ef8-c67ec2ef50f5",
        "meta": {
          "profile": [
            "http://hl7.eu/fhir/laboratory/StructureDefinition/Observation-resultslab-eu-lab"
          ]
        },
        "performer": [
          {
            "display": "The Central European Lab"
          }
        ],
        "category": [
          {
            "coding": [
              {
                "system": "http://terminology.hl7.org/CodeSystem/observation-category",
                "code": "laboratory"
              }
            ]
          }
        ],
        "code": {
          "coding": [
            {
              "code": "787-2",
              "system": "http://loinc.org",
              "display": "MCV [Entitic volume] by Automated count"
            }
          ],
          "text": "MCV [Entitic volume] by Automated count"
        },
        "valueQuantity": {
          "system": "http://unitsofmeasure.org",
          "value": 83.1,
          "unit": "fL",
          "code": "fL"
        },
        "referenceRange": [
          {
            "low": {
              "value": 82,
              "code": "fL",
              "system": "http://unitsofmeasure.org"
            }
          },
          {
            "high": {
              "value": 98,
              "code": "fL",
              "system": "http://unitsofmeasure.org"
            }
          }
        ],
        "text": {
          "status": "generated",
          "div": "<div xmlns=\"http://www.w3.org/1999/xhtml\"><table class=\"hl7__eu__lab__report\"><tr><th>Test</th><th>01-Aug-2018</th><th>Reference&#xA0;Range</th><th>Unit</th></tr><tr><td>MCV [Entitic volume] by Automated count</td><td>83.1</td><td>82 - 98</td><td></td><td>fL</td></tr></table></div>"
        },
        "status": "final",
        "subject": {
          "reference": "urn:uuid:31c54370-af67-4d7d-b76e-bf0276acb886",
          "display": "Charlene Sharpe"
        },
        "effectiveDateTime": "2018-08-01T00:49:39Z",
        "specimen": {
          "reference": "urn:uuid:140e7322-15d4-4886-8bcd-5033036bc0ce"
        }
      }
    },
    {
      "fullUrl": "urn:uuid:45e71fbd-4788-4cfb-8174-3715a164d070",
      "resource": {
        "resourceType": "Observation",
        "id": "45e71fbd-4788-4cfb-8174-3715a164d070",
        "meta": {
          "profile": [
            "http://hl7.eu/fhir/laboratory/StructureDefinition/Observation-resultslab-eu-lab"
          ]
        },
        "performer": [
          {
            "display": "The Central European Lab"
          }
        ],
        "category": [
          {
            "coding": [
              {
                "system": "http://terminology.hl7.org/CodeSystem/observation-category",
                "code": "laboratory"
              }
            ]
          }
        ],
        "code": {
          "coding": [
            {
              "code": "785-6",
              "system": "http://loinc.org",
              "display": "MCH [Entitic mass] by Automated count"
            }
          ],
          "text": "MCH [Entitic mass] by Automated count"
        },
        "valueQuantity": {
          "system": "http://unitsofmeasure.org",
          "value": 32.6,
          "unit": "pg",
          "code": "pg"
        },
        "referenceRange": [
          {
            "low": {
              "value": 27.5,
              "code": "pg",
              "system": "http://unitsofmeasure.org"
            }
          },
          {
            "high": {
              "value": 34.5,
              "code": "pg",
              "system": "http://unitsofmeasure.org"
            }
          }
        ],
        "text": {
          "status": "generated",
          "div": "<div xmlns=\"http://www.w3.org/1999/xhtml\"><table class=\"hl7__eu__lab__report\"><tr><th>Test</th><th>01-Aug-2018</th><th>Reference&#xA0;Range</th><th>Unit</th></tr><tr><td>MCH [Entitic mass] by Automated count</td><td>32.6</td><td>27.5 - 34.5</td><td></td><td>pg</td></tr></table></div>"
        },
        "status": "final",
        "subject": {
          "reference": "urn:uuid:31c54370-af67-4d7d-b76e-bf0276acb886",
          "display": "Charlene Sharpe"
        },
        "effectiveDateTime": "2018-08-01T00:49:39Z",
        "specimen": {
          "reference": "urn:uuid:140e7322-15d4-4886-8bcd-5033036bc0ce"
        }
      }
    },
    {
      "fullUrl": "urn:uuid:c6e1930c-0024-464e-ac23-fa38622865d2",
      "resource": {
        "resourceType": "Observation",
        "id": "c6e1930c-0024-464e-ac23-fa38622865d2",
        "meta": {
          "profile": [
            "http://hl7.eu/fhir/laboratory/StructureDefinition/Observation-resultslab-eu-lab"
          ]
        },
        "performer": [
          {
            "display": "The Central European Lab"
          }
        ],
        "category": [
          {
            "coding": [
              {
                "system": "http://terminology.hl7.org/CodeSystem/observation-category",
                "code": "laboratory"
              }
            ]
          }
        ],
        "code": {
          "coding": [
            {
              "code": "786-4",
              "system": "http://loinc.org",
              "display": "MCHC [Mass/volume] by Automated count"
            }
          ],
          "text": "MCHC [Mass/volume] by Automated count"
        },
        "valueQuantity": {
          "system": "http://unitsofmeasure.org",
          "value": 35.9,
          "unit": "g/dL",
          "code": "g/dL"
        },
        "referenceRange": [
          {
            "low": {
              "value": 32,
              "code": "g/dL",
              "system": "http://unitsofmeasure.org"
            }
          },
          {
            "high": {
              "value": 37,
              "code": "g/dL",
              "system": "http://unitsofmeasure.org"
            }
          }
        ],
        "text": {
          "status": "generated",
          "div": "<div xmlns=\"http://www.w3.org/1999/xhtml\"><table class=\"hl7__eu__lab__report\"><tr><th>Test</th><th>01-Aug-2018</th><th>Reference&#xA0;Range</th><th>Unit</th></tr><tr><td>MCHC [Mass/volume] by Automated count</td><td>35.9</td><td>32 - 37</td><td></td><td>g/dL</td></tr></table></div>"
        },
        "status": "final",
        "subject": {
          "reference": "urn:uuid:31c54370-af67-4d7d-b76e-bf0276acb886",
          "display": "Charlene Sharpe"
        },
        "effectiveDateTime": "2018-08-01T00:49:39Z",
        "specimen": {
          "reference": "urn:uuid:140e7322-15d4-4886-8bcd-5033036bc0ce"
        }
      }
    },
    {
      "fullUrl": "urn:uuid:44324ad6-8eab-4b60-9784-97d5babcfa50",
      "resource": {
        "resourceType": "Observation",
        "id": "44324ad6-8eab-4b60-9784-97d5babcfa50",
        "meta": {
          "profile": [
            "http://hl7.eu/fhir/laboratory/StructureDefinition/Observation-resultslab-eu-lab"
          ]
        },
        "performer": [
          {
            "display": "The Central European Lab"
          }
        ],
        "category": [
          {
            "coding": [
              {
                "system": "http://terminology.hl7.org/CodeSystem/observation-category",
                "code": "laboratory"
              }
            ]
          }
        ],
        "code": {
          "coding": [
            {
              "code": "21000-5",
              "system": "http://loinc.org",
              "display": "Erythrocyte distribution width [Entitic volume] by Automated count"
            }
          ],
          "text": "Erythrocyte distribution width [Entitic volume] by Automated count"
        },
        "valueQuantity": {
          "system": "http://unitsofmeasure.org",
          "value": 41.4,
          "unit": "fL",
          "code": "fL"
        },
        "referenceRange": [
          {
            "low": {
              "value": 36,
              "code": "fL",
              "system": "http://unitsofmeasure.org"
            }
          },
          {
            "high": {
              "value": 55,
              "code": "fL",
              "system": "http://unitsofmeasure.org"
            }
          }
        ],
        "text": {
          "status": "generated",
          "div": "<div xmlns=\"http://www.w3.org/1999/xhtml\"><table class=\"hl7__eu__lab__report\"><tr><th>Test</th><th>01-Aug-2018</th><th>Reference&#xA0;Range</th><th>Unit</th></tr><tr><td>Erythrocyte distribution width [Entitic volume] by Automated count</td><td>41.4</td><td>36 - 55</td><td></td><td>fL</td></tr></table></div>"
        },
        "status": "final",
        "subject": {
          "reference": "urn:uuid:31c54370-af67-4d7d-b76e-bf0276acb886",
          "display": "Charlene Sharpe"
        },
        "effectiveDateTime": "2018-08-01T00:49:39Z",
        "specimen": {
          "reference": "urn:uuid:140e7322-15d4-4886-8bcd-5033036bc0ce"
        }
      }
    },
    {
      "fullUrl": "urn:uuid:8db58a8c-fc4d-46d7-b7df-b3bef270c34a",
      "resource": {
        "resourceType": "Observation",
        "id": "8db58a8c-fc4d-46d7-b7df-b3bef270c34a",
        "meta": {
          "profile": [
            "http://hl7.eu/fhir/laboratory/StructureDefinition/Observation-resultslab-eu-lab"
          ]
        },
        "performer": [
          {
            "display": "The Central European Lab"
          }
        ],
        "category": [
          {
            "coding": [
              {
                "system": "http://terminology.hl7.org/CodeSystem/observation-category",
                "code": "laboratory"
              }
            ]
          }
        ],
        "code": {
          "coding": [
            {
              "code": "777-3",
              "system": "http://loinc.org",
              "display": "Platelets [#/volume] in Blood by Automated count"
            }
          ],
          "text": "Platelets [#/volume] in Blood by Automated count"
        },
        "valueQuantity": {
          "system": "http://unitsofmeasure.org",
          "value": 204.8,
          "unit": "10*3/uL",
          "code": "10*3/uL"
        },
        "referenceRange": [
          {
            "low": {
              "value": 150,
              "code": "10*3/uL",
              "system": "http://unitsofmeasure.org"
            }
          },
          {
            "high": {
              "value": 450,
              "code": "10*3/uL",
              "system": "http://unitsofmeasure.org"
            }
          }
        ],
        "text": {
          "status": "generated",
          "div": "<div xmlns=\"http://www.w3.org/1999/xhtml\"><table class=\"hl7__eu__lab__report\"><tr><th>Test</th><th>01-Aug-2018</th><th>Reference&#xA0;Range</th><th>Unit</th></tr><tr><td>Platelets [#/volume] in Blood by Automated count</td><td>204.8</td><td>150 - 450</td><td></td><td>10*3/uL</td></tr></table></div>"
        },
        "status": "final",
        "subject": {
          "reference": "urn:uuid:31c54370-af67-4d7d-b76e-bf0276acb886",
          "display": "Charlene Sharpe"
        },
        "effectiveDateTime": "2018-08-01T00:49:39Z",
        "specimen": {
          "reference": "urn:uuid:140e7322-15d4-4886-8bcd-5033036bc0ce"
        }
      }
    },
    {
      "fullUrl": "urn:uuid:4e76cbe2-ec4f-477b-ba1a-6eb1f7a4309c",
      "resource": {
        "resourceType": "Observation",
        "id": "4e76cbe2-ec4f-477b-ba1a-6eb1f7a4309c",
        "meta": {
          "profile": [
            "http://hl7.eu/fhir/laboratory/StructureDefinition/Observation-resultslab-eu-lab"
          ]
        },
        "performer": [
          {
            "display": "The Central European Lab"
          }
        ],
        "category": [
          {
            "coding": [
              {
                "system": "http://terminology.hl7.org/CodeSystem/observation-category",
                "code": "laboratory"
              }
            ]
          }
        ],
        "code": {
          "coding": [
            {
              "code": "32207-3",
              "system": "http://loinc.org",
              "display": "Platelet distribution width [Entitic volume] in Blood by Automated count"
            }
          ],
          "text": "Platelet distribution width [Entitic volume] in Blood by Automated count"
        },
        "valueQuantity": {
          "system": "http://unitsofmeasure.org",
          "value": 319.3,
          "unit": "fL",
          "code": "fL"
        },
        "referenceRange": [
          {
            "low": {
              "value": 11,
              "code": "fL",
              "system": "http://unitsofmeasure.org"
            }
          },
          {
            "high": {
              "value": 15,
              "code": "fL",
              "system": "http://unitsofmeasure.org"
            }
          }
        ],
        "interpretation": [
          {
            "coding": [
              {
                "code": "H",
                "system": "http://terminology.hl7.org/CodeSystem/v3-ObservationInterpretation",
                "display": "High"
              }
            ]
          }
        ],
        "text": {
          "status": "generated",
          "div": "<div xmlns=\"http://www.w3.org/1999/xhtml\"><table class=\"hl7__eu__lab__report\"><tr><th>Test</th><th>01-Aug-2018</th><th>Reference&#xA0;Range</th><th>Unit</th></tr><tr><td>Platelet distribution width [Entitic volume] in Blood by Automated count</td><td>319.3</td><td>11 - 15</td><td>H</td><td>fL</td></tr></table></div>"
        },
        "status": "final",
        "subject": {
          "reference": "urn:uuid:31c54370-af67-4d7d-b76e-bf0276acb886",
          "display": "Charlene Sharpe"
        },
        "effectiveDateTime": "2018-08-01T00:49:39Z",
        "specimen": {
          "reference": "urn:uuid:140e7322-15d4-4886-8bcd-5033036bc0ce"
        }
      }
    },
    {
      "fullUrl": "urn:uuid:37c3a6d0-bc48-407c-9d8f-b1fe477aec09",
      "resource": {
        "resourceType": "Observation",
        "id": "37c3a6d0-bc48-407c-9d8f-b1fe477aec09",
        "meta": {
          "profile": [
            "http://hl7.eu/fhir/laboratory/StructureDefinition/Observation-resultslab-eu-lab"
          ]
        },
        "performer": [
          {
            "display": "The Central European Lab"
          }
        ],
        "category": [
          {
            "coding": [
              {
                "system": "http://terminology.hl7.org/CodeSystem/observation-category",
                "code": "laboratory"
              }
            ]
          }
        ],
        "code": {
          "coding": [
            {
              "code": "32623-1",
              "system": "http://loinc.org",
              "display": "Platelet mean volume [Entitic volume] in Blood by Automated count"
            }
          ],
          "text": "Platelet mean volume [Entitic volume] in Blood by Automated count"
        },
        "valueQuantity": {
          "system": "http://unitsofmeasure.org",
          "value": 9.6,
          "unit": "fL",
          "code": "fL"
        },
        "referenceRange": [
          {
            "low": {
              "value": 7.2,
              "code": "fL",
              "system": "http://unitsofmeasure.org"
            }
          },
          {
            "high": {
              "value": 13.8,
              "code": "fL",
              "system": "http://unitsofmeasure.org"
            }
          }
        ],
        "text": {
          "status": "generated",
          "div": "<div xmlns=\"http://www.w3.org/1999/xhtml\"><table class=\"hl7__eu__lab__report\"><tr><th>Test</th><th>01-Aug-2018</th><th>Reference&#xA0;Range</th><th>Unit</th></tr><tr><td>Platelet mean volume [Entitic volume] in Blood by Automated count</td><td>9.6</td><td>7.2 - 13.8</td><td></td><td>fL</td></tr></table></div>"
        },
        "status": "final",
        "subject": {
          "reference": "urn:uuid:31c54370-af67-4d7d-b76e-bf0276acb886",
          "display": "Charlene Sharpe"
        },
        "effectiveDateTime": "2018-08-01T00:49:39Z",
        "specimen": {
          "reference": "urn:uuid:140e7322-15d4-4886-8bcd-5033036bc0ce"
        }
      }
    },
    {
      "fullUrl": "urn:uuid:c498cea8-9bc1-4dfd-8293-9175b2baf08f",
      "resource": {
        "resourceType": "Device",
        "id": "c498cea8-9bc1-4dfd-8293-9175b2baf08f",
        "deviceName": [
          {
            "name": "SYNDERAI Synthetic Generator",
            "type": "manufacturer-name"
          }
        ],
        "version": [
          {
            "value": "5.0"
          }
        ],
        "text": {
          "status": "generated",
          "div": "<div xmlns=\"http://www.w3.org/1999/xhtml\">SYNDERAI Synthetic Generator v5.0</div>"
        },
        "status": "active\"",
        "distinctIdentifier": "synderai-generator-50",
        "manufacturer": "SYNDERAI Project"
      }
    },
    {
      "fullUrl": "urn:uuid:2c88cfbc-44bc-4e5f-8713-fb4d14a45b0c",
      "resource": {
        "resourceType": "Provenance",
        "id": "2c88cfbc-44bc-4e5f-8713-fb4d14a45b0c",
        "target": [
          {
            "reference": "Patient/31c54370-af67-4d7d-b76e-bf0276acb886"
          },
          {
            "reference": "Bundle/dca30e8d-6816-4fff-8f2e-67df6ce52730"
          },
          {
            "reference": "Composition/7f02d830-d22b-40d4-b715-b65944a23602"
          },
          {
            "reference": "PractitionerRole/ec0e9806-4793-4da7-9bbd-a9786baf3b7f"
          },
          {
            "reference": "Practitioner/00ec957a-f767-4bde-b49c-9017f9b3d668"
          },
          {
            "reference": "PractitionerRole/42585a6d-446c-4182-85ff-f1bc01a0a05a"
          },
          {
            "reference": "Organization/fdeed8ea-2fdb-4ef7-9c53-f46c76e12972"
          }
        ],
        "activity": {
          "text": "Synthetic Example Data Generation"
        },
        "policy": [
          "https://synderai.net/synderai-synthetic-data-policy"
        ],
        "agent": [
          {
            "type": {
              "text": "author"
            },
            "who": {
              "reference": "Device/c498cea8-9bc1-4dfd-8293-9175b2baf08f"
            }
          }
        ],
        "reason": [
          {
            "text": "Interoperability Testing and Training (non-clinical use)"
          }
        ],
        "text": {
          "status": "generated",
          "div": "<div xmlns=\"http://www.w3.org/1999/xhtml\">Provenance for SYNDERAI Synthetic Example Data Resource</div>"
        },
        "recorded": "2018-08-01T02:49:39Z"
      }
    },
    {
      "fullUrl": "urn:uuid:ec0e9806-4793-4da7-9bbd-a9786baf3b7f",
      "resource": {
        "resourceType": "PractitionerRole",
        "id": "ec0e9806-4793-4da7-9bbd-a9786baf3b7f",
        "meta": {
          "profile": [
            "http://hl7.eu/fhir/base/StructureDefinition/practitionerRole-eu"
          ]
        },
        "text": {
          "status": "generated",
          "div": "<div xmlns=\"http://www.w3.org/1999/xhtml\">Laboratory Role Id: ec0e9806-4793-4da7-9bbd-a9786baf3b7f</div>"
        },
        "practitioner": {
          "reference": "urn:uuid:00ec957a-f767-4bde-b49c-9017f9b3d668"
        }
      }
    },
    {
      "fullUrl": "urn:uuid:00ec957a-f767-4bde-b49c-9017f9b3d668",
      "resource": {
        "resourceType": "Practitioner",
        "id": "00ec957a-f767-4bde-b49c-9017f9b3d668",
        "meta": {
          "profile": [
            "http://hl7.eu/fhir/base/StructureDefinition/practitioner-eu"
          ]
        },
        "identifier": [
          {
            "assigner": {
              "display": "HL7 Europe"
            },
            "system": "urn:oid:2.16.840.1.113883.2.51.999",
            "value": "cdad4093-264a-4aae-bf35-e04977f4581c"
          }
        ],
        "name": [
          {
            "prefix": [
              "dr"
            ],
            "given": [
              "Ex"
            ],
            "family": "Ample"
          }
        ],
        "address": [
          {
            "line": [
              "Laboratoire Central Européenne",
              "Boulevard du Jardin Botanique 32"
            ],
            "postalCode": "1000",
            "city": "Brussels",
            "country": "Belgium"
          }
        ],
        "text": {
          "status": "generated",
          "div": "<div xmlns=\"http://www.w3.org/1999/xhtml\">Laboratory: Laboratoire Central Européenne, 1000 Brussels, Belgium</div>"
        }
      }
    }
  ],
  "type": "document",
  "timestamp": "2018-08-01T02:49:39Z"
}
