{
  "resourceType": "Bundle",
  "id": "3a77247b-8440-489e-82fc-27037268bd4e",
  "meta": {
    "profile": [
      "http://hl7.eu/fhir/laboratory/StructureDefinition/Bundle-eu-lab"
    ]
  },
  "identifier": {
    "assigner": {
      "display": "HL7 Europe"
    },
    "system": "urn:oid:2.16.840.1.113883.2.51.999",
    "value": "9f27bded-ac7f-45a1-8268-3387001beff6"
  },
  "entry": [
    {
      "fullUrl": "urn:uuid:c41c58d4-dfbd-4e05-94f4-1e6955e874f4",
      "resource": {
        "resourceType": "Composition",
        "id": "c41c58d4-dfbd-4e05-94f4-1e6955e874f4",
        "meta": {
          "profile": [
            "http://hl7.eu/fhir/laboratory/StructureDefinition/Composition-eu-lab"
          ]
        },
        "identifier": {
          "assigner": {
            "display": "HL7 Europe"
          },
          "system": "urn:oid:2.16.840.1.113883.2.51.999",
          "value": "bf852065-5028-4b2a-8980-dbcab9fad158"
        },
        "author": [
          {
            "reference": "urn:uuid:4860ad34-906e-4a60-83fe-0ffc4023c526"
          }
        ],
        "category": [
          {
            "coding": [
              {
                "code": "26436-6",
                "system": "http://loinc.org",
                "display": "Laboratory studies (set)"
              }
            ]
          }
        ],
        "type": {
          "coding": [
            {
              "code": "11502-2",
              "system": "http://loinc.org",
              "display": "Laboratory report"
            }
          ],
          "text": "Laboratory Report"
        },
        "section": [
          {
            "code": {
              "coding": [
                {
                  "code": "26436-6",
                  "system": "http://loinc.org",
                  "display": "Laboratory studies (set)"
                }
              ],
              "text": "Laboratory studies"
            },
            "section": [
              {
                "code": {
                  "coding": [
                    {
                      "code": "$18719-5",
                      "system": "http://loinc.org",
                      "display": "Chemistry studies (set)"
                    }
                  ],
                  "text": "Chemistry"
                },
                "entry": [
                  {
                    "reference": "urn:uuid:3ca8a80d-b6b9-4ddd-8ad0-8b8f48f1edff"
                  },
                  {
                    "reference": "urn:uuid:83ab7c32-4a24-4dcc-8681-19efb4a59dee"
                  },
                  {
                    "reference": "urn:uuid:2494599d-698e-4773-905e-b78aab7e2172"
                  },
                  {
                    "reference": "urn:uuid:d78806eb-a90c-4ec6-bc5c-c536abeded01"
                  },
                  {
                    "reference": "urn:uuid:139e1ed1-ecdc-445e-807a-182ff03ffa03"
                  },
                  {
                    "reference": "urn:uuid:74564994-a368-401c-834f-5597dcdea8cb"
                  },
                  {
                    "reference": "urn:uuid:747dbf3e-cb3b-4345-93c1-0e04c532c22b"
                  },
                  {
                    "reference": "urn:uuid:ecc5a818-5a04-475c-9f92-d2d46d5f1a70"
                  },
                  {
                    "reference": "urn:uuid:69d4e9f0-e38f-4b59-b789-58a2aeb952e3"
                  },
                  {
                    "reference": "urn:uuid:375e5e46-fd7a-4580-9811-b805c23f743e"
                  },
                  {
                    "reference": "urn:uuid:b54544c3-aa57-4a51-93ae-f11d2bf6aa7c"
                  },
                  {
                    "reference": "urn:uuid:d0297b62-1db4-4904-a4c7-b57c7ad21aaa"
                  },
                  {
                    "reference": "urn:uuid:47d5d92f-a261-4947-822e-b38c180e19c7"
                  },
                  {
                    "reference": "urn:uuid:a6735b18-de20-482f-bc20-2d6e69ba58d5"
                  },
                  {
                    "reference": "urn:uuid:067571fb-d03b-4871-ac5e-4deebd1f2273"
                  },
                  {
                    "reference": "urn:uuid:d6d4ee14-c5a5-42ea-9c94-dbbea014a491"
                  },
                  {
                    "reference": "urn:uuid:ec785f17-6664-4b47-9220-5712dcefedda"
                  },
                  {
                    "reference": "urn:uuid:1b12e92b-d930-4165-9d27-cb2794bda943"
                  }
                ],
                "text": {
                  "status": "generated",
                  "div": "<div xmlns=\"http://www.w3.org/1999/xhtml\"><h3>Chemistry</h3><table class=\"hl7__eu__lab__report\"><thead><tr><th>Test</th><th>31-AUG-2023</th><th>Reference&#xA0;Range</th><th>Unit</th></tr></thead><tbody><tr><td>Glucose [Mass/volume] in Serum or Plasma</td><td>90.2</td><td>70 - 140</td><td>mg/dL</td></tr><tr><td>Urea nitrogen [Mass/volume] in Serum or Plasma</td><td>18.6</td><td>7 - 25</td><td>mg/dL</td></tr><tr><td>Creatinine [Mass/volume] in Serum or Plasma</td><td><strong>2.0 H</strong></td><td>0.9 - 1.3</td><td>mg/dL</td></tr><tr><td>Calcium [Mass/volume] in Serum or Plasma</td><td>9.3</td><td>8.5 - 10.5</td><td>mg/dL</td></tr><tr><td>Sodium [Moles/volume] in Serum or Plasma</td><td>137.9</td><td>135 - 145</td><td>mmol/L</td></tr><tr><td>Potassium [Moles/volume] in Serum or Plasma</td><td>4.2</td><td>3.5 - 5.3</td><td>mmol/L</td></tr><tr><td>Chloride [Moles/volume] in Serum or Plasma</td><td>104.3</td><td>98 - 107</td><td>mmol/L</td></tr><tr><td>Carbon dioxide, total [Moles/volume] in Serum or Plasma</td><td>28.2</td><td>22 - 29</td><td>mmol/L</td></tr><tr><td>Ketones [Presence] in Urine by Test strip</td><td>Urine ketone test = +</td><td></td><td></td></tr><tr><td>Hemoglobin A1c/Hemoglobin.total in Blood</td><td><strong>2.9 L</strong></td><td>4.5 - 6.4</td><td>%</td></tr><tr><td>Glucose [Mass/volume] in Blood</td><td>90.2</td><td>70 - 140</td><td>mg/dL</td></tr><tr><td>Urea nitrogen [Mass/volume] in Blood</td><td>18.6</td><td>7 - 25</td><td>mg/dL</td></tr><tr><td>Creatinine [Mass/volume] in Blood</td><td><strong>1.5 H</strong></td><td>0.9 - 1.3</td><td>mg/dL</td></tr><tr><td>Calcium [Mass/volume] in Blood</td><td>9.3</td><td>8.6 - 10.2</td><td>mg/dL</td></tr><tr><td>Sodium [Moles/volume] in Blood</td><td>137.9</td><td>135 - 145</td><td>mmol/L</td></tr><tr><td>Potassium [Moles/volume] in Blood</td><td>4.2</td><td>3.5 - 5.1</td><td>mmol/L</td></tr><tr><td>Chloride [Moles/volume] in Blood</td><td>104.3</td><td>98 - 108</td><td>mmol/L</td></tr><tr><td>Carbon dioxide, total [Moles/volume] in Blood</td><td>28.2</td><td>22 - 32</td><td>mmol/L</td></tr></tbody></table></div>"
                },
                "title": "Chemistry"
              },
              {
                "code": {
                  "coding": [
                    {
                      "code": "$18729-4",
                      "system": "http://loinc.org",
                      "display": "Urinalysis studies (set)"
                    }
                  ],
                  "text": "Urinalysis"
                },
                "entry": [
                  {
                    "reference": "urn:uuid:7fce178d-1082-4476-9b58-0eec33500c6b"
                  },
                  {
                    "reference": "urn:uuid:4aed5fb0-2736-417c-a088-1c1095251f12"
                  },
                  {
                    "reference": "urn:uuid:ae27d4b1-71d8-4508-8368-14326684ad3d"
                  },
                  {
                    "reference": "urn:uuid:0f78ae43-155b-43ae-a877-bcf70e632952"
                  },
                  {
                    "reference": "urn:uuid:614b56b3-e7d8-4909-a187-85ee1631e277"
                  },
                  {
                    "reference": "urn:uuid:1a519cf7-9109-4554-be17-d3772c1f798d"
                  },
                  {
                    "reference": "urn:uuid:6888046b-6489-4976-a3c5-6d181f5a902d"
                  },
                  {
                    "reference": "urn:uuid:6a6ccb87-c605-4960-a152-1f8773aad56c"
                  },
                  {
                    "reference": "urn:uuid:014dc2e8-1de6-4c00-ae02-efff3247d29c"
                  },
                  {
                    "reference": "urn:uuid:1c7398f0-77d7-482c-aab0-b8c9b73814cd"
                  },
                  {
                    "reference": "urn:uuid:5b43abae-a918-4242-a23e-85f00de84f55"
                  },
                  {
                    "reference": "urn:uuid:e247ba62-f0f2-43cb-ba36-6418614960c4"
                  }
                ],
                "text": {
                  "status": "generated",
                  "div": "<div xmlns=\"http://www.w3.org/1999/xhtml\"><h3>Urinalysis</h3><table class=\"hl7__eu__lab__report\"><thead><tr><th>Test</th><th>31-AUG-2023</th><th>Reference&#xA0;Range</th><th>Unit</th></tr></thead><tbody><tr><td>Glucose [Mass/volume] in Urine by Test strip</td><td><strong>1.2 H</strong></td><td>0.8 - 0</td><td>mg/dL</td></tr><tr><td>Glucose [Presence] in Urine by Test strip</td><td>++</td><td></td><td></td></tr><tr><td>Bilirubin.total [Mass/volume] in Urine by Test strip</td><td>0.6</td><td>0.2 - 1.5</td><td>mg/dL</td></tr><tr><td>Bilirubin.total [Presence] in Urine by Test strip</td><td>Finding of bilirubin in urine</td><td></td><td></td></tr><tr><td>Ketones [Mass/volume] in Urine by Test strip</td><td><strong>6.4 H</strong></td><td>0 - 4</td><td>mg/dL</td></tr><tr><td>Specific gravity of Urine by Test strip</td><td><strong>1.0 L</strong></td><td>1.01 - 1.03</td><td>{nominal}</td></tr><tr><td>pH of Urine by Test strip</td><td>6.7</td><td>4.5 - 7.5</td><td>pH</td></tr><tr><td>Protein [Mass/volume] in Urine by Test strip</td><td><strong>272.4 H</strong></td><td>0 - 150</td><td>mg/dL</td></tr><tr><td>Protein [Presence] in Urine by Test strip</td><td>Urine protein test = ++</td><td></td><td></td></tr><tr><td>Nitrite [Presence] in Urine by Test strip</td><td>Urine nitrite negative</td><td></td><td></td></tr><tr><td>Hemoglobin [Presence] in Urine by Test strip</td><td>Urine blood test = negative</td><td></td><td></td></tr><tr><td>Leukocyte esterase [Presence] in Urine by Test strip</td><td>Urine leukocyte test negative</td><td></td><td></td></tr></tbody></table></div>"
                },
                "title": "Urinalysis"
              },
              {
                "code": {
                  "coding": [
                    {
                      "code": "$LP7846-1",
                      "system": "http://loinc.org",
                      "display": "Specimen information"
                    }
                  ],
                  "text": "Specimen information"
                },
                "entry": [
                  {
                    "reference": "urn:uuid:64ad097d-e25d-406a-9333-0541607312a7"
                  },
                  {
                    "reference": "urn:uuid:c439fb38-b285-4d93-9fdd-9c466fd44137"
                  },
                  {
                    "reference": "urn:uuid:d3c12357-57d5-4ace-b8a3-047332627d6b"
                  },
                  {
                    "reference": "urn:uuid:d646d783-8890-478d-9103-03bed48e47d7"
                  }
                ],
                "text": {
                  "status": "generated",
                  "div": "<div xmlns=\"http://www.w3.org/1999/xhtml\"><h3>Specimen information</h3><table class=\"hl7__eu__lab__report\"><thead><tr><th>Test</th><th>31-AUG-2023</th><th>Specimen</th><th></th></tr></thead><tbody><tr><td>Appearance of Urine</td><td>Cloudy urine</td><td>Urine</td><td></td></tr><tr><td>Odor of Urine</td><td>Urine smell ammoniacal</td><td>Urine</td><td></td></tr><tr><td>Clarity of Urine</td><td>Translucent</td><td>Urine</td><td></td></tr><tr><td>Color of Urine</td><td>Brown color</td><td>Urine</td><td></td></tr></tbody></table></div>"
                },
                "title": "Specimen information"
              }
            ],
            "title": "Laboratory Report"
          },
          {
            "text": {
              "status": "generated",
              "div": "<div xmlns=\"http://www.w3.org/1999/xhtml\"><h3>Annotation</h3><table class=\"hl7__eu__lab__report\"><tr><th>Conclusion and Recommendations based on this report and previous findings known to us</th></tr><tr><td>The patient shows elevated creatinine, suggesting impaired renal function. Urinalysis reveals proteinuria, glucosuria, ketonuria, low specific gravity, and abnormal urine appearance (cloudy, brown, ammoniacal), indicating possible renal dysfunction and/or dehydration. Hemoglobin A1c is low, which may reflect anemia or recent changes in glycemic control. No evidence of urinary tract infection. Recommend further evaluation of renal function, hydration status, and possible underlying metabolic or systemic conditions.</td></tr></table></div>"
            },
            "code": {
              "coding": [
                {
                  "system": "http://loinc.org",
                  "code": "48767-8",
                  "display": "Annotation comment"
                }
              ]
            },
            "title": "Annotation comment"
          }
        ],
        "status": "final",
        "subject": {
          "reference": "urn:uuid:917d54ca-7abf-4494-a840-8127afb68d37",
          "display": "Pelayo Casal"
        },
        "date": "2023-08-31T07:38:59Z",
        "title": "Laboratory Report",
        "confidentiality": "N"
      }
    },
    {
      "fullUrl": "urn:uuid:a8d443ae-86b2-466c-af62-a57ab500e280",
      "resource": {
        "resourceType": "DiagnosticReport",
        "id": "a8d443ae-86b2-466c-af62-a57ab500e280",
        "meta": {
          "profile": [
            "http://hl7.eu/fhir/laboratory/StructureDefinition/DiagnosticReport-eu-lab"
          ]
        },
        "identifier": [
          {
            "assigner": {
              "display": "HL7 Europe"
            },
            "system": "urn:oid:2.16.840.1.113883.2.51.999",
            "value": "0fa71250-8e06-4755-854c-d4cc84ca65bc"
          }
        ],
        "extension": [
          {
            "url": "http://hl7.org/fhir/5.0/StructureDefinition/extension-DiagnosticReport.composition",
            "valueReference": {
              "reference": "urn:uuid:bf852065-5028-4b2a-8980-dbcab9fad158"
            }
          }
        ],
        "category": [
          {
            "coding": [
              {
                "code": "26436-6",
                "system": "http://loinc.org",
                "display": "Laboratory studies (set)"
              }
            ]
          }
        ],
        "specimen": [
          {
            "reference": "urn:uuid:ab87ea54-9706-4672-8f95-4abedaa3be99"
          },
          {
            "reference": "urn:uuid:33a08cc4-3d38-4d72-b846-8daaa264f5ab"
          },
          {
            "reference": "urn:uuid:53772869-0876-4f21-aa36-9a7b6ece5eab"
          }
        ],
        "result": [
          {
            "reference": "urn:uuid:3ca8a80d-b6b9-4ddd-8ad0-8b8f48f1edff"
          },
          {
            "reference": "urn:uuid:83ab7c32-4a24-4dcc-8681-19efb4a59dee"
          },
          {
            "reference": "urn:uuid:2494599d-698e-4773-905e-b78aab7e2172"
          },
          {
            "reference": "urn:uuid:d78806eb-a90c-4ec6-bc5c-c536abeded01"
          },
          {
            "reference": "urn:uuid:139e1ed1-ecdc-445e-807a-182ff03ffa03"
          },
          {
            "reference": "urn:uuid:74564994-a368-401c-834f-5597dcdea8cb"
          },
          {
            "reference": "urn:uuid:747dbf3e-cb3b-4345-93c1-0e04c532c22b"
          },
          {
            "reference": "urn:uuid:ecc5a818-5a04-475c-9f92-d2d46d5f1a70"
          },
          {
            "reference": "urn:uuid:64ad097d-e25d-406a-9333-0541607312a7"
          },
          {
            "reference": "urn:uuid:c439fb38-b285-4d93-9fdd-9c466fd44137"
          },
          {
            "reference": "urn:uuid:d3c12357-57d5-4ace-b8a3-047332627d6b"
          },
          {
            "reference": "urn:uuid:d646d783-8890-478d-9103-03bed48e47d7"
          },
          {
            "reference": "urn:uuid:7fce178d-1082-4476-9b58-0eec33500c6b"
          },
          {
            "reference": "urn:uuid:4aed5fb0-2736-417c-a088-1c1095251f12"
          },
          {
            "reference": "urn:uuid:ae27d4b1-71d8-4508-8368-14326684ad3d"
          },
          {
            "reference": "urn:uuid:0f78ae43-155b-43ae-a877-bcf70e632952"
          },
          {
            "reference": "urn:uuid:614b56b3-e7d8-4909-a187-85ee1631e277"
          },
          {
            "reference": "urn:uuid:69d4e9f0-e38f-4b59-b789-58a2aeb952e3"
          },
          {
            "reference": "urn:uuid:1a519cf7-9109-4554-be17-d3772c1f798d"
          },
          {
            "reference": "urn:uuid:6888046b-6489-4976-a3c5-6d181f5a902d"
          },
          {
            "reference": "urn:uuid:6a6ccb87-c605-4960-a152-1f8773aad56c"
          },
          {
            "reference": "urn:uuid:014dc2e8-1de6-4c00-ae02-efff3247d29c"
          },
          {
            "reference": "urn:uuid:1c7398f0-77d7-482c-aab0-b8c9b73814cd"
          },
          {
            "reference": "urn:uuid:5b43abae-a918-4242-a23e-85f00de84f55"
          },
          {
            "reference": "urn:uuid:e247ba62-f0f2-43cb-ba36-6418614960c4"
          },
          {
            "reference": "urn:uuid:375e5e46-fd7a-4580-9811-b805c23f743e"
          },
          {
            "reference": "urn:uuid:b54544c3-aa57-4a51-93ae-f11d2bf6aa7c"
          },
          {
            "reference": "urn:uuid:d0297b62-1db4-4904-a4c7-b57c7ad21aaa"
          },
          {
            "reference": "urn:uuid:47d5d92f-a261-4947-822e-b38c180e19c7"
          },
          {
            "reference": "urn:uuid:a6735b18-de20-482f-bc20-2d6e69ba58d5"
          },
          {
            "reference": "urn:uuid:067571fb-d03b-4871-ac5e-4deebd1f2273"
          },
          {
            "reference": "urn:uuid:d6d4ee14-c5a5-42ea-9c94-dbbea014a491"
          },
          {
            "reference": "urn:uuid:ec785f17-6664-4b47-9220-5712dcefedda"
          },
          {
            "reference": "urn:uuid:1b12e92b-d930-4165-9d27-cb2794bda943"
          }
        ],
        "status": "registered",
        "code": {
          "coding": [
            {
              "code": "11502-2",
              "system": "http://loinc.org",
              "display": "Laboratory report"
            }
          ]
        },
        "subject": {
          "reference": "urn:uuid:917d54ca-7abf-4494-a840-8127afb68d37",
          "display": "Pelayo Casal"
        }
      }
    },
    {
      "fullUrl": "urn:uuid:917d54ca-7abf-4494-a840-8127afb68d37",
      "resource": {
        "resourceType": "Patient",
        "id": "917d54ca-7abf-4494-a840-8127afb68d37",
        "meta": {
          "security": [
            {
              "system": "http://terminology.hl7.org/CodeSystem/v3-ActReason",
              "code": "HTEST"
            },
            {
              "system": "http://terminology.hl7.org/CodeSystem/v3-ActReason",
              "code": "TRAIN"
            }
          ],
          "tag": [
            {
              "system": "https://synderai.net/fhir/CodeSystem/tags",
              "code": "synthetic",
              "display": "SYNDERAI Synthetic data"
            }
          ],
          "profile": [
            "http://hl7.eu/fhir/base/StructureDefinition/patient-eu-core"
          ]
        },
        "identifier": [
          {
            "type": {
              "coding": [
                {
                  "code": "PT",
                  "system": "http://terminology.hl7.org/CodeSystem/v2-0203"
                }
              ]
            },
            "system": "http://ec.europa.eu/identifier/eci",
            "value": "7707-510028-7"
          },
          {
            "type": {
              "coding": [
                {
                  "code": "MR",
                  "system": "http://terminology.hl7.org/CodeSystem/v2-0203"
                }
              ]
            },
            "system": "http://local.setting.eu/identifier",
            "value": "d88e82c6-df33-82d2-8538-f8b57da06491"
          }
        ],
        "name": [
          {
            "family": "Casal"
          },
          {
            "given": [
              "Pelayo"
            ]
          },
          {
            "text": "Pelayo Casal"
          }
        ],
        "address": [
          {
            "line": [
              "Callejón de Ignacio Pedrosa 67 Apt. 68 "
            ],
            "use": "home",
            "type": "physical",
            "postalCode": "35001",
            "city": "Las Palmas",
            "country": "Spain"
          }
        ],
        "telecom": [
          {
            "system": "phone",
            "value": "+34 875724898"
          }
        ],
        "extension": [
          {
            "url": "http://hl7.org/fhir/StructureDefinition/patient-nationality",
            "valueCodeableConcept": {
              "coding": [
                {
                  "code": "ES",
                  "system": "http://hl7.org/fhir/ValueSet/country"
                }
              ]
            }
          }
        ],
        "text": {
          "status": "generated",
          "div": "<div xmlns=\"http://www.w3.org/1999/xhtml\"><table class=\"hl7__ips\"><tr><td>Pelayo Casal</td><td>male</td><td>19-Apr-1940</td></tr></table></div>"
        },
        "gender": "male",
        "birthDate": "1940-04-19"
      }
    },
    {
      "fullUrl": "urn:uuid:7aaa2785-2727-4bf8-8f79-a8e50c4d9219",
      "resource": {
        "resourceType": "ServiceRequest",
        "id": "7aaa2785-2727-4bf8-8f79-a8e50c4d9219",
        "meta": {
          "profile": [
            "http://hl7.eu/fhir/laboratory/StructureDefinition/ServiceRequest-eu-lab"
          ]
        },
        "identifier": [
          {
            "system": "http://example.org",
            "value": "f2b83eb4-557f-4b9e-8869-1af75ac1ea2d"
          }
        ],
        "specimen": [
          {
            "reference": "urn:uuid:ab87ea54-9706-4672-8f95-4abedaa3be99"
          },
          {
            "reference": "urn:uuid:33a08cc4-3d38-4d72-b846-8daaa264f5ab"
          },
          {
            "reference": "urn:uuid:53772869-0876-4f21-aa36-9a7b6ece5eab"
          }
        ],
        "reasonCode": [
          {
            "coding": [
              {
                "code": "431856006",
                "system": "http://snomed.info/sct",
                "display": "Chronic kidney disease stage 2"
              }
            ]
          },
          {
            "coding": [
              {
                "code": "90781000119102",
                "system": "http://snomed.info/sct",
                "display": "Microalbuminuria due to type 2 diabetes mellitus"
              }
            ]
          },
          {
            "coding": [
              {
                "code": "127013003",
                "system": "http://snomed.info/sct",
                "display": "Disorder of kidney due to diabetes mellitus"
              }
            ]
          },
          {
            "coding": [
              {
                "code": "431855005",
                "system": "http://snomed.info/sct",
                "display": "Chronic kidney disease stage 1"
              }
            ]
          },
          {
            "coding": [
              {
                "code": "64859006",
                "system": "http://snomed.info/sct",
                "display": "Osteoporosis"
              }
            ]
          },
          {
            "coding": [
              {
                "code": "414545008",
                "system": "http://snomed.info/sct",
                "display": "Ischemic heart disease"
              }
            ]
          },
          {
            "coding": [
              {
                "code": "237602007",
                "system": "http://snomed.info/sct",
                "display": "Metabolic syndrome X"
              }
            ]
          },
          {
            "coding": [
              {
                "code": "59621000",
                "system": "http://snomed.info/sct",
                "display": "Essential hypertension"
              }
            ]
          },
          {
            "coding": [
              {
                "code": "271737000",
                "system": "http://snomed.info/sct",
                "display": "Anemia"
              }
            ]
          },
          {
            "coding": [
              {
                "code": "15777000",
                "system": "http://snomed.info/sct",
                "display": "Prediabetes"
              }
            ]
          }
        ],
        "status": "active",
        "intent": "order",
        "code": {
          "coding": [
            {
              "code": "108252007",
              "system": "http://snomed.info/sct",
              "display": "Laboratory procedure"
            }
          ]
        },
        "subject": {
          "reference": "urn:uuid:917d54ca-7abf-4494-a840-8127afb68d37",
          "display": "Pelayo Casal"
        },
        "requester": {
          "reference": "urn:uuid:ec9f113e-2c33-46b3-9531-1d2a87316529"
        }
      }
    },
    {
      "fullUrl": "urn:uuid:ec9f113e-2c33-46b3-9531-1d2a87316529",
      "resource": {
        "resourceType": "PractitionerRole",
        "id": "ec9f113e-2c33-46b3-9531-1d2a87316529",
        "meta": {
          "profile": [
            "http://hl7.eu/fhir/base/StructureDefinition/practitionerRole-eu"
          ]
        },
        "text": {
          "status": "generated",
          "div": "<div xmlns=\"http://www.w3.org/1999/xhtml\">Provider Role Id: ec9f113e-2c33-46b3-9531-1d2a87316529</div>"
        },
        "organization": {
          "reference": "urn:uuid:dc5348d2-63c3-4b81-813a-d87cb9a3745d"
        }
      }
    },
    {
      "fullUrl": "urn:uuid:dc5348d2-63c3-4b81-813a-d87cb9a3745d",
      "resource": {
        "resourceType": "Organization",
        "id": "dc5348d2-63c3-4b81-813a-d87cb9a3745d",
        "meta": {
          "profile": [
            "http://hl7.eu/fhir/base/StructureDefinition/organization-eu"
          ]
        },
        "identifier": [
          {
            "assigner": {
              "display": "HL7 Europe"
            },
            "system": "urn:oid:2.16.840.1.113883.2.51.999",
            "value": "481e6325-06dd-453f-a777-56f5175c4626"
          }
        ],
        "address": [
          {
            "country": "Spain"
          }
        ],
        "text": {
          "status": "generated",
          "div": "<div xmlns=\"http://www.w3.org/1999/xhtml\">Provider Organization: Centro de Salud de Guanarteme</div>"
        },
        "name": "Centro de Salud de Guanarteme"
      }
    },
    {
      "fullUrl": "urn:uuid:ab87ea54-9706-4672-8f95-4abedaa3be99",
      "resource": {
        "resourceType": "Specimen",
        "id": "ab87ea54-9706-4672-8f95-4abedaa3be99",
        "meta": {
          "profile": [
            "http://hl7.eu/fhir/laboratory/StructureDefinition/Specimen-eu-lab"
          ]
        },
        "collection": {
          "collectedDateTime": "2023-08-31"
        },
        "text": {
          "status": "generated",
          "div": "<div xmlns=\"http://www.w3.org/1999/xhtml\"><table class=\"hl7__eu__lab__report\"><tr><th>Specimen</th><th>Collection Date</th></tr><tr><td>Acellular blood (serum or plasma) specimen</td><td><span class=\"nb\">31-Aug-2023</span></td></tr></table></div>"
        },
        "type": {
          "coding": [
            {
              "code": "122592007",
              "system": "http://snomed.info/sct",
              "display": "Acellular blood (serum or plasma) specimen"
            }
          ]
        }
      }
    },
    {
      "fullUrl": "urn:uuid:33a08cc4-3d38-4d72-b846-8daaa264f5ab",
      "resource": {
        "resourceType": "Specimen",
        "id": "33a08cc4-3d38-4d72-b846-8daaa264f5ab",
        "meta": {
          "profile": [
            "http://hl7.eu/fhir/laboratory/StructureDefinition/Specimen-eu-lab"
          ]
        },
        "collection": {
          "collectedDateTime": "2023-08-31"
        },
        "text": {
          "status": "generated",
          "div": "<div xmlns=\"http://www.w3.org/1999/xhtml\"><table class=\"hl7__eu__lab__report\"><tr><th>Specimen</th><th>Collection Date</th></tr><tr><td>Urine specimen</td><td><span class=\"nb\">31-Aug-2023</span></td></tr></table></div>"
        },
        "type": {
          "coding": [
            {
              "code": "122575003",
              "system": "http://snomed.info/sct",
              "display": "Urine specimen"
            }
          ]
        }
      }
    },
    {
      "fullUrl": "urn:uuid:53772869-0876-4f21-aa36-9a7b6ece5eab",
      "resource": {
        "resourceType": "Specimen",
        "id": "53772869-0876-4f21-aa36-9a7b6ece5eab",
        "meta": {
          "profile": [
            "http://hl7.eu/fhir/laboratory/StructureDefinition/Specimen-eu-lab"
          ]
        },
        "collection": {
          "collectedDateTime": "2023-08-31"
        },
        "text": {
          "status": "generated",
          "div": "<div xmlns=\"http://www.w3.org/1999/xhtml\"><table class=\"hl7__eu__lab__report\"><tr><th>Specimen</th><th>Collection Date</th></tr><tr><td>Whole blood specimen (specimen)</td><td><span class=\"nb\">31-Aug-2023</span></td></tr></table></div>"
        },
        "type": {
          "coding": [
            {
              "code": "258580003",
              "system": "http://snomed.info/sct",
              "display": "Whole blood specimen (specimen)"
            }
          ]
        }
      }
    },
    {
      "fullUrl": "urn:uuid:3ca8a80d-b6b9-4ddd-8ad0-8b8f48f1edff",
      "resource": {
        "resourceType": "Observation",
        "id": "3ca8a80d-b6b9-4ddd-8ad0-8b8f48f1edff",
        "meta": {
          "profile": [
            "http://hl7.eu/fhir/laboratory/StructureDefinition/Observation-resultslab-eu-lab"
          ]
        },
        "performer": [
          {
            "display": "The Central European Lab"
          }
        ],
        "category": [
          {
            "coding": [
              {
                "system": "http://terminology.hl7.org/CodeSystem/observation-category",
                "code": "laboratory"
              }
            ]
          }
        ],
        "code": {
          "coding": [
            {
              "code": "2345-7",
              "system": "http://loinc.org",
              "display": "Glucose [Mass/volume] in Serum or Plasma"
            }
          ],
          "text": "Glucose [Mass/volume] in Serum or Plasma"
        },
        "valueQuantity": {
          "system": "http://unitsofmeasure.org",
          "value": 90.2,
          "unit": "mg/dL",
          "code": "mg/dL"
        },
        "referenceRange": [
          {
            "low": {
              "value": 70,
              "code": "mg/dL",
              "system": "http://unitsofmeasure.org"
            }
          },
          {
            "high": {
              "value": 140,
              "code": "mg/dL",
              "system": "http://unitsofmeasure.org"
            }
          }
        ],
        "text": {
          "status": "generated",
          "div": "<div xmlns=\"http://www.w3.org/1999/xhtml\"><table class=\"hl7__eu__lab__report\"><tr><th>Test</th><th>31-Aug-2023</th><th>Reference&#xA0;Range</th><th>Unit</th></tr><tr><td>Glucose [Mass/volume] in Serum or Plasma</td><td>90.2</td><td>70 - 140</td><td></td><td>mg/dL</td></tr></table></div>"
        },
        "status": "final",
        "subject": {
          "reference": "urn:uuid:917d54ca-7abf-4494-a840-8127afb68d37",
          "display": "Pelayo Casal"
        },
        "effectiveDateTime": "2023-08-31T05:38:59Z",
        "specimen": {
          "reference": "urn:uuid:ab87ea54-9706-4672-8f95-4abedaa3be99"
        }
      }
    },
    {
      "fullUrl": "urn:uuid:83ab7c32-4a24-4dcc-8681-19efb4a59dee",
      "resource": {
        "resourceType": "Observation",
        "id": "83ab7c32-4a24-4dcc-8681-19efb4a59dee",
        "meta": {
          "profile": [
            "http://hl7.eu/fhir/laboratory/StructureDefinition/Observation-resultslab-eu-lab"
          ]
        },
        "performer": [
          {
            "display": "The Central European Lab"
          }
        ],
        "category": [
          {
            "coding": [
              {
                "system": "http://terminology.hl7.org/CodeSystem/observation-category",
                "code": "laboratory"
              }
            ]
          }
        ],
        "code": {
          "coding": [
            {
              "code": "3094-0",
              "system": "http://loinc.org",
              "display": "Urea nitrogen [Mass/volume] in Serum or Plasma"
            }
          ],
          "text": "Urea nitrogen [Mass/volume] in Serum or Plasma"
        },
        "valueQuantity": {
          "system": "http://unitsofmeasure.org",
          "value": 18.6,
          "unit": "mg/dL",
          "code": "mg/dL"
        },
        "referenceRange": [
          {
            "low": {
              "value": 7,
              "code": "mg/dL",
              "system": "http://unitsofmeasure.org"
            }
          },
          {
            "high": {
              "value": 25,
              "code": "mg/dL",
              "system": "http://unitsofmeasure.org"
            }
          }
        ],
        "text": {
          "status": "generated",
          "div": "<div xmlns=\"http://www.w3.org/1999/xhtml\"><table class=\"hl7__eu__lab__report\"><tr><th>Test</th><th>31-Aug-2023</th><th>Reference&#xA0;Range</th><th>Unit</th></tr><tr><td>Urea nitrogen [Mass/volume] in Serum or Plasma</td><td>18.6</td><td>7 - 25</td><td></td><td>mg/dL</td></tr></table></div>"
        },
        "status": "final",
        "subject": {
          "reference": "urn:uuid:917d54ca-7abf-4494-a840-8127afb68d37",
          "display": "Pelayo Casal"
        },
        "effectiveDateTime": "2023-08-31T05:38:59Z",
        "specimen": {
          "reference": "urn:uuid:ab87ea54-9706-4672-8f95-4abedaa3be99"
        }
      }
    },
    {
      "fullUrl": "urn:uuid:2494599d-698e-4773-905e-b78aab7e2172",
      "resource": {
        "resourceType": "Observation",
        "id": "2494599d-698e-4773-905e-b78aab7e2172",
        "meta": {
          "profile": [
            "http://hl7.eu/fhir/laboratory/StructureDefinition/Observation-resultslab-eu-lab"
          ]
        },
        "performer": [
          {
            "display": "The Central European Lab"
          }
        ],
        "category": [
          {
            "coding": [
              {
                "system": "http://terminology.hl7.org/CodeSystem/observation-category",
                "code": "laboratory"
              }
            ]
          }
        ],
        "code": {
          "coding": [
            {
              "code": "2160-0",
              "system": "http://loinc.org",
              "display": "Creatinine [Mass/volume] in Serum or Plasma"
            }
          ],
          "text": "Creatinine [Mass/volume] in Serum or Plasma"
        },
        "valueQuantity": {
          "system": "http://unitsofmeasure.org",
          "value": 2,
          "unit": "mg/dL",
          "code": "mg/dL"
        },
        "referenceRange": [
          {
            "low": {
              "value": 0.9,
              "code": "mg/dL",
              "system": "http://unitsofmeasure.org"
            }
          },
          {
            "high": {
              "value": 1.3,
              "code": "mg/dL",
              "system": "http://unitsofmeasure.org"
            }
          }
        ],
        "interpretation": [
          {
            "coding": [
              {
                "code": "H",
                "system": "http://terminology.hl7.org/CodeSystem/v3-ObservationInterpretation",
                "display": "High"
              }
            ]
          }
        ],
        "text": {
          "status": "generated",
          "div": "<div xmlns=\"http://www.w3.org/1999/xhtml\"><table class=\"hl7__eu__lab__report\"><tr><th>Test</th><th>31-Aug-2023</th><th>Reference&#xA0;Range</th><th>Unit</th></tr><tr><td>Creatinine [Mass/volume] in Serum or Plasma</td><td>2.0</td><td>0.9 - 1.3</td><td>H</td><td>mg/dL</td></tr></table></div>"
        },
        "status": "final",
        "subject": {
          "reference": "urn:uuid:917d54ca-7abf-4494-a840-8127afb68d37",
          "display": "Pelayo Casal"
        },
        "effectiveDateTime": "2023-08-31T05:38:59Z",
        "specimen": {
          "reference": "urn:uuid:ab87ea54-9706-4672-8f95-4abedaa3be99"
        }
      }
    },
    {
      "fullUrl": "urn:uuid:d78806eb-a90c-4ec6-bc5c-c536abeded01",
      "resource": {
        "resourceType": "Observation",
        "id": "d78806eb-a90c-4ec6-bc5c-c536abeded01",
        "meta": {
          "profile": [
            "http://hl7.eu/fhir/laboratory/StructureDefinition/Observation-resultslab-eu-lab"
          ]
        },
        "performer": [
          {
            "display": "The Central European Lab"
          }
        ],
        "category": [
          {
            "coding": [
              {
                "system": "http://terminology.hl7.org/CodeSystem/observation-category",
                "code": "laboratory"
              }
            ]
          }
        ],
        "code": {
          "coding": [
            {
              "code": "17861-6",
              "system": "http://loinc.org",
              "display": "Calcium [Mass/volume] in Serum or Plasma"
            }
          ],
          "text": "Calcium [Mass/volume] in Serum or Plasma"
        },
        "valueQuantity": {
          "system": "http://unitsofmeasure.org",
          "value": 9.3,
          "unit": "mg/dL",
          "code": "mg/dL"
        },
        "referenceRange": [
          {
            "low": {
              "value": 8.5,
              "code": "mg/dL",
              "system": "http://unitsofmeasure.org"
            }
          },
          {
            "high": {
              "value": 10.5,
              "code": "mg/dL",
              "system": "http://unitsofmeasure.org"
            }
          }
        ],
        "text": {
          "status": "generated",
          "div": "<div xmlns=\"http://www.w3.org/1999/xhtml\"><table class=\"hl7__eu__lab__report\"><tr><th>Test</th><th>31-Aug-2023</th><th>Reference&#xA0;Range</th><th>Unit</th></tr><tr><td>Calcium [Mass/volume] in Serum or Plasma</td><td>9.3</td><td>8.5 - 10.5</td><td></td><td>mg/dL</td></tr></table></div>"
        },
        "status": "final",
        "subject": {
          "reference": "urn:uuid:917d54ca-7abf-4494-a840-8127afb68d37",
          "display": "Pelayo Casal"
        },
        "effectiveDateTime": "2023-08-31T05:38:59Z",
        "specimen": {
          "reference": "urn:uuid:ab87ea54-9706-4672-8f95-4abedaa3be99"
        }
      }
    },
    {
      "fullUrl": "urn:uuid:139e1ed1-ecdc-445e-807a-182ff03ffa03",
      "resource": {
        "resourceType": "Observation",
        "id": "139e1ed1-ecdc-445e-807a-182ff03ffa03",
        "meta": {
          "profile": [
            "http://hl7.eu/fhir/laboratory/StructureDefinition/Observation-resultslab-eu-lab"
          ]
        },
        "performer": [
          {
            "display": "The Central European Lab"
          }
        ],
        "category": [
          {
            "coding": [
              {
                "system": "http://terminology.hl7.org/CodeSystem/observation-category",
                "code": "laboratory"
              }
            ]
          }
        ],
        "code": {
          "coding": [
            {
              "code": "2951-2",
              "system": "http://loinc.org",
              "display": "Sodium [Moles/volume] in Serum or Plasma"
            }
          ],
          "text": "Sodium [Moles/volume] in Serum or Plasma"
        },
        "valueQuantity": {
          "system": "http://unitsofmeasure.org",
          "value": 137.9,
          "unit": "mmol/L",
          "code": "mmol/L"
        },
        "referenceRange": [
          {
            "low": {
              "value": 135,
              "code": "mmol/L",
              "system": "http://unitsofmeasure.org"
            }
          },
          {
            "high": {
              "value": 145,
              "code": "mmol/L",
              "system": "http://unitsofmeasure.org"
            }
          }
        ],
        "text": {
          "status": "generated",
          "div": "<div xmlns=\"http://www.w3.org/1999/xhtml\"><table class=\"hl7__eu__lab__report\"><tr><th>Test</th><th>31-Aug-2023</th><th>Reference&#xA0;Range</th><th>Unit</th></tr><tr><td>Sodium [Moles/volume] in Serum or Plasma</td><td>137.9</td><td>135 - 145</td><td></td><td>mmol/L</td></tr></table></div>"
        },
        "status": "final",
        "subject": {
          "reference": "urn:uuid:917d54ca-7abf-4494-a840-8127afb68d37",
          "display": "Pelayo Casal"
        },
        "effectiveDateTime": "2023-08-31T05:38:59Z",
        "specimen": {
          "reference": "urn:uuid:ab87ea54-9706-4672-8f95-4abedaa3be99"
        }
      }
    },
    {
      "fullUrl": "urn:uuid:74564994-a368-401c-834f-5597dcdea8cb",
      "resource": {
        "resourceType": "Observation",
        "id": "74564994-a368-401c-834f-5597dcdea8cb",
        "meta": {
          "profile": [
            "http://hl7.eu/fhir/laboratory/StructureDefinition/Observation-resultslab-eu-lab"
          ]
        },
        "performer": [
          {
            "display": "The Central European Lab"
          }
        ],
        "category": [
          {
            "coding": [
              {
                "system": "http://terminology.hl7.org/CodeSystem/observation-category",
                "code": "laboratory"
              }
            ]
          }
        ],
        "code": {
          "coding": [
            {
              "code": "2823-3",
              "system": "http://loinc.org",
              "display": "Potassium [Moles/volume] in Serum or Plasma"
            }
          ],
          "text": "Potassium [Moles/volume] in Serum or Plasma"
        },
        "valueQuantity": {
          "system": "http://unitsofmeasure.org",
          "value": 4.2,
          "unit": "mmol/L",
          "code": "mmol/L"
        },
        "referenceRange": [
          {
            "low": {
              "value": 3.5,
              "code": "mmol/L",
              "system": "http://unitsofmeasure.org"
            }
          },
          {
            "high": {
              "value": 5.3,
              "code": "mmol/L",
              "system": "http://unitsofmeasure.org"
            }
          }
        ],
        "text": {
          "status": "generated",
          "div": "<div xmlns=\"http://www.w3.org/1999/xhtml\"><table class=\"hl7__eu__lab__report\"><tr><th>Test</th><th>31-Aug-2023</th><th>Reference&#xA0;Range</th><th>Unit</th></tr><tr><td>Potassium [Moles/volume] in Serum or Plasma</td><td>4.2</td><td>3.5 - 5.3</td><td></td><td>mmol/L</td></tr></table></div>"
        },
        "status": "final",
        "subject": {
          "reference": "urn:uuid:917d54ca-7abf-4494-a840-8127afb68d37",
          "display": "Pelayo Casal"
        },
        "effectiveDateTime": "2023-08-31T05:38:59Z",
        "specimen": {
          "reference": "urn:uuid:ab87ea54-9706-4672-8f95-4abedaa3be99"
        }
      }
    },
    {
      "fullUrl": "urn:uuid:747dbf3e-cb3b-4345-93c1-0e04c532c22b",
      "resource": {
        "resourceType": "Observation",
        "id": "747dbf3e-cb3b-4345-93c1-0e04c532c22b",
        "meta": {
          "profile": [
            "http://hl7.eu/fhir/laboratory/StructureDefinition/Observation-resultslab-eu-lab"
          ]
        },
        "performer": [
          {
            "display": "The Central European Lab"
          }
        ],
        "category": [
          {
            "coding": [
              {
                "system": "http://terminology.hl7.org/CodeSystem/observation-category",
                "code": "laboratory"
              }
            ]
          }
        ],
        "code": {
          "coding": [
            {
              "code": "2075-0",
              "system": "http://loinc.org",
              "display": "Chloride [Moles/volume] in Serum or Plasma"
            }
          ],
          "text": "Chloride [Moles/volume] in Serum or Plasma"
        },
        "valueQuantity": {
          "system": "http://unitsofmeasure.org",
          "value": 104.3,
          "unit": "mmol/L",
          "code": "mmol/L"
        },
        "referenceRange": [
          {
            "low": {
              "value": 98,
              "code": "mmol/L",
              "system": "http://unitsofmeasure.org"
            }
          },
          {
            "high": {
              "value": 107,
              "code": "mmol/L",
              "system": "http://unitsofmeasure.org"
            }
          }
        ],
        "text": {
          "status": "generated",
          "div": "<div xmlns=\"http://www.w3.org/1999/xhtml\"><table class=\"hl7__eu__lab__report\"><tr><th>Test</th><th>31-Aug-2023</th><th>Reference&#xA0;Range</th><th>Unit</th></tr><tr><td>Chloride [Moles/volume] in Serum or Plasma</td><td>104.3</td><td>98 - 107</td><td></td><td>mmol/L</td></tr></table></div>"
        },
        "status": "final",
        "subject": {
          "reference": "urn:uuid:917d54ca-7abf-4494-a840-8127afb68d37",
          "display": "Pelayo Casal"
        },
        "effectiveDateTime": "2023-08-31T05:38:59Z",
        "specimen": {
          "reference": "urn:uuid:ab87ea54-9706-4672-8f95-4abedaa3be99"
        }
      }
    },
    {
      "fullUrl": "urn:uuid:ecc5a818-5a04-475c-9f92-d2d46d5f1a70",
      "resource": {
        "resourceType": "Observation",
        "id": "ecc5a818-5a04-475c-9f92-d2d46d5f1a70",
        "meta": {
          "profile": [
            "http://hl7.eu/fhir/laboratory/StructureDefinition/Observation-resultslab-eu-lab"
          ]
        },
        "performer": [
          {
            "display": "The Central European Lab"
          }
        ],
        "category": [
          {
            "coding": [
              {
                "system": "http://terminology.hl7.org/CodeSystem/observation-category",
                "code": "laboratory"
              }
            ]
          }
        ],
        "code": {
          "coding": [
            {
              "code": "2028-9",
              "system": "http://loinc.org",
              "display": "Carbon dioxide, total [Moles/volume] in Serum or Plasma"
            }
          ],
          "text": "Carbon dioxide, total [Moles/volume] in Serum or Plasma"
        },
        "valueQuantity": {
          "system": "http://unitsofmeasure.org",
          "value": 28.2,
          "unit": "mmol/L",
          "code": "mmol/L"
        },
        "referenceRange": [
          {
            "low": {
              "value": 22,
              "code": "mmol/L",
              "system": "http://unitsofmeasure.org"
            }
          },
          {
            "high": {
              "value": 29,
              "code": "mmol/L",
              "system": "http://unitsofmeasure.org"
            }
          }
        ],
        "text": {
          "status": "generated",
          "div": "<div xmlns=\"http://www.w3.org/1999/xhtml\"><table class=\"hl7__eu__lab__report\"><tr><th>Test</th><th>31-Aug-2023</th><th>Reference&#xA0;Range</th><th>Unit</th></tr><tr><td>Carbon dioxide, total [Moles/volume] in Serum or Plasma</td><td>28.2</td><td>22 - 29</td><td></td><td>mmol/L</td></tr></table></div>"
        },
        "status": "final",
        "subject": {
          "reference": "urn:uuid:917d54ca-7abf-4494-a840-8127afb68d37",
          "display": "Pelayo Casal"
        },
        "effectiveDateTime": "2023-08-31T05:38:59Z",
        "specimen": {
          "reference": "urn:uuid:ab87ea54-9706-4672-8f95-4abedaa3be99"
        }
      }
    },
    {
      "fullUrl": "urn:uuid:64ad097d-e25d-406a-9333-0541607312a7",
      "resource": {
        "resourceType": "Observation",
        "id": "64ad097d-e25d-406a-9333-0541607312a7",
        "meta": {
          "profile": [
            "http://hl7.eu/fhir/laboratory/StructureDefinition/Observation-resultslab-eu-lab"
          ]
        },
        "performer": [
          {
            "display": "The Central European Lab"
          }
        ],
        "category": [
          {
            "coding": [
              {
                "system": "http://terminology.hl7.org/CodeSystem/observation-category",
                "code": "laboratory"
              }
            ]
          }
        ],
        "code": {
          "coding": [
            {
              "code": "5767-9",
              "system": "http://loinc.org",
              "display": "Appearance of Urine"
            }
          ],
          "text": "Appearance of Urine"
        },
        "text": {
          "status": "generated",
          "div": "<div xmlns=\"http://www.w3.org/1999/xhtml\"><table class=\"hl7__eu__lab__report\"><tr><th>Test</th><th>31-Aug-2023</th><th>Reference&#xA0;Range</th><th>Unit</th></tr><tr><td>Appearance of Urine</td></tr></table></div>"
        },
        "status": "final",
        "subject": {
          "reference": "urn:uuid:917d54ca-7abf-4494-a840-8127afb68d37",
          "display": "Pelayo Casal"
        },
        "effectiveDateTime": "2023-08-31T05:38:59Z",
        "specimen": {
          "reference": "urn:uuid:33a08cc4-3d38-4d72-b846-8daaa264f5ab"
        }
      }
    },
    {
      "fullUrl": "urn:uuid:c439fb38-b285-4d93-9fdd-9c466fd44137",
      "resource": {
        "resourceType": "Observation",
        "id": "c439fb38-b285-4d93-9fdd-9c466fd44137",
        "meta": {
          "profile": [
            "http://hl7.eu/fhir/laboratory/StructureDefinition/Observation-resultslab-eu-lab"
          ]
        },
        "performer": [
          {
            "display": "The Central European Lab"
          }
        ],
        "category": [
          {
            "coding": [
              {
                "system": "http://terminology.hl7.org/CodeSystem/observation-category",
                "code": "laboratory"
              }
            ]
          }
        ],
        "code": {
          "coding": [
            {
              "code": "34533-0",
              "system": "http://loinc.org",
              "display": "Odor of Urine"
            }
          ],
          "text": "Odor of Urine"
        },
        "text": {
          "status": "generated",
          "div": "<div xmlns=\"http://www.w3.org/1999/xhtml\"><table class=\"hl7__eu__lab__report\"><tr><th>Test</th><th>31-Aug-2023</th><th>Reference&#xA0;Range</th><th>Unit</th></tr><tr><td>Odor of Urine</td></tr></table></div>"
        },
        "status": "final",
        "subject": {
          "reference": "urn:uuid:917d54ca-7abf-4494-a840-8127afb68d37",
          "display": "Pelayo Casal"
        },
        "effectiveDateTime": "2023-08-31T05:38:59Z",
        "specimen": {
          "reference": "urn:uuid:33a08cc4-3d38-4d72-b846-8daaa264f5ab"
        }
      }
    },
    {
      "fullUrl": "urn:uuid:d3c12357-57d5-4ace-b8a3-047332627d6b",
      "resource": {
        "resourceType": "Observation",
        "id": "d3c12357-57d5-4ace-b8a3-047332627d6b",
        "meta": {
          "profile": [
            "http://hl7.eu/fhir/laboratory/StructureDefinition/Observation-resultslab-eu-lab"
          ]
        },
        "performer": [
          {
            "display": "The Central European Lab"
          }
        ],
        "category": [
          {
            "coding": [
              {
                "system": "http://terminology.hl7.org/CodeSystem/observation-category",
                "code": "laboratory"
              }
            ]
          }
        ],
        "code": {
          "coding": [
            {
              "code": "32167-9",
              "system": "http://loinc.org",
              "display": "Clarity of Urine"
            }
          ],
          "text": "Clarity of Urine"
        },
        "text": {
          "status": "generated",
          "div": "<div xmlns=\"http://www.w3.org/1999/xhtml\"><table class=\"hl7__eu__lab__report\"><tr><th>Test</th><th>31-Aug-2023</th><th>Reference&#xA0;Range</th><th>Unit</th></tr><tr><td>Clarity of Urine</td></tr></table></div>"
        },
        "status": "final",
        "subject": {
          "reference": "urn:uuid:917d54ca-7abf-4494-a840-8127afb68d37",
          "display": "Pelayo Casal"
        },
        "effectiveDateTime": "2023-08-31T05:38:59Z",
        "specimen": {
          "reference": "urn:uuid:33a08cc4-3d38-4d72-b846-8daaa264f5ab"
        }
      }
    },
    {
      "fullUrl": "urn:uuid:d646d783-8890-478d-9103-03bed48e47d7",
      "resource": {
        "resourceType": "Observation",
        "id": "d646d783-8890-478d-9103-03bed48e47d7",
        "meta": {
          "profile": [
            "http://hl7.eu/fhir/laboratory/StructureDefinition/Observation-resultslab-eu-lab"
          ]
        },
        "performer": [
          {
            "display": "The Central European Lab"
          }
        ],
        "category": [
          {
            "coding": [
              {
                "system": "http://terminology.hl7.org/CodeSystem/observation-category",
                "code": "laboratory"
              }
            ]
          }
        ],
        "code": {
          "coding": [
            {
              "code": "5778-6",
              "system": "http://loinc.org",
              "display": "Color of Urine"
            }
          ],
          "text": "Color of Urine"
        },
        "text": {
          "status": "generated",
          "div": "<div xmlns=\"http://www.w3.org/1999/xhtml\"><table class=\"hl7__eu__lab__report\"><tr><th>Test</th><th>31-Aug-2023</th><th>Reference&#xA0;Range</th><th>Unit</th></tr><tr><td>Color of Urine</td></tr></table></div>"
        },
        "status": "final",
        "subject": {
          "reference": "urn:uuid:917d54ca-7abf-4494-a840-8127afb68d37",
          "display": "Pelayo Casal"
        },
        "effectiveDateTime": "2023-08-31T05:38:59Z",
        "specimen": {
          "reference": "urn:uuid:33a08cc4-3d38-4d72-b846-8daaa264f5ab"
        }
      }
    },
    {
      "fullUrl": "urn:uuid:7fce178d-1082-4476-9b58-0eec33500c6b",
      "resource": {
        "resourceType": "Observation",
        "id": "7fce178d-1082-4476-9b58-0eec33500c6b",
        "meta": {
          "profile": [
            "http://hl7.eu/fhir/laboratory/StructureDefinition/Observation-resultslab-eu-lab"
          ]
        },
        "performer": [
          {
            "display": "The Central European Lab"
          }
        ],
        "category": [
          {
            "coding": [
              {
                "system": "http://terminology.hl7.org/CodeSystem/observation-category",
                "code": "laboratory"
              }
            ]
          }
        ],
        "code": {
          "coding": [
            {
              "code": "5792-7",
              "system": "http://loinc.org",
              "display": "Glucose [Mass/volume] in Urine by Test strip"
            }
          ],
          "text": "Glucose [Mass/volume] in Urine by Test strip"
        },
        "valueQuantity": {
          "system": "http://unitsofmeasure.org",
          "value": 1.2,
          "unit": "mg/dL",
          "code": "mg/dL"
        },
        "referenceRange": [
          {
            "low": {
              "value": 0.8,
              "code": "mg/dL",
              "system": "http://unitsofmeasure.org"
            }
          },
          {
            "high": {
              "value": 0,
              "code": "mg/dL",
              "system": "http://unitsofmeasure.org"
            }
          }
        ],
        "interpretation": [
          {
            "coding": [
              {
                "code": "H",
                "system": "http://terminology.hl7.org/CodeSystem/v3-ObservationInterpretation",
                "display": "High"
              }
            ]
          }
        ],
        "text": {
          "status": "generated",
          "div": "<div xmlns=\"http://www.w3.org/1999/xhtml\"><table class=\"hl7__eu__lab__report\"><tr><th>Test</th><th>31-Aug-2023</th><th>Reference&#xA0;Range</th><th>Unit</th></tr><tr><td>Glucose [Mass/volume] in Urine by Test strip</td><td>1.2</td><td>0.8 - 0</td><td>H</td><td>mg/dL</td></tr></table></div>"
        },
        "status": "final",
        "subject": {
          "reference": "urn:uuid:917d54ca-7abf-4494-a840-8127afb68d37",
          "display": "Pelayo Casal"
        },
        "effectiveDateTime": "2023-08-31T05:38:59Z",
        "specimen": {
          "reference": "urn:uuid:33a08cc4-3d38-4d72-b846-8daaa264f5ab"
        }
      }
    },
    {
      "fullUrl": "urn:uuid:4aed5fb0-2736-417c-a088-1c1095251f12",
      "resource": {
        "resourceType": "Observation",
        "id": "4aed5fb0-2736-417c-a088-1c1095251f12",
        "meta": {
          "profile": [
            "http://hl7.eu/fhir/laboratory/StructureDefinition/Observation-resultslab-eu-lab"
          ]
        },
        "performer": [
          {
            "display": "The Central European Lab"
          }
        ],
        "category": [
          {
            "coding": [
              {
                "system": "http://terminology.hl7.org/CodeSystem/observation-category",
                "code": "laboratory"
              }
            ]
          }
        ],
        "code": {
          "coding": [
            {
              "code": "25428-4",
              "system": "http://loinc.org",
              "display": "Glucose [Presence] in Urine by Test strip"
            }
          ],
          "text": "Glucose [Presence] in Urine by Test strip"
        },
        "text": {
          "status": "generated",
          "div": "<div xmlns=\"http://www.w3.org/1999/xhtml\"><table class=\"hl7__eu__lab__report\"><tr><th>Test</th><th>31-Aug-2023</th><th>Reference&#xA0;Range</th><th>Unit</th></tr><tr><td>Glucose [Presence] in Urine by Test strip</td></tr></table></div>"
        },
        "status": "final",
        "subject": {
          "reference": "urn:uuid:917d54ca-7abf-4494-a840-8127afb68d37",
          "display": "Pelayo Casal"
        },
        "effectiveDateTime": "2023-08-31T05:38:59Z",
        "specimen": {
          "reference": "urn:uuid:33a08cc4-3d38-4d72-b846-8daaa264f5ab"
        }
      }
    },
    {
      "fullUrl": "urn:uuid:ae27d4b1-71d8-4508-8368-14326684ad3d",
      "resource": {
        "resourceType": "Observation",
        "id": "ae27d4b1-71d8-4508-8368-14326684ad3d",
        "meta": {
          "profile": [
            "http://hl7.eu/fhir/laboratory/StructureDefinition/Observation-resultslab-eu-lab"
          ]
        },
        "performer": [
          {
            "display": "The Central European Lab"
          }
        ],
        "category": [
          {
            "coding": [
              {
                "system": "http://terminology.hl7.org/CodeSystem/observation-category",
                "code": "laboratory"
              }
            ]
          }
        ],
        "code": {
          "coding": [
            {
              "code": "20505-4",
              "system": "http://loinc.org",
              "display": "Bilirubin.total [Mass/volume] in Urine by Test strip"
            }
          ],
          "text": "Bilirubin.total [Mass/volume] in Urine by Test strip"
        },
        "valueQuantity": {
          "system": "http://unitsofmeasure.org",
          "value": 0.6,
          "unit": "mg/dL",
          "code": "mg/dL"
        },
        "referenceRange": [
          {
            "low": {
              "value": 0.2,
              "code": "mg/dL",
              "system": "http://unitsofmeasure.org"
            }
          },
          {
            "high": {
              "value": 1.5,
              "code": "mg/dL",
              "system": "http://unitsofmeasure.org"
            }
          }
        ],
        "text": {
          "status": "generated",
          "div": "<div xmlns=\"http://www.w3.org/1999/xhtml\"><table class=\"hl7__eu__lab__report\"><tr><th>Test</th><th>31-Aug-2023</th><th>Reference&#xA0;Range</th><th>Unit</th></tr><tr><td>Bilirubin.total [Mass/volume] in Urine by Test strip</td><td>0.6</td><td>0.2 - 1.5</td><td></td><td>mg/dL</td></tr></table></div>"
        },
        "status": "final",
        "subject": {
          "reference": "urn:uuid:917d54ca-7abf-4494-a840-8127afb68d37",
          "display": "Pelayo Casal"
        },
        "effectiveDateTime": "2023-08-31T05:38:59Z",
        "specimen": {
          "reference": "urn:uuid:33a08cc4-3d38-4d72-b846-8daaa264f5ab"
        }
      }
    },
    {
      "fullUrl": "urn:uuid:0f78ae43-155b-43ae-a877-bcf70e632952",
      "resource": {
        "resourceType": "Observation",
        "id": "0f78ae43-155b-43ae-a877-bcf70e632952",
        "meta": {
          "profile": [
            "http://hl7.eu/fhir/laboratory/StructureDefinition/Observation-resultslab-eu-lab"
          ]
        },
        "performer": [
          {
            "display": "The Central European Lab"
          }
        ],
        "category": [
          {
            "coding": [
              {
                "system": "http://terminology.hl7.org/CodeSystem/observation-category",
                "code": "laboratory"
              }
            ]
          }
        ],
        "code": {
          "coding": [
            {
              "code": "5770-3",
              "system": "http://loinc.org",
              "display": "Bilirubin.total [Presence] in Urine by Test strip"
            }
          ],
          "text": "Bilirubin.total [Presence] in Urine by Test strip"
        },
        "text": {
          "status": "generated",
          "div": "<div xmlns=\"http://www.w3.org/1999/xhtml\"><table class=\"hl7__eu__lab__report\"><tr><th>Test</th><th>31-Aug-2023</th><th>Reference&#xA0;Range</th><th>Unit</th></tr><tr><td>Bilirubin.total [Presence] in Urine by Test strip</td></tr></table></div>"
        },
        "status": "final",
        "subject": {
          "reference": "urn:uuid:917d54ca-7abf-4494-a840-8127afb68d37",
          "display": "Pelayo Casal"
        },
        "effectiveDateTime": "2023-08-31T05:38:59Z",
        "specimen": {
          "reference": "urn:uuid:33a08cc4-3d38-4d72-b846-8daaa264f5ab"
        }
      }
    },
    {
      "fullUrl": "urn:uuid:614b56b3-e7d8-4909-a187-85ee1631e277",
      "resource": {
        "resourceType": "Observation",
        "id": "614b56b3-e7d8-4909-a187-85ee1631e277",
        "meta": {
          "profile": [
            "http://hl7.eu/fhir/laboratory/StructureDefinition/Observation-resultslab-eu-lab"
          ]
        },
        "performer": [
          {
            "display": "The Central European Lab"
          }
        ],
        "category": [
          {
            "coding": [
              {
                "system": "http://terminology.hl7.org/CodeSystem/observation-category",
                "code": "laboratory"
              }
            ]
          }
        ],
        "code": {
          "coding": [
            {
              "code": "5797-6",
              "system": "http://loinc.org",
              "display": "Ketones [Mass/volume] in Urine by Test strip"
            }
          ],
          "text": "Ketones [Mass/volume] in Urine by Test strip"
        },
        "valueQuantity": {
          "system": "http://unitsofmeasure.org",
          "value": 6.4,
          "unit": "mg/dL",
          "code": "mg/dL"
        },
        "referenceRange": [
          {
            "low": {
              "value": 0,
              "code": "mg/dL",
              "system": "http://unitsofmeasure.org"
            }
          },
          {
            "high": {
              "value": 4,
              "code": "mg/dL",
              "system": "http://unitsofmeasure.org"
            }
          }
        ],
        "interpretation": [
          {
            "coding": [
              {
                "code": "H",
                "system": "http://terminology.hl7.org/CodeSystem/v3-ObservationInterpretation",
                "display": "High"
              }
            ]
          }
        ],
        "text": {
          "status": "generated",
          "div": "<div xmlns=\"http://www.w3.org/1999/xhtml\"><table class=\"hl7__eu__lab__report\"><tr><th>Test</th><th>31-Aug-2023</th><th>Reference&#xA0;Range</th><th>Unit</th></tr><tr><td>Ketones [Mass/volume] in Urine by Test strip</td><td>6.4</td><td>0 - 4</td><td>H</td><td>mg/dL</td></tr></table></div>"
        },
        "status": "final",
        "subject": {
          "reference": "urn:uuid:917d54ca-7abf-4494-a840-8127afb68d37",
          "display": "Pelayo Casal"
        },
        "effectiveDateTime": "2023-08-31T05:38:59Z",
        "specimen": {
          "reference": "urn:uuid:33a08cc4-3d38-4d72-b846-8daaa264f5ab"
        }
      }
    },
    {
      "fullUrl": "urn:uuid:69d4e9f0-e38f-4b59-b789-58a2aeb952e3",
      "resource": {
        "resourceType": "Observation",
        "id": "69d4e9f0-e38f-4b59-b789-58a2aeb952e3",
        "meta": {
          "profile": [
            "http://hl7.eu/fhir/laboratory/StructureDefinition/Observation-resultslab-eu-lab"
          ]
        },
        "performer": [
          {
            "display": "The Central European Lab"
          }
        ],
        "category": [
          {
            "coding": [
              {
                "system": "http://terminology.hl7.org/CodeSystem/observation-category",
                "code": "laboratory"
              }
            ]
          }
        ],
        "code": {
          "coding": [
            {
              "code": "2514-8",
              "system": "http://loinc.org",
              "display": "Ketones [Presence] in Urine by Test strip"
            }
          ],
          "text": "Ketones [Presence] in Urine by Test strip"
        },
        "text": {
          "status": "generated",
          "div": "<div xmlns=\"http://www.w3.org/1999/xhtml\"><table class=\"hl7__eu__lab__report\"><tr><th>Test</th><th>31-Aug-2023</th><th>Reference&#xA0;Range</th><th>Unit</th></tr><tr><td>Ketones [Presence] in Urine by Test strip</td></tr></table></div>"
        },
        "status": "final",
        "subject": {
          "reference": "urn:uuid:917d54ca-7abf-4494-a840-8127afb68d37",
          "display": "Pelayo Casal"
        },
        "effectiveDateTime": "2023-08-31T05:38:59Z",
        "specimen": {
          "reference": "urn:uuid:33a08cc4-3d38-4d72-b846-8daaa264f5ab"
        }
      }
    },
    {
      "fullUrl": "urn:uuid:1a519cf7-9109-4554-be17-d3772c1f798d",
      "resource": {
        "resourceType": "Observation",
        "id": "1a519cf7-9109-4554-be17-d3772c1f798d",
        "meta": {
          "profile": [
            "http://hl7.eu/fhir/laboratory/StructureDefinition/Observation-resultslab-eu-lab"
          ]
        },
        "performer": [
          {
            "display": "The Central European Lab"
          }
        ],
        "category": [
          {
            "coding": [
              {
                "system": "http://terminology.hl7.org/CodeSystem/observation-category",
                "code": "laboratory"
              }
            ]
          }
        ],
        "code": {
          "coding": [
            {
              "code": "5811-5",
              "system": "http://loinc.org",
              "display": "Specific gravity of Urine by Test strip"
            }
          ],
          "text": "Specific gravity of Urine by Test strip"
        },
        "valueQuantity": {
          "system": "http://unitsofmeasure.org",
          "value": 1,
          "unit": "{nominal}",
          "code": "{nominal}"
        },
        "referenceRange": [
          {
            "low": {
              "value": 1.01,
              "code": "g/mL",
              "system": "http://unitsofmeasure.org"
            }
          },
          {
            "high": {
              "value": 1.03,
              "code": "g/mL",
              "system": "http://unitsofmeasure.org"
            }
          }
        ],
        "interpretation": [
          {
            "coding": [
              {
                "code": "L",
                "system": "http://terminology.hl7.org/CodeSystem/v3-ObservationInterpretation",
                "display": "Low"
              }
            ]
          }
        ],
        "text": {
          "status": "generated",
          "div": "<div xmlns=\"http://www.w3.org/1999/xhtml\"><table class=\"hl7__eu__lab__report\"><tr><th>Test</th><th>31-Aug-2023</th><th>Reference&#xA0;Range</th><th>Unit</th></tr><tr><td>Specific gravity of Urine by Test strip</td><td>1.0</td><td>1.01 - 1.03</td><td>L</td><td>{nominal}</td></tr></table></div>"
        },
        "status": "final",
        "subject": {
          "reference": "urn:uuid:917d54ca-7abf-4494-a840-8127afb68d37",
          "display": "Pelayo Casal"
        },
        "effectiveDateTime": "2023-08-31T05:38:59Z",
        "specimen": {
          "reference": "urn:uuid:33a08cc4-3d38-4d72-b846-8daaa264f5ab"
        }
      }
    },
    {
      "fullUrl": "urn:uuid:6888046b-6489-4976-a3c5-6d181f5a902d",
      "resource": {
        "resourceType": "Observation",
        "id": "6888046b-6489-4976-a3c5-6d181f5a902d",
        "meta": {
          "profile": [
            "http://hl7.eu/fhir/laboratory/StructureDefinition/Observation-resultslab-eu-lab"
          ]
        },
        "performer": [
          {
            "display": "The Central European Lab"
          }
        ],
        "category": [
          {
            "coding": [
              {
                "system": "http://terminology.hl7.org/CodeSystem/observation-category",
                "code": "laboratory"
              }
            ]
          }
        ],
        "code": {
          "coding": [
            {
              "code": "5803-2",
              "system": "http://loinc.org",
              "display": "pH of Urine by Test strip"
            }
          ],
          "text": "pH of Urine by Test strip"
        },
        "valueQuantity": {
          "system": "http://unitsofmeasure.org",
          "value": 6.7,
          "unit": "pH",
          "code": "pH"
        },
        "referenceRange": [
          {
            "low": {
              "value": 4.5,
              "code": "pH",
              "system": "http://unitsofmeasure.org"
            }
          },
          {
            "high": {
              "value": 7.5,
              "code": "pH",
              "system": "http://unitsofmeasure.org"
            }
          }
        ],
        "text": {
          "status": "generated",
          "div": "<div xmlns=\"http://www.w3.org/1999/xhtml\"><table class=\"hl7__eu__lab__report\"><tr><th>Test</th><th>31-Aug-2023</th><th>Reference&#xA0;Range</th><th>Unit</th></tr><tr><td>pH of Urine by Test strip</td><td>6.7</td><td>4.5 - 7.5</td><td></td><td>pH</td></tr></table></div>"
        },
        "status": "final",
        "subject": {
          "reference": "urn:uuid:917d54ca-7abf-4494-a840-8127afb68d37",
          "display": "Pelayo Casal"
        },
        "effectiveDateTime": "2023-08-31T05:38:59Z",
        "specimen": {
          "reference": "urn:uuid:33a08cc4-3d38-4d72-b846-8daaa264f5ab"
        }
      }
    },
    {
      "fullUrl": "urn:uuid:6a6ccb87-c605-4960-a152-1f8773aad56c",
      "resource": {
        "resourceType": "Observation",
        "id": "6a6ccb87-c605-4960-a152-1f8773aad56c",
        "meta": {
          "profile": [
            "http://hl7.eu/fhir/laboratory/StructureDefinition/Observation-resultslab-eu-lab"
          ]
        },
        "performer": [
          {
            "display": "The Central European Lab"
          }
        ],
        "category": [
          {
            "coding": [
              {
                "system": "http://terminology.hl7.org/CodeSystem/observation-category",
                "code": "laboratory"
              }
            ]
          }
        ],
        "code": {
          "coding": [
            {
              "code": "5804-0",
              "system": "http://loinc.org",
              "display": "Protein [Mass/volume] in Urine by Test strip"
            }
          ],
          "text": "Protein [Mass/volume] in Urine by Test strip"
        },
        "valueQuantity": {
          "system": "http://unitsofmeasure.org",
          "value": 272.4,
          "unit": "mg/dL",
          "code": "mg/dL"
        },
        "referenceRange": [
          {
            "low": {
              "value": 0,
              "code": "mg/dL",
              "system": "http://unitsofmeasure.org"
            }
          },
          {
            "high": {
              "value": 150,
              "code": "mg/dL",
              "system": "http://unitsofmeasure.org"
            }
          }
        ],
        "interpretation": [
          {
            "coding": [
              {
                "code": "H",
                "system": "http://terminology.hl7.org/CodeSystem/v3-ObservationInterpretation",
                "display": "High"
              }
            ]
          }
        ],
        "text": {
          "status": "generated",
          "div": "<div xmlns=\"http://www.w3.org/1999/xhtml\"><table class=\"hl7__eu__lab__report\"><tr><th>Test</th><th>31-Aug-2023</th><th>Reference&#xA0;Range</th><th>Unit</th></tr><tr><td>Protein [Mass/volume] in Urine by Test strip</td><td>272.4</td><td>0 - 150</td><td>H</td><td>mg/dL</td></tr></table></div>"
        },
        "status": "final",
        "subject": {
          "reference": "urn:uuid:917d54ca-7abf-4494-a840-8127afb68d37",
          "display": "Pelayo Casal"
        },
        "effectiveDateTime": "2023-08-31T05:38:59Z",
        "specimen": {
          "reference": "urn:uuid:33a08cc4-3d38-4d72-b846-8daaa264f5ab"
        }
      }
    },
    {
      "fullUrl": "urn:uuid:014dc2e8-1de6-4c00-ae02-efff3247d29c",
      "resource": {
        "resourceType": "Observation",
        "id": "014dc2e8-1de6-4c00-ae02-efff3247d29c",
        "meta": {
          "profile": [
            "http://hl7.eu/fhir/laboratory/StructureDefinition/Observation-resultslab-eu-lab"
          ]
        },
        "performer": [
          {
            "display": "The Central European Lab"
          }
        ],
        "category": [
          {
            "coding": [
              {
                "system": "http://terminology.hl7.org/CodeSystem/observation-category",
                "code": "laboratory"
              }
            ]
          }
        ],
        "code": {
          "coding": [
            {
              "code": "20454-5",
              "system": "http://loinc.org",
              "display": "Protein [Presence] in Urine by Test strip"
            }
          ],
          "text": "Protein [Presence] in Urine by Test strip"
        },
        "text": {
          "status": "generated",
          "div": "<div xmlns=\"http://www.w3.org/1999/xhtml\"><table class=\"hl7__eu__lab__report\"><tr><th>Test</th><th>31-Aug-2023</th><th>Reference&#xA0;Range</th><th>Unit</th></tr><tr><td>Protein [Presence] in Urine by Test strip</td></tr></table></div>"
        },
        "status": "final",
        "subject": {
          "reference": "urn:uuid:917d54ca-7abf-4494-a840-8127afb68d37",
          "display": "Pelayo Casal"
        },
        "effectiveDateTime": "2023-08-31T05:38:59Z",
        "specimen": {
          "reference": "urn:uuid:33a08cc4-3d38-4d72-b846-8daaa264f5ab"
        }
      }
    },
    {
      "fullUrl": "urn:uuid:1c7398f0-77d7-482c-aab0-b8c9b73814cd",
      "resource": {
        "resourceType": "Observation",
        "id": "1c7398f0-77d7-482c-aab0-b8c9b73814cd",
        "meta": {
          "profile": [
            "http://hl7.eu/fhir/laboratory/StructureDefinition/Observation-resultslab-eu-lab"
          ]
        },
        "performer": [
          {
            "display": "The Central European Lab"
          }
        ],
        "category": [
          {
            "coding": [
              {
                "system": "http://terminology.hl7.org/CodeSystem/observation-category",
                "code": "laboratory"
              }
            ]
          }
        ],
        "code": {
          "coding": [
            {
              "code": "5802-4",
              "system": "http://loinc.org",
              "display": "Nitrite [Presence] in Urine by Test strip"
            }
          ],
          "text": "Nitrite [Presence] in Urine by Test strip"
        },
        "text": {
          "status": "generated",
          "div": "<div xmlns=\"http://www.w3.org/1999/xhtml\"><table class=\"hl7__eu__lab__report\"><tr><th>Test</th><th>31-Aug-2023</th><th>Reference&#xA0;Range</th><th>Unit</th></tr><tr><td>Nitrite [Presence] in Urine by Test strip</td></tr></table></div>"
        },
        "status": "final",
        "subject": {
          "reference": "urn:uuid:917d54ca-7abf-4494-a840-8127afb68d37",
          "display": "Pelayo Casal"
        },
        "effectiveDateTime": "2023-08-31T05:38:59Z",
        "specimen": {
          "reference": "urn:uuid:33a08cc4-3d38-4d72-b846-8daaa264f5ab"
        }
      }
    },
    {
      "fullUrl": "urn:uuid:5b43abae-a918-4242-a23e-85f00de84f55",
      "resource": {
        "resourceType": "Observation",
        "id": "5b43abae-a918-4242-a23e-85f00de84f55",
        "meta": {
          "profile": [
            "http://hl7.eu/fhir/laboratory/StructureDefinition/Observation-resultslab-eu-lab"
          ]
        },
        "performer": [
          {
            "display": "The Central European Lab"
          }
        ],
        "category": [
          {
            "coding": [
              {
                "system": "http://terminology.hl7.org/CodeSystem/observation-category",
                "code": "laboratory"
              }
            ]
          }
        ],
        "code": {
          "coding": [
            {
              "code": "5794-3",
              "system": "http://loinc.org",
              "display": "Hemoglobin [Presence] in Urine by Test strip"
            }
          ],
          "text": "Hemoglobin [Presence] in Urine by Test strip"
        },
        "text": {
          "status": "generated",
          "div": "<div xmlns=\"http://www.w3.org/1999/xhtml\"><table class=\"hl7__eu__lab__report\"><tr><th>Test</th><th>31-Aug-2023</th><th>Reference&#xA0;Range</th><th>Unit</th></tr><tr><td>Hemoglobin [Presence] in Urine by Test strip</td></tr></table></div>"
        },
        "status": "final",
        "subject": {
          "reference": "urn:uuid:917d54ca-7abf-4494-a840-8127afb68d37",
          "display": "Pelayo Casal"
        },
        "effectiveDateTime": "2023-08-31T05:38:59Z",
        "specimen": {
          "reference": "urn:uuid:33a08cc4-3d38-4d72-b846-8daaa264f5ab"
        }
      }
    },
    {
      "fullUrl": "urn:uuid:e247ba62-f0f2-43cb-ba36-6418614960c4",
      "resource": {
        "resourceType": "Observation",
        "id": "e247ba62-f0f2-43cb-ba36-6418614960c4",
        "meta": {
          "profile": [
            "http://hl7.eu/fhir/laboratory/StructureDefinition/Observation-resultslab-eu-lab"
          ]
        },
        "performer": [
          {
            "display": "The Central European Lab"
          }
        ],
        "category": [
          {
            "coding": [
              {
                "system": "http://terminology.hl7.org/CodeSystem/observation-category",
                "code": "laboratory"
              }
            ]
          }
        ],
        "code": {
          "coding": [
            {
              "code": "5799-2",
              "system": "http://loinc.org",
              "display": "Leukocyte esterase [Presence] in Urine by Test strip"
            }
          ],
          "text": "Leukocyte esterase [Presence] in Urine by Test strip"
        },
        "text": {
          "status": "generated",
          "div": "<div xmlns=\"http://www.w3.org/1999/xhtml\"><table class=\"hl7__eu__lab__report\"><tr><th>Test</th><th>31-Aug-2023</th><th>Reference&#xA0;Range</th><th>Unit</th></tr><tr><td>Leukocyte esterase [Presence] in Urine by Test strip</td></tr></table></div>"
        },
        "status": "final",
        "subject": {
          "reference": "urn:uuid:917d54ca-7abf-4494-a840-8127afb68d37",
          "display": "Pelayo Casal"
        },
        "effectiveDateTime": "2023-08-31T05:38:59Z",
        "specimen": {
          "reference": "urn:uuid:33a08cc4-3d38-4d72-b846-8daaa264f5ab"
        }
      }
    },
    {
      "fullUrl": "urn:uuid:375e5e46-fd7a-4580-9811-b805c23f743e",
      "resource": {
        "resourceType": "Observation",
        "id": "375e5e46-fd7a-4580-9811-b805c23f743e",
        "meta": {
          "profile": [
            "http://hl7.eu/fhir/laboratory/StructureDefinition/Observation-resultslab-eu-lab"
          ]
        },
        "performer": [
          {
            "display": "The Central European Lab"
          }
        ],
        "category": [
          {
            "coding": [
              {
                "system": "http://terminology.hl7.org/CodeSystem/observation-category",
                "code": "laboratory"
              }
            ]
          }
        ],
        "code": {
          "coding": [
            {
              "code": "4548-4",
              "system": "http://loinc.org",
              "display": "Hemoglobin A1c/Hemoglobin.total in Blood"
            }
          ],
          "text": "Hemoglobin A1c/Hemoglobin.total in Blood"
        },
        "valueQuantity": {
          "system": "http://unitsofmeasure.org",
          "value": 2.9,
          "unit": "%",
          "code": "%"
        },
        "referenceRange": [
          {
            "low": {
              "value": 4.5,
              "code": "%",
              "system": "http://unitsofmeasure.org"
            }
          },
          {
            "high": {
              "value": 6.4,
              "code": "%",
              "system": "http://unitsofmeasure.org"
            }
          }
        ],
        "interpretation": [
          {
            "coding": [
              {
                "code": "L",
                "system": "http://terminology.hl7.org/CodeSystem/v3-ObservationInterpretation",
                "display": "Low"
              }
            ]
          }
        ],
        "text": {
          "status": "generated",
          "div": "<div xmlns=\"http://www.w3.org/1999/xhtml\"><table class=\"hl7__eu__lab__report\"><tr><th>Test</th><th>31-Aug-2023</th><th>Reference&#xA0;Range</th><th>Unit</th></tr><tr><td>Hemoglobin A1c/Hemoglobin.total in Blood</td><td>2.9</td><td>4.5 - 6.4</td><td>L</td><td>%</td></tr></table></div>"
        },
        "status": "final",
        "subject": {
          "reference": "urn:uuid:917d54ca-7abf-4494-a840-8127afb68d37",
          "display": "Pelayo Casal"
        },
        "effectiveDateTime": "2023-08-31T05:38:59Z",
        "specimen": {
          "reference": "urn:uuid:53772869-0876-4f21-aa36-9a7b6ece5eab"
        }
      }
    },
    {
      "fullUrl": "urn:uuid:b54544c3-aa57-4a51-93ae-f11d2bf6aa7c",
      "resource": {
        "resourceType": "Observation",
        "id": "b54544c3-aa57-4a51-93ae-f11d2bf6aa7c",
        "meta": {
          "profile": [
            "http://hl7.eu/fhir/laboratory/StructureDefinition/Observation-resultslab-eu-lab"
          ]
        },
        "performer": [
          {
            "display": "The Central European Lab"
          }
        ],
        "category": [
          {
            "coding": [
              {
                "system": "http://terminology.hl7.org/CodeSystem/observation-category",
                "code": "laboratory"
              }
            ]
          }
        ],
        "code": {
          "coding": [
            {
              "code": "2339-0",
              "system": "http://loinc.org",
              "display": "Glucose [Mass/volume] in Blood"
            }
          ],
          "text": "Glucose [Mass/volume] in Blood"
        },
        "valueQuantity": {
          "system": "http://unitsofmeasure.org",
          "value": 90.2,
          "unit": "mg/dL",
          "code": "mg/dL"
        },
        "referenceRange": [
          {
            "low": {
              "value": 70,
              "code": "mg/dL",
              "system": "http://unitsofmeasure.org"
            }
          },
          {
            "high": {
              "value": 140,
              "code": "mg/dL",
              "system": "http://unitsofmeasure.org"
            }
          }
        ],
        "text": {
          "status": "generated",
          "div": "<div xmlns=\"http://www.w3.org/1999/xhtml\"><table class=\"hl7__eu__lab__report\"><tr><th>Test</th><th>31-Aug-2023</th><th>Reference&#xA0;Range</th><th>Unit</th></tr><tr><td>Glucose [Mass/volume] in Blood</td><td>90.2</td><td>70 - 140</td><td></td><td>mg/dL</td></tr></table></div>"
        },
        "status": "final",
        "subject": {
          "reference": "urn:uuid:917d54ca-7abf-4494-a840-8127afb68d37",
          "display": "Pelayo Casal"
        },
        "effectiveDateTime": "2023-08-31T05:38:59Z",
        "specimen": {
          "reference": "urn:uuid:53772869-0876-4f21-aa36-9a7b6ece5eab"
        }
      }
    },
    {
      "fullUrl": "urn:uuid:d0297b62-1db4-4904-a4c7-b57c7ad21aaa",
      "resource": {
        "resourceType": "Observation",
        "id": "d0297b62-1db4-4904-a4c7-b57c7ad21aaa",
        "meta": {
          "profile": [
            "http://hl7.eu/fhir/laboratory/StructureDefinition/Observation-resultslab-eu-lab"
          ]
        },
        "performer": [
          {
            "display": "The Central European Lab"
          }
        ],
        "category": [
          {
            "coding": [
              {
                "system": "http://terminology.hl7.org/CodeSystem/observation-category",
                "code": "laboratory"
              }
            ]
          }
        ],
        "code": {
          "coding": [
            {
              "code": "6299-2",
              "system": "http://loinc.org",
              "display": "Urea nitrogen [Mass/volume] in Blood"
            }
          ],
          "text": "Urea nitrogen [Mass/volume] in Blood"
        },
        "valueQuantity": {
          "system": "http://unitsofmeasure.org",
          "value": 18.6,
          "unit": "mg/dL",
          "code": "mg/dL"
        },
        "referenceRange": [
          {
            "low": {
              "value": 7,
              "code": "mg/dL",
              "system": "http://unitsofmeasure.org"
            }
          },
          {
            "high": {
              "value": 25,
              "code": "mg/dL",
              "system": "http://unitsofmeasure.org"
            }
          }
        ],
        "text": {
          "status": "generated",
          "div": "<div xmlns=\"http://www.w3.org/1999/xhtml\"><table class=\"hl7__eu__lab__report\"><tr><th>Test</th><th>31-Aug-2023</th><th>Reference&#xA0;Range</th><th>Unit</th></tr><tr><td>Urea nitrogen [Mass/volume] in Blood</td><td>18.6</td><td>7 - 25</td><td></td><td>mg/dL</td></tr></table></div>"
        },
        "status": "final",
        "subject": {
          "reference": "urn:uuid:917d54ca-7abf-4494-a840-8127afb68d37",
          "display": "Pelayo Casal"
        },
        "effectiveDateTime": "2023-08-31T05:38:59Z",
        "specimen": {
          "reference": "urn:uuid:53772869-0876-4f21-aa36-9a7b6ece5eab"
        }
      }
    },
    {
      "fullUrl": "urn:uuid:47d5d92f-a261-4947-822e-b38c180e19c7",
      "resource": {
        "resourceType": "Observation",
        "id": "47d5d92f-a261-4947-822e-b38c180e19c7",
        "meta": {
          "profile": [
            "http://hl7.eu/fhir/laboratory/StructureDefinition/Observation-resultslab-eu-lab"
          ]
        },
        "performer": [
          {
            "display": "The Central European Lab"
          }
        ],
        "category": [
          {
            "coding": [
              {
                "system": "http://terminology.hl7.org/CodeSystem/observation-category",
                "code": "laboratory"
              }
            ]
          }
        ],
        "code": {
          "coding": [
            {
              "code": "38483-4",
              "system": "http://loinc.org",
              "display": "Creatinine [Mass/volume] in Blood"
            }
          ],
          "text": "Creatinine [Mass/volume] in Blood"
        },
        "valueQuantity": {
          "system": "http://unitsofmeasure.org",
          "value": 1.5,
          "unit": "mg/dL",
          "code": "mg/dL"
        },
        "referenceRange": [
          {
            "low": {
              "value": 0.9,
              "code": "mg/dL",
              "system": "http://unitsofmeasure.org"
            }
          },
          {
            "high": {
              "value": 1.3,
              "code": "mg/dL",
              "system": "http://unitsofmeasure.org"
            }
          }
        ],
        "interpretation": [
          {
            "coding": [
              {
                "code": "H",
                "system": "http://terminology.hl7.org/CodeSystem/v3-ObservationInterpretation",
                "display": "High"
              }
            ]
          }
        ],
        "text": {
          "status": "generated",
          "div": "<div xmlns=\"http://www.w3.org/1999/xhtml\"><table class=\"hl7__eu__lab__report\"><tr><th>Test</th><th>31-Aug-2023</th><th>Reference&#xA0;Range</th><th>Unit</th></tr><tr><td>Creatinine [Mass/volume] in Blood</td><td>1.5</td><td>0.9 - 1.3</td><td>H</td><td>mg/dL</td></tr></table></div>"
        },
        "status": "final",
        "subject": {
          "reference": "urn:uuid:917d54ca-7abf-4494-a840-8127afb68d37",
          "display": "Pelayo Casal"
        },
        "effectiveDateTime": "2023-08-31T05:38:59Z",
        "specimen": {
          "reference": "urn:uuid:53772869-0876-4f21-aa36-9a7b6ece5eab"
        }
      }
    },
    {
      "fullUrl": "urn:uuid:a6735b18-de20-482f-bc20-2d6e69ba58d5",
      "resource": {
        "resourceType": "Observation",
        "id": "a6735b18-de20-482f-bc20-2d6e69ba58d5",
        "meta": {
          "profile": [
            "http://hl7.eu/fhir/laboratory/StructureDefinition/Observation-resultslab-eu-lab"
          ]
        },
        "performer": [
          {
            "display": "The Central European Lab"
          }
        ],
        "category": [
          {
            "coding": [
              {
                "system": "http://terminology.hl7.org/CodeSystem/observation-category",
                "code": "laboratory"
              }
            ]
          }
        ],
        "code": {
          "coding": [
            {
              "code": "49765-1",
              "system": "http://loinc.org",
              "display": "Calcium [Mass/volume] in Blood"
            }
          ],
          "text": "Calcium [Mass/volume] in Blood"
        },
        "valueQuantity": {
          "system": "http://unitsofmeasure.org",
          "value": 9.3,
          "unit": "mg/dL",
          "code": "mg/dL"
        },
        "referenceRange": [
          {
            "low": {
              "value": 8.6,
              "code": "mg/dL",
              "system": "http://unitsofmeasure.org"
            }
          },
          {
            "high": {
              "value": 10.2,
              "code": "mg/dL",
              "system": "http://unitsofmeasure.org"
            }
          }
        ],
        "text": {
          "status": "generated",
          "div": "<div xmlns=\"http://www.w3.org/1999/xhtml\"><table class=\"hl7__eu__lab__report\"><tr><th>Test</th><th>31-Aug-2023</th><th>Reference&#xA0;Range</th><th>Unit</th></tr><tr><td>Calcium [Mass/volume] in Blood</td><td>9.3</td><td>8.6 - 10.2</td><td></td><td>mg/dL</td></tr></table></div>"
        },
        "status": "final",
        "subject": {
          "reference": "urn:uuid:917d54ca-7abf-4494-a840-8127afb68d37",
          "display": "Pelayo Casal"
        },
        "effectiveDateTime": "2023-08-31T05:38:59Z",
        "specimen": {
          "reference": "urn:uuid:53772869-0876-4f21-aa36-9a7b6ece5eab"
        }
      }
    },
    {
      "fullUrl": "urn:uuid:067571fb-d03b-4871-ac5e-4deebd1f2273",
      "resource": {
        "resourceType": "Observation",
        "id": "067571fb-d03b-4871-ac5e-4deebd1f2273",
        "meta": {
          "profile": [
            "http://hl7.eu/fhir/laboratory/StructureDefinition/Observation-resultslab-eu-lab"
          ]
        },
        "performer": [
          {
            "display": "The Central European Lab"
          }
        ],
        "category": [
          {
            "coding": [
              {
                "system": "http://terminology.hl7.org/CodeSystem/observation-category",
                "code": "laboratory"
              }
            ]
          }
        ],
        "code": {
          "coding": [
            {
              "code": "2947-0",
              "system": "http://loinc.org",
              "display": "Sodium [Moles/volume] in Blood"
            }
          ],
          "text": "Sodium [Moles/volume] in Blood"
        },
        "valueQuantity": {
          "system": "http://unitsofmeasure.org",
          "value": 137.9,
          "unit": "mmol/L",
          "code": "mmol/L"
        },
        "referenceRange": [
          {
            "low": {
              "value": 135,
              "code": "mmol/L",
              "system": "http://unitsofmeasure.org"
            }
          },
          {
            "high": {
              "value": 145,
              "code": "mmol/L",
              "system": "http://unitsofmeasure.org"
            }
          }
        ],
        "text": {
          "status": "generated",
          "div": "<div xmlns=\"http://www.w3.org/1999/xhtml\"><table class=\"hl7__eu__lab__report\"><tr><th>Test</th><th>31-Aug-2023</th><th>Reference&#xA0;Range</th><th>Unit</th></tr><tr><td>Sodium [Moles/volume] in Blood</td><td>137.9</td><td>135 - 145</td><td></td><td>mmol/L</td></tr></table></div>"
        },
        "status": "final",
        "subject": {
          "reference": "urn:uuid:917d54ca-7abf-4494-a840-8127afb68d37",
          "display": "Pelayo Casal"
        },
        "effectiveDateTime": "2023-08-31T05:38:59Z",
        "specimen": {
          "reference": "urn:uuid:53772869-0876-4f21-aa36-9a7b6ece5eab"
        }
      }
    },
    {
      "fullUrl": "urn:uuid:d6d4ee14-c5a5-42ea-9c94-dbbea014a491",
      "resource": {
        "resourceType": "Observation",
        "id": "d6d4ee14-c5a5-42ea-9c94-dbbea014a491",
        "meta": {
          "profile": [
            "http://hl7.eu/fhir/laboratory/StructureDefinition/Observation-resultslab-eu-lab"
          ]
        },
        "performer": [
          {
            "display": "The Central European Lab"
          }
        ],
        "category": [
          {
            "coding": [
              {
                "system": "http://terminology.hl7.org/CodeSystem/observation-category",
                "code": "laboratory"
              }
            ]
          }
        ],
        "code": {
          "coding": [
            {
              "code": "6298-4",
              "system": "http://loinc.org",
              "display": "Potassium [Moles/volume] in Blood"
            }
          ],
          "text": "Potassium [Moles/volume] in Blood"
        },
        "valueQuantity": {
          "system": "http://unitsofmeasure.org",
          "value": 4.2,
          "unit": "mmol/L",
          "code": "mmol/L"
        },
        "referenceRange": [
          {
            "low": {
              "value": 3.5,
              "code": "mmol/L",
              "system": "http://unitsofmeasure.org"
            }
          },
          {
            "high": {
              "value": 5.1,
              "code": "mmol/L",
              "system": "http://unitsofmeasure.org"
            }
          }
        ],
        "text": {
          "status": "generated",
          "div": "<div xmlns=\"http://www.w3.org/1999/xhtml\"><table class=\"hl7__eu__lab__report\"><tr><th>Test</th><th>31-Aug-2023</th><th>Reference&#xA0;Range</th><th>Unit</th></tr><tr><td>Potassium [Moles/volume] in Blood</td><td>4.2</td><td>3.5 - 5.1</td><td></td><td>mmol/L</td></tr></table></div>"
        },
        "status": "final",
        "subject": {
          "reference": "urn:uuid:917d54ca-7abf-4494-a840-8127afb68d37",
          "display": "Pelayo Casal"
        },
        "effectiveDateTime": "2023-08-31T05:38:59Z",
        "specimen": {
          "reference": "urn:uuid:53772869-0876-4f21-aa36-9a7b6ece5eab"
        }
      }
    },
    {
      "fullUrl": "urn:uuid:ec785f17-6664-4b47-9220-5712dcefedda",
      "resource": {
        "resourceType": "Observation",
        "id": "ec785f17-6664-4b47-9220-5712dcefedda",
        "meta": {
          "profile": [
            "http://hl7.eu/fhir/laboratory/StructureDefinition/Observation-resultslab-eu-lab"
          ]
        },
        "performer": [
          {
            "display": "The Central European Lab"
          }
        ],
        "category": [
          {
            "coding": [
              {
                "system": "http://terminology.hl7.org/CodeSystem/observation-category",
                "code": "laboratory"
              }
            ]
          }
        ],
        "code": {
          "coding": [
            {
              "code": "2069-3",
              "system": "http://loinc.org",
              "display": "Chloride [Moles/volume] in Blood"
            }
          ],
          "text": "Chloride [Moles/volume] in Blood"
        },
        "valueQuantity": {
          "system": "http://unitsofmeasure.org",
          "value": 104.3,
          "unit": "mmol/L",
          "code": "mmol/L"
        },
        "referenceRange": [
          {
            "low": {
              "value": 98,
              "code": "mmol/L",
              "system": "http://unitsofmeasure.org"
            }
          },
          {
            "high": {
              "value": 108,
              "code": "mmol/L",
              "system": "http://unitsofmeasure.org"
            }
          }
        ],
        "text": {
          "status": "generated",
          "div": "<div xmlns=\"http://www.w3.org/1999/xhtml\"><table class=\"hl7__eu__lab__report\"><tr><th>Test</th><th>31-Aug-2023</th><th>Reference&#xA0;Range</th><th>Unit</th></tr><tr><td>Chloride [Moles/volume] in Blood</td><td>104.3</td><td>98 - 108</td><td></td><td>mmol/L</td></tr></table></div>"
        },
        "status": "final",
        "subject": {
          "reference": "urn:uuid:917d54ca-7abf-4494-a840-8127afb68d37",
          "display": "Pelayo Casal"
        },
        "effectiveDateTime": "2023-08-31T05:38:59Z",
        "specimen": {
          "reference": "urn:uuid:53772869-0876-4f21-aa36-9a7b6ece5eab"
        }
      }
    },
    {
      "fullUrl": "urn:uuid:1b12e92b-d930-4165-9d27-cb2794bda943",
      "resource": {
        "resourceType": "Observation",
        "id": "1b12e92b-d930-4165-9d27-cb2794bda943",
        "meta": {
          "profile": [
            "http://hl7.eu/fhir/laboratory/StructureDefinition/Observation-resultslab-eu-lab"
          ]
        },
        "performer": [
          {
            "display": "The Central European Lab"
          }
        ],
        "category": [
          {
            "coding": [
              {
                "system": "http://terminology.hl7.org/CodeSystem/observation-category",
                "code": "laboratory"
              }
            ]
          }
        ],
        "code": {
          "coding": [
            {
              "code": "20565-8",
              "system": "http://loinc.org",
              "display": "Carbon dioxide, total [Moles/volume] in Blood"
            }
          ],
          "text": "Carbon dioxide, total [Moles/volume] in Blood"
        },
        "valueQuantity": {
          "system": "http://unitsofmeasure.org",
          "value": 28.2,
          "unit": "mmol/L",
          "code": "mmol/L"
        },
        "referenceRange": [
          {
            "low": {
              "value": 22,
              "code": "mmol/L",
              "system": "http://unitsofmeasure.org"
            }
          },
          {
            "high": {
              "value": 32,
              "code": "mmol/L",
              "system": "http://unitsofmeasure.org"
            }
          }
        ],
        "text": {
          "status": "generated",
          "div": "<div xmlns=\"http://www.w3.org/1999/xhtml\"><table class=\"hl7__eu__lab__report\"><tr><th>Test</th><th>31-Aug-2023</th><th>Reference&#xA0;Range</th><th>Unit</th></tr><tr><td>Carbon dioxide, total [Moles/volume] in Blood</td><td>28.2</td><td>22 - 32</td><td></td><td>mmol/L</td></tr></table></div>"
        },
        "status": "final",
        "subject": {
          "reference": "urn:uuid:917d54ca-7abf-4494-a840-8127afb68d37",
          "display": "Pelayo Casal"
        },
        "effectiveDateTime": "2023-08-31T05:38:59Z",
        "specimen": {
          "reference": "urn:uuid:53772869-0876-4f21-aa36-9a7b6ece5eab"
        }
      }
    },
    {
      "fullUrl": "urn:uuid:5498ac20-61bd-4a3c-adcb-50d1aa3855fc",
      "resource": {
        "resourceType": "Device",
        "id": "5498ac20-61bd-4a3c-adcb-50d1aa3855fc",
        "deviceName": [
          {
            "name": "SYNDERAI Synthetic Generator",
            "type": "manufacturer-name"
          }
        ],
        "version": [
          {
            "value": "5.0"
          }
        ],
        "text": {
          "status": "generated",
          "div": "<div xmlns=\"http://www.w3.org/1999/xhtml\">SYNDERAI Synthetic Generator v5.0</div>"
        },
        "status": "active\"",
        "distinctIdentifier": "synderai-generator-50",
        "manufacturer": "SYNDERAI Project"
      }
    },
    {
      "fullUrl": "urn:uuid:afce0df7-8016-40bb-84d7-a71798e85f78",
      "resource": {
        "resourceType": "Provenance",
        "id": "afce0df7-8016-40bb-84d7-a71798e85f78",
        "target": [
          {
            "reference": "Patient/917d54ca-7abf-4494-a840-8127afb68d37"
          },
          {
            "reference": "Bundle/3a77247b-8440-489e-82fc-27037268bd4e"
          },
          {
            "reference": "Composition/c41c58d4-dfbd-4e05-94f4-1e6955e874f4"
          },
          {
            "reference": "PractitionerRole/4860ad34-906e-4a60-83fe-0ffc4023c526"
          },
          {
            "reference": "Practitioner/a454c706-af42-4c72-b4e9-84e492646175"
          },
          {
            "reference": "PractitionerRole/ec9f113e-2c33-46b3-9531-1d2a87316529"
          },
          {
            "reference": "Organization/dc5348d2-63c3-4b81-813a-d87cb9a3745d"
          }
        ],
        "activity": {
          "text": "Synthetic Example Data Generation"
        },
        "policy": [
          "https://synderai.net/synderai-synthetic-data-policy"
        ],
        "agent": [
          {
            "type": {
              "text": "author"
            },
            "who": {
              "reference": "Device/5498ac20-61bd-4a3c-adcb-50d1aa3855fc"
            }
          }
        ],
        "reason": [
          {
            "text": "Interoperability Testing and Training (non-clinical use)"
          }
        ],
        "text": {
          "status": "generated",
          "div": "<div xmlns=\"http://www.w3.org/1999/xhtml\">Provenance for SYNDERAI Synthetic Example Data Resource</div>"
        },
        "recorded": "2023-08-31T07:38:59Z"
      }
    },
    {
      "fullUrl": "urn:uuid:4860ad34-906e-4a60-83fe-0ffc4023c526",
      "resource": {
        "resourceType": "PractitionerRole",
        "id": "4860ad34-906e-4a60-83fe-0ffc4023c526",
        "meta": {
          "profile": [
            "http://hl7.eu/fhir/base/StructureDefinition/practitionerRole-eu"
          ]
        },
        "text": {
          "status": "generated",
          "div": "<div xmlns=\"http://www.w3.org/1999/xhtml\">Laboratory Role Id: 4860ad34-906e-4a60-83fe-0ffc4023c526</div>"
        },
        "practitioner": {
          "reference": "urn:uuid:a454c706-af42-4c72-b4e9-84e492646175"
        }
      }
    },
    {
      "fullUrl": "urn:uuid:a454c706-af42-4c72-b4e9-84e492646175",
      "resource": {
        "resourceType": "Practitioner",
        "id": "a454c706-af42-4c72-b4e9-84e492646175",
        "meta": {
          "profile": [
            "http://hl7.eu/fhir/base/StructureDefinition/practitioner-eu"
          ]
        },
        "identifier": [
          {
            "assigner": {
              "display": "HL7 Europe"
            },
            "system": "urn:oid:2.16.840.1.113883.2.51.999",
            "value": "ece2fea0-5953-4f2c-9d88-0c293f5618b5"
          }
        ],
        "name": [
          {
            "prefix": [
              "dr"
            ],
            "given": [
              "Ex"
            ],
            "family": "Ample"
          }
        ],
        "address": [
          {
            "line": [
              "Laboratoire Central Européenne",
              "Boulevard du Jardin Botanique 32"
            ],
            "postalCode": "1000",
            "city": "Brussels",
            "country": "Belgium"
          }
        ],
        "text": {
          "status": "generated",
          "div": "<div xmlns=\"http://www.w3.org/1999/xhtml\">Laboratory: Laboratoire Central Européenne, 1000 Brussels, Belgium</div>"
        }
      }
    }
  ],
  "type": "document",
  "timestamp": "2023-08-31T07:38:59Z"
}
