{
  "resourceType": "Bundle",
  "id": "081beaf2-b3d2-42f3-a71f-2005f0ebde52",
  "meta": {
    "profile": [
      "http://hl7.eu/fhir/laboratory/StructureDefinition/Bundle-eu-lab"
    ]
  },
  "identifier": {
    "assigner": {
      "display": "HL7 Europe"
    },
    "system": "urn:oid:2.16.840.1.113883.2.51.999",
    "value": "5bc809e5-db86-44bd-8c54-c4daca32cc6e"
  },
  "entry": [
    {
      "fullUrl": "urn:uuid:2a53d1e6-e59b-4d96-8c24-c1100ffc179d",
      "resource": {
        "resourceType": "Composition",
        "id": "2a53d1e6-e59b-4d96-8c24-c1100ffc179d",
        "meta": {
          "profile": [
            "http://hl7.eu/fhir/laboratory/StructureDefinition/Composition-eu-lab"
          ]
        },
        "identifier": {
          "assigner": {
            "display": "HL7 Europe"
          },
          "system": "urn:oid:2.16.840.1.113883.2.51.999",
          "value": "d0d4fcb7-acc7-4176-bd32-f60a090fe13a"
        },
        "author": [
          {
            "reference": "urn:uuid:6bb21e96-f63b-46d4-aea3-58284514339b"
          }
        ],
        "category": [
          {
            "coding": [
              {
                "code": "26436-6",
                "system": "http://loinc.org",
                "display": "Laboratory studies (set)"
              }
            ]
          }
        ],
        "type": {
          "coding": [
            {
              "code": "11502-2",
              "system": "http://loinc.org",
              "display": "Laboratory report"
            }
          ],
          "text": "Laboratory Report"
        },
        "section": [
          {
            "code": {
              "coding": [
                {
                  "code": "26436-6",
                  "system": "http://loinc.org",
                  "display": "Laboratory studies (set)"
                }
              ],
              "text": "Laboratory studies"
            },
            "section": [
              {
                "code": {
                  "coding": [
                    {
                      "code": "$18719-5",
                      "system": "http://loinc.org",
                      "display": "Chemistry studies (set)"
                    }
                  ],
                  "text": "Chemistry"
                },
                "entry": [
                  {
                    "reference": "urn:uuid:3afa3f88-1559-43c5-8e7c-dee865a0a50c"
                  },
                  {
                    "reference": "urn:uuid:3c90d226-3a2b-4846-8d9c-c31d2897c119"
                  },
                  {
                    "reference": "urn:uuid:b7184d46-b541-4c70-b96b-176ac9ac8d21"
                  },
                  {
                    "reference": "urn:uuid:0493db6f-b628-449e-9e3b-1980fdaa0137"
                  },
                  {
                    "reference": "urn:uuid:732ac3df-1c36-4564-8349-d557a781731f"
                  },
                  {
                    "reference": "urn:uuid:a0fc9c99-70a8-42de-8047-bdcc0654866a"
                  },
                  {
                    "reference": "urn:uuid:a61ca7b5-00fc-4f4f-9400-a0f5fcec0b64"
                  },
                  {
                    "reference": "urn:uuid:168354ca-d6e2-42ad-b846-558fc919bc99"
                  },
                  {
                    "reference": "urn:uuid:ba394e4f-6918-4c63-ac36-91a67c477d90"
                  },
                  {
                    "reference": "urn:uuid:e6304654-2322-4b1a-906b-85a66e25a110"
                  },
                  {
                    "reference": "urn:uuid:eed99fcc-4fbd-4d66-af3f-2605f0a001d4"
                  },
                  {
                    "reference": "urn:uuid:35e7c058-fd07-4745-8730-c365ace647e0"
                  },
                  {
                    "reference": "urn:uuid:b8bd9f2b-ef31-4483-82c2-523c1c78ce74"
                  },
                  {
                    "reference": "urn:uuid:fb43b886-cbc9-46b0-831a-b2c4a52a0067"
                  },
                  {
                    "reference": "urn:uuid:d2cffa36-4ced-4639-b1f8-b1e92bef50b4"
                  },
                  {
                    "reference": "urn:uuid:9c40b34c-02e8-46db-a7d7-fbd1be8e2b35"
                  },
                  {
                    "reference": "urn:uuid:9070a20f-51df-4d4c-a463-d2cd94b895c3"
                  },
                  {
                    "reference": "urn:uuid:34c50577-114c-4b24-ae98-53013fe97df2"
                  },
                  {
                    "reference": "urn:uuid:01842f2d-055f-406f-a192-e55dcef2e97e"
                  },
                  {
                    "reference": "urn:uuid:79b2932c-ebfd-4245-82e6-43d27cf1410a"
                  },
                  {
                    "reference": "urn:uuid:56856ee3-ce72-40ac-b0a1-cd44055be65e"
                  },
                  {
                    "reference": "urn:uuid:e752ba0c-27cc-4980-a7a3-128209740bb0"
                  }
                ],
                "text": {
                  "status": "generated",
                  "div": "<div xmlns=\"http://www.w3.org/1999/xhtml\"><h3>Chemistry</h3><table class=\"hl7__eu__lab__report\"><thead><tr><th>Test</th><th>08-AUG-2024</th><th>Reference&#xA0;Range</th><th>Unit</th></tr></thead><tbody><tr><td>Glucose [Mass/volume] in Serum or Plasma</td><td>78.7</td><td>70 - 139</td><td>mg/dL</td></tr><tr><td>Urea nitrogen [Mass/volume] in Serum or Plasma</td><td>9.2</td><td>7 - 20</td><td>mg/dL</td></tr><tr><td>Creatinine [Mass/volume] in Serum or Plasma</td><td><strong>1.9 H</strong></td><td>0.6 - 1.1</td><td>mg/dL</td></tr><tr><td>Calcium [Mass/volume] in Serum or Plasma</td><td>9.9</td><td>8.5 - 10.4</td><td>mg/dL</td></tr><tr><td>Sodium [Moles/volume] in Serum or Plasma</td><td>143.3</td><td>135 - 145</td><td>mmol/L</td></tr><tr><td>Potassium [Moles/volume] in Serum or Plasma</td><td>4.3</td><td>3.5 - 5.1</td><td>mmol/L</td></tr><tr><td>Chloride [Moles/volume] in Serum or Plasma</td><td>103.7</td><td>98 - 110</td><td>mmol/L</td></tr><tr><td>Carbon dioxide, total [Moles/volume] in Serum or Plasma</td><td><strong>21.2 L</strong></td><td>22 - 32</td><td>mmol/L</td></tr><tr><td>Ketones [Presence] in Urine by Test strip</td><td>Urine ketone test = +</td><td></td><td></td></tr><tr><td>Hemoglobin A1c/Hemoglobin.total in Blood</td><td><strong>2.8 L</strong></td><td>4 - 6</td><td>%</td></tr><tr><td>Glucose [Mass/volume] in Blood</td><td>78.7</td><td>70 - 100</td><td>mg/dL</td></tr><tr><td>Urea nitrogen [Mass/volume] in Blood</td><td>9.2</td><td>7 - 20</td><td>mg/dL</td></tr><tr><td>Creatinine [Mass/volume] in Blood</td><td><strong>2.0 H</strong></td><td>0.6 - 1.3</td><td>mg/dL</td></tr><tr><td>Calcium [Mass/volume] in Blood</td><td>9.9</td><td>8.6 - 10.4</td><td>mg/dL</td></tr><tr><td>Sodium [Moles/volume] in Blood</td><td>143.3</td><td>135 - 145</td><td>mmol/L</td></tr><tr><td>Potassium [Moles/volume] in Blood</td><td>4.3</td><td>3.5 - 5.1</td><td>mmol/L</td></tr><tr><td>Chloride [Moles/volume] in Blood</td><td>103.7</td><td>98 - 110</td><td>mmol/L</td></tr><tr><td>Carbon dioxide, total [Moles/volume] in Blood</td><td><strong>21.2 L</strong></td><td>22 - 29</td><td>mmol/L</td></tr><tr><td>Cholesterol [Mass/volume] in Serum or Plasma</td><td>158.2</td><td>125 - 200</td><td>mg/dL</td></tr><tr><td>Triglyceride [Mass/volume] in Serum or Plasma</td><td>107.3</td><td>35 - 150</td><td>mg/dL</td></tr><tr><td>Cholesterol in LDL [Mass/volume] in Serum or Plasma by Direct assay</td><td>85.2</td><td>0 - 130</td><td>mg/dL</td></tr><tr><td>Cholesterol in HDL [Mass/volume] in Serum or Plasma</td><td>51.6</td><td>46 - 82</td><td>mg/dL</td></tr></tbody></table></div>"
                },
                "title": "Chemistry"
              },
              {
                "code": {
                  "coding": [
                    {
                      "code": "$18729-4",
                      "system": "http://loinc.org",
                      "display": "Urinalysis studies (set)"
                    }
                  ],
                  "text": "Urinalysis"
                },
                "entry": [
                  {
                    "reference": "urn:uuid:ca87a7bc-d9a4-4023-98ed-f5e93073553b"
                  },
                  {
                    "reference": "urn:uuid:d27caf19-bc59-4a4b-82c6-d7c1a72ee99e"
                  },
                  {
                    "reference": "urn:uuid:4da9d97b-59d3-4674-bacd-399e6053652f"
                  },
                  {
                    "reference": "urn:uuid:23b93881-ef65-46f9-a034-b8f440b5c650"
                  },
                  {
                    "reference": "urn:uuid:177e73ce-0c57-4811-9711-ea89eb35ba00"
                  },
                  {
                    "reference": "urn:uuid:e76def26-839e-4d17-a349-e88f6cc92d69"
                  },
                  {
                    "reference": "urn:uuid:bd59ed67-97ce-4adc-a08d-df22b1216836"
                  },
                  {
                    "reference": "urn:uuid:10c5424b-e42e-4302-87df-213924a8aa51"
                  },
                  {
                    "reference": "urn:uuid:5140b0e3-b795-4f60-bcb7-e8507f086d9f"
                  },
                  {
                    "reference": "urn:uuid:ac13e7b3-be2a-4b14-9eb5-1e499cdaf901"
                  },
                  {
                    "reference": "urn:uuid:bc5d6a63-6005-4f17-9961-1478cadf4317"
                  },
                  {
                    "reference": "urn:uuid:1c092ec6-c953-4e9a-a57b-ab333b1053cd"
                  }
                ],
                "text": {
                  "status": "generated",
                  "div": "<div xmlns=\"http://www.w3.org/1999/xhtml\"><h3>Urinalysis</h3><table class=\"hl7__eu__lab__report\"><thead><tr><th>Test</th><th>08-AUG-2024</th><th>Reference&#xA0;Range</th><th>Unit</th></tr></thead><tbody><tr><td>Glucose [Mass/volume] in Urine by Test strip</td><td><strong>1.0 H</strong></td><td>0 - 0</td><td>mg/dL</td></tr><tr><td>Glucose [Presence] in Urine by Test strip</td><td>++</td><td></td><td></td></tr><tr><td>Bilirubin.total [Mass/volume] in Urine by Test strip</td><td>0.7</td><td>0 - 1.6</td><td>mg/dL</td></tr><tr><td>Bilirubin.total [Presence] in Urine by Test strip</td><td>Finding of bilirubin in urine</td><td></td><td></td></tr><tr><td>Ketones [Mass/volume] in Urine by Test strip</td><td><strong>5.0 H</strong></td><td>0 - 0.5</td><td>mg/dL</td></tr><tr><td>Specific gravity of Urine by Test strip</td><td><strong>1.0 L</strong></td><td>1.005 - 1.03</td><td>{nominal}</td></tr><tr><td>pH of Urine by Test strip</td><td>5.6</td><td>4.5 - 7.5</td><td>pH</td></tr><tr><td>Protein [Mass/volume] in Urine by Test strip</td><td><strong>256.8 H</strong></td><td>0 - 15</td><td>mg/dL</td></tr><tr><td>Protein [Presence] in Urine by Test strip</td><td>Urine protein test = ++</td><td></td><td></td></tr><tr><td>Nitrite [Presence] in Urine by Test strip</td><td>Urine nitrite negative</td><td></td><td></td></tr><tr><td>Hemoglobin [Presence] in Urine by Test strip</td><td>Urine blood test = negative</td><td></td><td></td></tr><tr><td>Leukocyte esterase [Presence] in Urine by Test strip</td><td>Urine leukocyte test negative</td><td></td><td></td></tr></tbody></table></div>"
                },
                "title": "Urinalysis"
              },
              {
                "code": {
                  "coding": [
                    {
                      "code": "$LP7846-1",
                      "system": "http://loinc.org",
                      "display": "Specimen information"
                    }
                  ],
                  "text": "Specimen information"
                },
                "entry": [
                  {
                    "reference": "urn:uuid:46e4e192-60f4-4027-9b40-4028f18c366f"
                  },
                  {
                    "reference": "urn:uuid:efd0f33b-dbcb-4782-b3bc-ac29bf41e2c6"
                  },
                  {
                    "reference": "urn:uuid:da3c3b63-a70a-4716-8064-4a355658faa0"
                  },
                  {
                    "reference": "urn:uuid:7d5a1168-c537-4ebd-9203-6b751805faec"
                  }
                ],
                "text": {
                  "status": "generated",
                  "div": "<div xmlns=\"http://www.w3.org/1999/xhtml\"><h3>Specimen information</h3><table class=\"hl7__eu__lab__report\"><thead><tr><th>Test</th><th>08-AUG-2024</th><th>Specimen</th><th></th></tr></thead><tbody><tr><td>Appearance of Urine</td><td>Cloudy urine</td><td>Urine</td><td></td></tr><tr><td>Odor of Urine</td><td>Urine smell ammoniacal</td><td>Urine</td><td></td></tr><tr><td>Clarity of Urine</td><td>Translucent</td><td>Urine</td><td></td></tr><tr><td>Color of Urine</td><td>Brown color</td><td>Urine</td><td></td></tr></tbody></table></div>"
                },
                "title": "Specimen information"
              }
            ],
            "title": "Laboratory Report"
          },
          {
            "text": {
              "status": "generated",
              "div": "<div xmlns=\"http://www.w3.org/1999/xhtml\"><h3>Annotation</h3><table class=\"hl7__eu__lab__report\"><tr><th>Conclusion and Recommendations based on this report and previous findings known to us</th></tr><tr><td>The patient shows elevated creatinine, low total CO₂, and significant proteinuria, suggesting possible renal impairment with metabolic acidosis. Urinalysis reveals glucosuria and ketonuria despite normal blood glucose and low HbA1c, which may indicate renal glycosuria or tubular dysfunction. Urine is cloudy, brown, and has low specific gravity, further supporting renal involvement. Lipid profile is within normal limits. Recommend nephrology evaluation and further assessment for possible tubular or glomerular pathology.</td></tr></table></div>"
            },
            "code": {
              "coding": [
                {
                  "system": "http://loinc.org",
                  "code": "48767-8",
                  "display": "Annotation comment"
                }
              ]
            },
            "title": "Annotation comment"
          }
        ],
        "status": "final",
        "subject": {
          "reference": "urn:uuid:839147f2-967a-4634-8b71-217f13f3a62b",
          "display": "Molly Jenkins"
        },
        "date": "2024-08-08T16:42:11Z",
        "title": "Laboratory Report",
        "confidentiality": "N"
      }
    },
    {
      "fullUrl": "urn:uuid:7780d3b0-d52f-426f-852e-bd48b9ff93d3",
      "resource": {
        "resourceType": "DiagnosticReport",
        "id": "7780d3b0-d52f-426f-852e-bd48b9ff93d3",
        "meta": {
          "profile": [
            "http://hl7.eu/fhir/laboratory/StructureDefinition/DiagnosticReport-eu-lab"
          ]
        },
        "identifier": [
          {
            "assigner": {
              "display": "HL7 Europe"
            },
            "system": "urn:oid:2.16.840.1.113883.2.51.999",
            "value": "2fbc39ee-5fd4-4395-851b-e497ac2c3c63"
          }
        ],
        "extension": [
          {
            "url": "http://hl7.org/fhir/5.0/StructureDefinition/extension-DiagnosticReport.composition",
            "valueReference": {
              "reference": "urn:uuid:d0d4fcb7-acc7-4176-bd32-f60a090fe13a"
            }
          }
        ],
        "category": [
          {
            "coding": [
              {
                "code": "26436-6",
                "system": "http://loinc.org",
                "display": "Laboratory studies (set)"
              }
            ]
          }
        ],
        "specimen": [
          {
            "reference": "urn:uuid:084ff8e8-361c-4654-bd5b-9347bb880162"
          },
          {
            "reference": "urn:uuid:7e19c79d-edc7-4a7f-bb73-6d4cf4f9b5db"
          },
          {
            "reference": "urn:uuid:175a4b06-b38e-4dc3-9add-96349c2753e6"
          }
        ],
        "result": [
          {
            "reference": "urn:uuid:3afa3f88-1559-43c5-8e7c-dee865a0a50c"
          },
          {
            "reference": "urn:uuid:3c90d226-3a2b-4846-8d9c-c31d2897c119"
          },
          {
            "reference": "urn:uuid:b7184d46-b541-4c70-b96b-176ac9ac8d21"
          },
          {
            "reference": "urn:uuid:0493db6f-b628-449e-9e3b-1980fdaa0137"
          },
          {
            "reference": "urn:uuid:732ac3df-1c36-4564-8349-d557a781731f"
          },
          {
            "reference": "urn:uuid:a0fc9c99-70a8-42de-8047-bdcc0654866a"
          },
          {
            "reference": "urn:uuid:a61ca7b5-00fc-4f4f-9400-a0f5fcec0b64"
          },
          {
            "reference": "urn:uuid:168354ca-d6e2-42ad-b846-558fc919bc99"
          },
          {
            "reference": "urn:uuid:46e4e192-60f4-4027-9b40-4028f18c366f"
          },
          {
            "reference": "urn:uuid:efd0f33b-dbcb-4782-b3bc-ac29bf41e2c6"
          },
          {
            "reference": "urn:uuid:da3c3b63-a70a-4716-8064-4a355658faa0"
          },
          {
            "reference": "urn:uuid:7d5a1168-c537-4ebd-9203-6b751805faec"
          },
          {
            "reference": "urn:uuid:ca87a7bc-d9a4-4023-98ed-f5e93073553b"
          },
          {
            "reference": "urn:uuid:d27caf19-bc59-4a4b-82c6-d7c1a72ee99e"
          },
          {
            "reference": "urn:uuid:4da9d97b-59d3-4674-bacd-399e6053652f"
          },
          {
            "reference": "urn:uuid:23b93881-ef65-46f9-a034-b8f440b5c650"
          },
          {
            "reference": "urn:uuid:177e73ce-0c57-4811-9711-ea89eb35ba00"
          },
          {
            "reference": "urn:uuid:ba394e4f-6918-4c63-ac36-91a67c477d90"
          },
          {
            "reference": "urn:uuid:e76def26-839e-4d17-a349-e88f6cc92d69"
          },
          {
            "reference": "urn:uuid:bd59ed67-97ce-4adc-a08d-df22b1216836"
          },
          {
            "reference": "urn:uuid:10c5424b-e42e-4302-87df-213924a8aa51"
          },
          {
            "reference": "urn:uuid:5140b0e3-b795-4f60-bcb7-e8507f086d9f"
          },
          {
            "reference": "urn:uuid:ac13e7b3-be2a-4b14-9eb5-1e499cdaf901"
          },
          {
            "reference": "urn:uuid:bc5d6a63-6005-4f17-9961-1478cadf4317"
          },
          {
            "reference": "urn:uuid:1c092ec6-c953-4e9a-a57b-ab333b1053cd"
          },
          {
            "reference": "urn:uuid:e6304654-2322-4b1a-906b-85a66e25a110"
          },
          {
            "reference": "urn:uuid:eed99fcc-4fbd-4d66-af3f-2605f0a001d4"
          },
          {
            "reference": "urn:uuid:35e7c058-fd07-4745-8730-c365ace647e0"
          },
          {
            "reference": "urn:uuid:b8bd9f2b-ef31-4483-82c2-523c1c78ce74"
          },
          {
            "reference": "urn:uuid:fb43b886-cbc9-46b0-831a-b2c4a52a0067"
          },
          {
            "reference": "urn:uuid:d2cffa36-4ced-4639-b1f8-b1e92bef50b4"
          },
          {
            "reference": "urn:uuid:9c40b34c-02e8-46db-a7d7-fbd1be8e2b35"
          },
          {
            "reference": "urn:uuid:9070a20f-51df-4d4c-a463-d2cd94b895c3"
          },
          {
            "reference": "urn:uuid:34c50577-114c-4b24-ae98-53013fe97df2"
          },
          {
            "reference": "urn:uuid:01842f2d-055f-406f-a192-e55dcef2e97e"
          },
          {
            "reference": "urn:uuid:79b2932c-ebfd-4245-82e6-43d27cf1410a"
          },
          {
            "reference": "urn:uuid:56856ee3-ce72-40ac-b0a1-cd44055be65e"
          },
          {
            "reference": "urn:uuid:e752ba0c-27cc-4980-a7a3-128209740bb0"
          }
        ],
        "status": "registered",
        "code": {
          "coding": [
            {
              "code": "11502-2",
              "system": "http://loinc.org",
              "display": "Laboratory report"
            }
          ]
        },
        "subject": {
          "reference": "urn:uuid:839147f2-967a-4634-8b71-217f13f3a62b",
          "display": "Molly Jenkins"
        }
      }
    },
    {
      "fullUrl": "urn:uuid:839147f2-967a-4634-8b71-217f13f3a62b",
      "resource": {
        "resourceType": "Patient",
        "id": "839147f2-967a-4634-8b71-217f13f3a62b",
        "meta": {
          "security": [
            {
              "system": "http://terminology.hl7.org/CodeSystem/v3-ActReason",
              "code": "HTEST"
            },
            {
              "system": "http://terminology.hl7.org/CodeSystem/v3-ActReason",
              "code": "TRAIN"
            }
          ],
          "tag": [
            {
              "system": "https://synderai.net/fhir/CodeSystem/tags",
              "code": "synthetic",
              "display": "SYNDERAI Synthetic data"
            }
          ],
          "profile": [
            "http://hl7.eu/fhir/base/StructureDefinition/patient-eu-core"
          ]
        },
        "identifier": [
          {
            "type": {
              "coding": [
                {
                  "code": "PT",
                  "system": "http://terminology.hl7.org/CodeSystem/v2-0203"
                }
              ]
            },
            "system": "http://ec.europa.eu/identifier/eci",
            "value": "7634-012682-0"
          },
          {
            "type": {
              "coding": [
                {
                  "code": "MR",
                  "system": "http://terminology.hl7.org/CodeSystem/v2-0203"
                }
              ]
            },
            "system": "http://local.setting.eu/identifier",
            "value": "9934a8eb-b6e1-34e1-edf5-57a0262d1bea"
          }
        ],
        "name": [
          {
            "family": "Jenkins"
          },
          {
            "given": [
              "Molly"
            ]
          },
          {
            "text": "Molly Jenkins"
          }
        ],
        "address": [
          {
            "line": [
              "98 Ali field"
            ],
            "use": "home",
            "type": "physical",
            "postalCode": "AB42",
            "city": "Port Jennamouth",
            "country": "United Kingdom"
          }
        ],
        "telecom": [
          {
            "system": "phone",
            "value": "(0118) 496 0334"
          }
        ],
        "extension": [
          {
            "url": "http://hl7.org/fhir/StructureDefinition/patient-nationality",
            "valueCodeableConcept": {
              "coding": [
                {
                  "code": "GB",
                  "system": "http://hl7.org/fhir/ValueSet/country"
                }
              ]
            }
          }
        ],
        "text": {
          "status": "generated",
          "div": "<div xmlns=\"http://www.w3.org/1999/xhtml\"><table class=\"hl7__ips\"><tr><td>Molly Jenkins</td><td>female</td><td>14-Aug-1967</td></tr></table></div>"
        },
        "gender": "female",
        "birthDate": "1967-08-14"
      }
    },
    {
      "fullUrl": "urn:uuid:f23bdd60-89a7-46ef-bac3-29ae0d7278d5",
      "resource": {
        "resourceType": "ServiceRequest",
        "id": "f23bdd60-89a7-46ef-bac3-29ae0d7278d5",
        "meta": {
          "profile": [
            "http://hl7.eu/fhir/laboratory/StructureDefinition/ServiceRequest-eu-lab"
          ]
        },
        "identifier": [
          {
            "system": "http://example.org",
            "value": "e0d26c39-5523-48b0-87ec-5b65a0548fcd"
          }
        ],
        "specimen": [
          {
            "reference": "urn:uuid:084ff8e8-361c-4654-bd5b-9347bb880162"
          },
          {
            "reference": "urn:uuid:7e19c79d-edc7-4a7f-bb73-6d4cf4f9b5db"
          },
          {
            "reference": "urn:uuid:175a4b06-b38e-4dc3-9add-96349c2753e6"
          }
        ],
        "reasonCode": [
          {
            "coding": [
              {
                "code": "431856006",
                "system": "http://snomed.info/sct",
                "display": "Chronic kidney disease stage 2"
              }
            ]
          },
          {
            "coding": [
              {
                "code": "90781000119102",
                "system": "http://snomed.info/sct",
                "display": "Microalbuminuria due to type 2 diabetes mellitus"
              }
            ]
          },
          {
            "coding": [
              {
                "code": "127013003",
                "system": "http://snomed.info/sct",
                "display": "Disorder of kidney due to diabetes mellitus"
              }
            ]
          },
          {
            "coding": [
              {
                "code": "431855005",
                "system": "http://snomed.info/sct",
                "display": "Chronic kidney disease stage 1"
              }
            ]
          },
          {
            "coding": [
              {
                "code": "15777000",
                "system": "http://snomed.info/sct",
                "display": "Prediabetes"
              }
            ]
          },
          {
            "coding": [
              {
                "code": "59621000",
                "system": "http://snomed.info/sct",
                "display": "Essential hypertension"
              }
            ]
          },
          {
            "coding": [
              {
                "code": "53827007",
                "system": "http://snomed.info/sct",
                "display": "Excessive salivation"
              }
            ]
          },
          {
            "coding": [
              {
                "code": "64859006",
                "system": "http://snomed.info/sct",
                "display": "Osteoporosis"
              }
            ]
          },
          {
            "coding": [
              {
                "code": "128188000",
                "system": "http://snomed.info/sct",
                "display": "Cerebral palsy"
              }
            ]
          },
          {
            "coding": [
              {
                "code": "235595009",
                "system": "http://snomed.info/sct",
                "display": "Gastroesophageal reflux disease"
              }
            ]
          }
        ],
        "status": "active",
        "intent": "order",
        "code": {
          "coding": [
            {
              "code": "108252007",
              "system": "http://snomed.info/sct",
              "display": "Laboratory procedure"
            }
          ]
        },
        "subject": {
          "reference": "urn:uuid:839147f2-967a-4634-8b71-217f13f3a62b",
          "display": "Molly Jenkins"
        },
        "requester": {
          "reference": "urn:uuid:de5f44a9-3763-4475-9046-36608941f53e"
        }
      }
    },
    {
      "fullUrl": "urn:uuid:de5f44a9-3763-4475-9046-36608941f53e",
      "resource": {
        "resourceType": "PractitionerRole",
        "id": "de5f44a9-3763-4475-9046-36608941f53e",
        "meta": {
          "profile": [
            "http://hl7.eu/fhir/base/StructureDefinition/practitionerRole-eu"
          ]
        },
        "text": {
          "status": "generated",
          "div": "<div xmlns=\"http://www.w3.org/1999/xhtml\">Provider Role Id: de5f44a9-3763-4475-9046-36608941f53e</div>"
        },
        "organization": {
          "reference": "urn:uuid:86786b3f-5cc7-4754-ac31-510b53f3b073"
        }
      }
    },
    {
      "fullUrl": "urn:uuid:86786b3f-5cc7-4754-ac31-510b53f3b073",
      "resource": {
        "resourceType": "Organization",
        "id": "86786b3f-5cc7-4754-ac31-510b53f3b073",
        "meta": {
          "profile": [
            "http://hl7.eu/fhir/base/StructureDefinition/organization-eu"
          ]
        },
        "identifier": [
          {
            "assigner": {
              "display": "HL7 Europe"
            },
            "system": "urn:oid:2.16.840.1.113883.2.51.999",
            "value": "6ac41eb5-e53b-4fbd-ac19-2db7b7251d91"
          }
        ],
        "address": [
          {
            "city": "Aberdeen",
            "postalCode": "AB11 6",
            "country": "United Kingdom"
          }
        ],
        "text": {
          "status": "generated",
          "div": "<div xmlns=\"http://www.w3.org/1999/xhtml\">Provider Organization: Aberdeen Community Health and Care Village</div>"
        },
        "name": "Aberdeen Community Health and Care Village"
      }
    },
    {
      "fullUrl": "urn:uuid:084ff8e8-361c-4654-bd5b-9347bb880162",
      "resource": {
        "resourceType": "Specimen",
        "id": "084ff8e8-361c-4654-bd5b-9347bb880162",
        "meta": {
          "profile": [
            "http://hl7.eu/fhir/laboratory/StructureDefinition/Specimen-eu-lab"
          ]
        },
        "collection": {
          "collectedDateTime": "2024-08-08"
        },
        "text": {
          "status": "generated",
          "div": "<div xmlns=\"http://www.w3.org/1999/xhtml\"><table class=\"hl7__eu__lab__report\"><tr><th>Specimen</th><th>Collection Date</th></tr><tr><td>Acellular blood (serum or plasma) specimen</td><td><span class=\"nb\">08-Aug-2024</span></td></tr></table></div>"
        },
        "type": {
          "coding": [
            {
              "code": "122592007",
              "system": "http://snomed.info/sct",
              "display": "Acellular blood (serum or plasma) specimen"
            }
          ]
        }
      }
    },
    {
      "fullUrl": "urn:uuid:7e19c79d-edc7-4a7f-bb73-6d4cf4f9b5db",
      "resource": {
        "resourceType": "Specimen",
        "id": "7e19c79d-edc7-4a7f-bb73-6d4cf4f9b5db",
        "meta": {
          "profile": [
            "http://hl7.eu/fhir/laboratory/StructureDefinition/Specimen-eu-lab"
          ]
        },
        "collection": {
          "collectedDateTime": "2024-08-08"
        },
        "text": {
          "status": "generated",
          "div": "<div xmlns=\"http://www.w3.org/1999/xhtml\"><table class=\"hl7__eu__lab__report\"><tr><th>Specimen</th><th>Collection Date</th></tr><tr><td>Urine specimen</td><td><span class=\"nb\">08-Aug-2024</span></td></tr></table></div>"
        },
        "type": {
          "coding": [
            {
              "code": "122575003",
              "system": "http://snomed.info/sct",
              "display": "Urine specimen"
            }
          ]
        }
      }
    },
    {
      "fullUrl": "urn:uuid:175a4b06-b38e-4dc3-9add-96349c2753e6",
      "resource": {
        "resourceType": "Specimen",
        "id": "175a4b06-b38e-4dc3-9add-96349c2753e6",
        "meta": {
          "profile": [
            "http://hl7.eu/fhir/laboratory/StructureDefinition/Specimen-eu-lab"
          ]
        },
        "collection": {
          "collectedDateTime": "2024-08-08"
        },
        "text": {
          "status": "generated",
          "div": "<div xmlns=\"http://www.w3.org/1999/xhtml\"><table class=\"hl7__eu__lab__report\"><tr><th>Specimen</th><th>Collection Date</th></tr><tr><td>Whole blood specimen (specimen)</td><td><span class=\"nb\">08-Aug-2024</span></td></tr></table></div>"
        },
        "type": {
          "coding": [
            {
              "code": "258580003",
              "system": "http://snomed.info/sct",
              "display": "Whole blood specimen (specimen)"
            }
          ]
        }
      }
    },
    {
      "fullUrl": "urn:uuid:3afa3f88-1559-43c5-8e7c-dee865a0a50c",
      "resource": {
        "resourceType": "Observation",
        "id": "3afa3f88-1559-43c5-8e7c-dee865a0a50c",
        "meta": {
          "profile": [
            "http://hl7.eu/fhir/laboratory/StructureDefinition/Observation-resultslab-eu-lab"
          ]
        },
        "performer": [
          {
            "display": "The Central European Lab"
          }
        ],
        "category": [
          {
            "coding": [
              {
                "system": "http://terminology.hl7.org/CodeSystem/observation-category",
                "code": "laboratory"
              }
            ]
          }
        ],
        "code": {
          "coding": [
            {
              "code": "2345-7",
              "system": "http://loinc.org",
              "display": "Glucose [Mass/volume] in Serum or Plasma"
            }
          ],
          "text": "Glucose [Mass/volume] in Serum or Plasma"
        },
        "valueQuantity": {
          "system": "http://unitsofmeasure.org",
          "value": 78.7,
          "unit": "mg/dL",
          "code": "mg/dL"
        },
        "referenceRange": [
          {
            "low": {
              "value": 70,
              "code": "mg/dL",
              "system": "http://unitsofmeasure.org"
            }
          },
          {
            "high": {
              "value": 139,
              "code": "mg/dL",
              "system": "http://unitsofmeasure.org"
            }
          }
        ],
        "text": {
          "status": "generated",
          "div": "<div xmlns=\"http://www.w3.org/1999/xhtml\"><table class=\"hl7__eu__lab__report\"><tr><th>Test</th><th>08-Aug-2024</th><th>Reference&#xA0;Range</th><th>Unit</th></tr><tr><td>Glucose [Mass/volume] in Serum or Plasma</td><td>78.7</td><td>70 - 139</td><td></td><td>mg/dL</td></tr></table></div>"
        },
        "status": "final",
        "subject": {
          "reference": "urn:uuid:839147f2-967a-4634-8b71-217f13f3a62b",
          "display": "Molly Jenkins"
        },
        "effectiveDateTime": "2024-08-08T14:42:11Z",
        "specimen": {
          "reference": "urn:uuid:084ff8e8-361c-4654-bd5b-9347bb880162"
        }
      }
    },
    {
      "fullUrl": "urn:uuid:3c90d226-3a2b-4846-8d9c-c31d2897c119",
      "resource": {
        "resourceType": "Observation",
        "id": "3c90d226-3a2b-4846-8d9c-c31d2897c119",
        "meta": {
          "profile": [
            "http://hl7.eu/fhir/laboratory/StructureDefinition/Observation-resultslab-eu-lab"
          ]
        },
        "performer": [
          {
            "display": "The Central European Lab"
          }
        ],
        "category": [
          {
            "coding": [
              {
                "system": "http://terminology.hl7.org/CodeSystem/observation-category",
                "code": "laboratory"
              }
            ]
          }
        ],
        "code": {
          "coding": [
            {
              "code": "3094-0",
              "system": "http://loinc.org",
              "display": "Urea nitrogen [Mass/volume] in Serum or Plasma"
            }
          ],
          "text": "Urea nitrogen [Mass/volume] in Serum or Plasma"
        },
        "valueQuantity": {
          "system": "http://unitsofmeasure.org",
          "value": 9.2,
          "unit": "mg/dL",
          "code": "mg/dL"
        },
        "referenceRange": [
          {
            "low": {
              "value": 7,
              "code": "mg/dL",
              "system": "http://unitsofmeasure.org"
            }
          },
          {
            "high": {
              "value": 20,
              "code": "mg/dL",
              "system": "http://unitsofmeasure.org"
            }
          }
        ],
        "text": {
          "status": "generated",
          "div": "<div xmlns=\"http://www.w3.org/1999/xhtml\"><table class=\"hl7__eu__lab__report\"><tr><th>Test</th><th>08-Aug-2024</th><th>Reference&#xA0;Range</th><th>Unit</th></tr><tr><td>Urea nitrogen [Mass/volume] in Serum or Plasma</td><td>9.2</td><td>7 - 20</td><td></td><td>mg/dL</td></tr></table></div>"
        },
        "status": "final",
        "subject": {
          "reference": "urn:uuid:839147f2-967a-4634-8b71-217f13f3a62b",
          "display": "Molly Jenkins"
        },
        "effectiveDateTime": "2024-08-08T14:42:11Z",
        "specimen": {
          "reference": "urn:uuid:084ff8e8-361c-4654-bd5b-9347bb880162"
        }
      }
    },
    {
      "fullUrl": "urn:uuid:b7184d46-b541-4c70-b96b-176ac9ac8d21",
      "resource": {
        "resourceType": "Observation",
        "id": "b7184d46-b541-4c70-b96b-176ac9ac8d21",
        "meta": {
          "profile": [
            "http://hl7.eu/fhir/laboratory/StructureDefinition/Observation-resultslab-eu-lab"
          ]
        },
        "performer": [
          {
            "display": "The Central European Lab"
          }
        ],
        "category": [
          {
            "coding": [
              {
                "system": "http://terminology.hl7.org/CodeSystem/observation-category",
                "code": "laboratory"
              }
            ]
          }
        ],
        "code": {
          "coding": [
            {
              "code": "2160-0",
              "system": "http://loinc.org",
              "display": "Creatinine [Mass/volume] in Serum or Plasma"
            }
          ],
          "text": "Creatinine [Mass/volume] in Serum or Plasma"
        },
        "valueQuantity": {
          "system": "http://unitsofmeasure.org",
          "value": 1.9,
          "unit": "mg/dL",
          "code": "mg/dL"
        },
        "referenceRange": [
          {
            "low": {
              "value": 0.6,
              "code": "mg/dL",
              "system": "http://unitsofmeasure.org"
            }
          },
          {
            "high": {
              "value": 1.1,
              "code": "mg/dL",
              "system": "http://unitsofmeasure.org"
            }
          }
        ],
        "interpretation": [
          {
            "coding": [
              {
                "code": "H",
                "system": "http://terminology.hl7.org/CodeSystem/v3-ObservationInterpretation",
                "display": "High"
              }
            ]
          }
        ],
        "text": {
          "status": "generated",
          "div": "<div xmlns=\"http://www.w3.org/1999/xhtml\"><table class=\"hl7__eu__lab__report\"><tr><th>Test</th><th>08-Aug-2024</th><th>Reference&#xA0;Range</th><th>Unit</th></tr><tr><td>Creatinine [Mass/volume] in Serum or Plasma</td><td>1.9</td><td>0.6 - 1.1</td><td>H</td><td>mg/dL</td></tr></table></div>"
        },
        "status": "final",
        "subject": {
          "reference": "urn:uuid:839147f2-967a-4634-8b71-217f13f3a62b",
          "display": "Molly Jenkins"
        },
        "effectiveDateTime": "2024-08-08T14:42:11Z",
        "specimen": {
          "reference": "urn:uuid:084ff8e8-361c-4654-bd5b-9347bb880162"
        }
      }
    },
    {
      "fullUrl": "urn:uuid:0493db6f-b628-449e-9e3b-1980fdaa0137",
      "resource": {
        "resourceType": "Observation",
        "id": "0493db6f-b628-449e-9e3b-1980fdaa0137",
        "meta": {
          "profile": [
            "http://hl7.eu/fhir/laboratory/StructureDefinition/Observation-resultslab-eu-lab"
          ]
        },
        "performer": [
          {
            "display": "The Central European Lab"
          }
        ],
        "category": [
          {
            "coding": [
              {
                "system": "http://terminology.hl7.org/CodeSystem/observation-category",
                "code": "laboratory"
              }
            ]
          }
        ],
        "code": {
          "coding": [
            {
              "code": "17861-6",
              "system": "http://loinc.org",
              "display": "Calcium [Mass/volume] in Serum or Plasma"
            }
          ],
          "text": "Calcium [Mass/volume] in Serum or Plasma"
        },
        "valueQuantity": {
          "system": "http://unitsofmeasure.org",
          "value": 9.9,
          "unit": "mg/dL",
          "code": "mg/dL"
        },
        "referenceRange": [
          {
            "low": {
              "value": 8.5,
              "code": "mg/dL",
              "system": "http://unitsofmeasure.org"
            }
          },
          {
            "high": {
              "value": 10.4,
              "code": "mg/dL",
              "system": "http://unitsofmeasure.org"
            }
          }
        ],
        "text": {
          "status": "generated",
          "div": "<div xmlns=\"http://www.w3.org/1999/xhtml\"><table class=\"hl7__eu__lab__report\"><tr><th>Test</th><th>08-Aug-2024</th><th>Reference&#xA0;Range</th><th>Unit</th></tr><tr><td>Calcium [Mass/volume] in Serum or Plasma</td><td>9.9</td><td>8.5 - 10.4</td><td></td><td>mg/dL</td></tr></table></div>"
        },
        "status": "final",
        "subject": {
          "reference": "urn:uuid:839147f2-967a-4634-8b71-217f13f3a62b",
          "display": "Molly Jenkins"
        },
        "effectiveDateTime": "2024-08-08T14:42:11Z",
        "specimen": {
          "reference": "urn:uuid:084ff8e8-361c-4654-bd5b-9347bb880162"
        }
      }
    },
    {
      "fullUrl": "urn:uuid:732ac3df-1c36-4564-8349-d557a781731f",
      "resource": {
        "resourceType": "Observation",
        "id": "732ac3df-1c36-4564-8349-d557a781731f",
        "meta": {
          "profile": [
            "http://hl7.eu/fhir/laboratory/StructureDefinition/Observation-resultslab-eu-lab"
          ]
        },
        "performer": [
          {
            "display": "The Central European Lab"
          }
        ],
        "category": [
          {
            "coding": [
              {
                "system": "http://terminology.hl7.org/CodeSystem/observation-category",
                "code": "laboratory"
              }
            ]
          }
        ],
        "code": {
          "coding": [
            {
              "code": "2951-2",
              "system": "http://loinc.org",
              "display": "Sodium [Moles/volume] in Serum or Plasma"
            }
          ],
          "text": "Sodium [Moles/volume] in Serum or Plasma"
        },
        "valueQuantity": {
          "system": "http://unitsofmeasure.org",
          "value": 143.3,
          "unit": "mmol/L",
          "code": "mmol/L"
        },
        "referenceRange": [
          {
            "low": {
              "value": 135,
              "code": "mmol/L",
              "system": "http://unitsofmeasure.org"
            }
          },
          {
            "high": {
              "value": 145,
              "code": "mmol/L",
              "system": "http://unitsofmeasure.org"
            }
          }
        ],
        "text": {
          "status": "generated",
          "div": "<div xmlns=\"http://www.w3.org/1999/xhtml\"><table class=\"hl7__eu__lab__report\"><tr><th>Test</th><th>08-Aug-2024</th><th>Reference&#xA0;Range</th><th>Unit</th></tr><tr><td>Sodium [Moles/volume] in Serum or Plasma</td><td>143.3</td><td>135 - 145</td><td></td><td>mmol/L</td></tr></table></div>"
        },
        "status": "final",
        "subject": {
          "reference": "urn:uuid:839147f2-967a-4634-8b71-217f13f3a62b",
          "display": "Molly Jenkins"
        },
        "effectiveDateTime": "2024-08-08T14:42:11Z",
        "specimen": {
          "reference": "urn:uuid:084ff8e8-361c-4654-bd5b-9347bb880162"
        }
      }
    },
    {
      "fullUrl": "urn:uuid:a0fc9c99-70a8-42de-8047-bdcc0654866a",
      "resource": {
        "resourceType": "Observation",
        "id": "a0fc9c99-70a8-42de-8047-bdcc0654866a",
        "meta": {
          "profile": [
            "http://hl7.eu/fhir/laboratory/StructureDefinition/Observation-resultslab-eu-lab"
          ]
        },
        "performer": [
          {
            "display": "The Central European Lab"
          }
        ],
        "category": [
          {
            "coding": [
              {
                "system": "http://terminology.hl7.org/CodeSystem/observation-category",
                "code": "laboratory"
              }
            ]
          }
        ],
        "code": {
          "coding": [
            {
              "code": "2823-3",
              "system": "http://loinc.org",
              "display": "Potassium [Moles/volume] in Serum or Plasma"
            }
          ],
          "text": "Potassium [Moles/volume] in Serum or Plasma"
        },
        "valueQuantity": {
          "system": "http://unitsofmeasure.org",
          "value": 4.3,
          "unit": "mmol/L",
          "code": "mmol/L"
        },
        "referenceRange": [
          {
            "low": {
              "value": 3.5,
              "code": "mmol/L",
              "system": "http://unitsofmeasure.org"
            }
          },
          {
            "high": {
              "value": 5.1,
              "code": "mmol/L",
              "system": "http://unitsofmeasure.org"
            }
          }
        ],
        "text": {
          "status": "generated",
          "div": "<div xmlns=\"http://www.w3.org/1999/xhtml\"><table class=\"hl7__eu__lab__report\"><tr><th>Test</th><th>08-Aug-2024</th><th>Reference&#xA0;Range</th><th>Unit</th></tr><tr><td>Potassium [Moles/volume] in Serum or Plasma</td><td>4.3</td><td>3.5 - 5.1</td><td></td><td>mmol/L</td></tr></table></div>"
        },
        "status": "final",
        "subject": {
          "reference": "urn:uuid:839147f2-967a-4634-8b71-217f13f3a62b",
          "display": "Molly Jenkins"
        },
        "effectiveDateTime": "2024-08-08T14:42:11Z",
        "specimen": {
          "reference": "urn:uuid:084ff8e8-361c-4654-bd5b-9347bb880162"
        }
      }
    },
    {
      "fullUrl": "urn:uuid:a61ca7b5-00fc-4f4f-9400-a0f5fcec0b64",
      "resource": {
        "resourceType": "Observation",
        "id": "a61ca7b5-00fc-4f4f-9400-a0f5fcec0b64",
        "meta": {
          "profile": [
            "http://hl7.eu/fhir/laboratory/StructureDefinition/Observation-resultslab-eu-lab"
          ]
        },
        "performer": [
          {
            "display": "The Central European Lab"
          }
        ],
        "category": [
          {
            "coding": [
              {
                "system": "http://terminology.hl7.org/CodeSystem/observation-category",
                "code": "laboratory"
              }
            ]
          }
        ],
        "code": {
          "coding": [
            {
              "code": "2075-0",
              "system": "http://loinc.org",
              "display": "Chloride [Moles/volume] in Serum or Plasma"
            }
          ],
          "text": "Chloride [Moles/volume] in Serum or Plasma"
        },
        "valueQuantity": {
          "system": "http://unitsofmeasure.org",
          "value": 103.7,
          "unit": "mmol/L",
          "code": "mmol/L"
        },
        "referenceRange": [
          {
            "low": {
              "value": 98,
              "code": "mmol/L",
              "system": "http://unitsofmeasure.org"
            }
          },
          {
            "high": {
              "value": 110,
              "code": "mmol/L",
              "system": "http://unitsofmeasure.org"
            }
          }
        ],
        "text": {
          "status": "generated",
          "div": "<div xmlns=\"http://www.w3.org/1999/xhtml\"><table class=\"hl7__eu__lab__report\"><tr><th>Test</th><th>08-Aug-2024</th><th>Reference&#xA0;Range</th><th>Unit</th></tr><tr><td>Chloride [Moles/volume] in Serum or Plasma</td><td>103.7</td><td>98 - 110</td><td></td><td>mmol/L</td></tr></table></div>"
        },
        "status": "final",
        "subject": {
          "reference": "urn:uuid:839147f2-967a-4634-8b71-217f13f3a62b",
          "display": "Molly Jenkins"
        },
        "effectiveDateTime": "2024-08-08T14:42:11Z",
        "specimen": {
          "reference": "urn:uuid:084ff8e8-361c-4654-bd5b-9347bb880162"
        }
      }
    },
    {
      "fullUrl": "urn:uuid:168354ca-d6e2-42ad-b846-558fc919bc99",
      "resource": {
        "resourceType": "Observation",
        "id": "168354ca-d6e2-42ad-b846-558fc919bc99",
        "meta": {
          "profile": [
            "http://hl7.eu/fhir/laboratory/StructureDefinition/Observation-resultslab-eu-lab"
          ]
        },
        "performer": [
          {
            "display": "The Central European Lab"
          }
        ],
        "category": [
          {
            "coding": [
              {
                "system": "http://terminology.hl7.org/CodeSystem/observation-category",
                "code": "laboratory"
              }
            ]
          }
        ],
        "code": {
          "coding": [
            {
              "code": "2028-9",
              "system": "http://loinc.org",
              "display": "Carbon dioxide, total [Moles/volume] in Serum or Plasma"
            }
          ],
          "text": "Carbon dioxide, total [Moles/volume] in Serum or Plasma"
        },
        "valueQuantity": {
          "system": "http://unitsofmeasure.org",
          "value": 21.2,
          "unit": "mmol/L",
          "code": "mmol/L"
        },
        "referenceRange": [
          {
            "low": {
              "value": 22,
              "code": "mmol/L",
              "system": "http://unitsofmeasure.org"
            }
          },
          {
            "high": {
              "value": 32,
              "code": "mmol/L",
              "system": "http://unitsofmeasure.org"
            }
          }
        ],
        "interpretation": [
          {
            "coding": [
              {
                "code": "L",
                "system": "http://terminology.hl7.org/CodeSystem/v3-ObservationInterpretation",
                "display": "Low"
              }
            ]
          }
        ],
        "text": {
          "status": "generated",
          "div": "<div xmlns=\"http://www.w3.org/1999/xhtml\"><table class=\"hl7__eu__lab__report\"><tr><th>Test</th><th>08-Aug-2024</th><th>Reference&#xA0;Range</th><th>Unit</th></tr><tr><td>Carbon dioxide, total [Moles/volume] in Serum or Plasma</td><td>21.2</td><td>22 - 32</td><td>L</td><td>mmol/L</td></tr></table></div>"
        },
        "status": "final",
        "subject": {
          "reference": "urn:uuid:839147f2-967a-4634-8b71-217f13f3a62b",
          "display": "Molly Jenkins"
        },
        "effectiveDateTime": "2024-08-08T14:42:11Z",
        "specimen": {
          "reference": "urn:uuid:084ff8e8-361c-4654-bd5b-9347bb880162"
        }
      }
    },
    {
      "fullUrl": "urn:uuid:46e4e192-60f4-4027-9b40-4028f18c366f",
      "resource": {
        "resourceType": "Observation",
        "id": "46e4e192-60f4-4027-9b40-4028f18c366f",
        "meta": {
          "profile": [
            "http://hl7.eu/fhir/laboratory/StructureDefinition/Observation-resultslab-eu-lab"
          ]
        },
        "performer": [
          {
            "display": "The Central European Lab"
          }
        ],
        "category": [
          {
            "coding": [
              {
                "system": "http://terminology.hl7.org/CodeSystem/observation-category",
                "code": "laboratory"
              }
            ]
          }
        ],
        "code": {
          "coding": [
            {
              "code": "5767-9",
              "system": "http://loinc.org",
              "display": "Appearance of Urine"
            }
          ],
          "text": "Appearance of Urine"
        },
        "text": {
          "status": "generated",
          "div": "<div xmlns=\"http://www.w3.org/1999/xhtml\"><table class=\"hl7__eu__lab__report\"><tr><th>Test</th><th>08-Aug-2024</th><th>Reference&#xA0;Range</th><th>Unit</th></tr><tr><td>Appearance of Urine</td></tr></table></div>"
        },
        "status": "final",
        "subject": {
          "reference": "urn:uuid:839147f2-967a-4634-8b71-217f13f3a62b",
          "display": "Molly Jenkins"
        },
        "effectiveDateTime": "2024-08-08T14:42:11Z",
        "specimen": {
          "reference": "urn:uuid:7e19c79d-edc7-4a7f-bb73-6d4cf4f9b5db"
        }
      }
    },
    {
      "fullUrl": "urn:uuid:efd0f33b-dbcb-4782-b3bc-ac29bf41e2c6",
      "resource": {
        "resourceType": "Observation",
        "id": "efd0f33b-dbcb-4782-b3bc-ac29bf41e2c6",
        "meta": {
          "profile": [
            "http://hl7.eu/fhir/laboratory/StructureDefinition/Observation-resultslab-eu-lab"
          ]
        },
        "performer": [
          {
            "display": "The Central European Lab"
          }
        ],
        "category": [
          {
            "coding": [
              {
                "system": "http://terminology.hl7.org/CodeSystem/observation-category",
                "code": "laboratory"
              }
            ]
          }
        ],
        "code": {
          "coding": [
            {
              "code": "34533-0",
              "system": "http://loinc.org",
              "display": "Odor of Urine"
            }
          ],
          "text": "Odor of Urine"
        },
        "text": {
          "status": "generated",
          "div": "<div xmlns=\"http://www.w3.org/1999/xhtml\"><table class=\"hl7__eu__lab__report\"><tr><th>Test</th><th>08-Aug-2024</th><th>Reference&#xA0;Range</th><th>Unit</th></tr><tr><td>Odor of Urine</td></tr></table></div>"
        },
        "status": "final",
        "subject": {
          "reference": "urn:uuid:839147f2-967a-4634-8b71-217f13f3a62b",
          "display": "Molly Jenkins"
        },
        "effectiveDateTime": "2024-08-08T14:42:11Z",
        "specimen": {
          "reference": "urn:uuid:7e19c79d-edc7-4a7f-bb73-6d4cf4f9b5db"
        }
      }
    },
    {
      "fullUrl": "urn:uuid:da3c3b63-a70a-4716-8064-4a355658faa0",
      "resource": {
        "resourceType": "Observation",
        "id": "da3c3b63-a70a-4716-8064-4a355658faa0",
        "meta": {
          "profile": [
            "http://hl7.eu/fhir/laboratory/StructureDefinition/Observation-resultslab-eu-lab"
          ]
        },
        "performer": [
          {
            "display": "The Central European Lab"
          }
        ],
        "category": [
          {
            "coding": [
              {
                "system": "http://terminology.hl7.org/CodeSystem/observation-category",
                "code": "laboratory"
              }
            ]
          }
        ],
        "code": {
          "coding": [
            {
              "code": "32167-9",
              "system": "http://loinc.org",
              "display": "Clarity of Urine"
            }
          ],
          "text": "Clarity of Urine"
        },
        "text": {
          "status": "generated",
          "div": "<div xmlns=\"http://www.w3.org/1999/xhtml\"><table class=\"hl7__eu__lab__report\"><tr><th>Test</th><th>08-Aug-2024</th><th>Reference&#xA0;Range</th><th>Unit</th></tr><tr><td>Clarity of Urine</td></tr></table></div>"
        },
        "status": "final",
        "subject": {
          "reference": "urn:uuid:839147f2-967a-4634-8b71-217f13f3a62b",
          "display": "Molly Jenkins"
        },
        "effectiveDateTime": "2024-08-08T14:42:11Z",
        "specimen": {
          "reference": "urn:uuid:7e19c79d-edc7-4a7f-bb73-6d4cf4f9b5db"
        }
      }
    },
    {
      "fullUrl": "urn:uuid:7d5a1168-c537-4ebd-9203-6b751805faec",
      "resource": {
        "resourceType": "Observation",
        "id": "7d5a1168-c537-4ebd-9203-6b751805faec",
        "meta": {
          "profile": [
            "http://hl7.eu/fhir/laboratory/StructureDefinition/Observation-resultslab-eu-lab"
          ]
        },
        "performer": [
          {
            "display": "The Central European Lab"
          }
        ],
        "category": [
          {
            "coding": [
              {
                "system": "http://terminology.hl7.org/CodeSystem/observation-category",
                "code": "laboratory"
              }
            ]
          }
        ],
        "code": {
          "coding": [
            {
              "code": "5778-6",
              "system": "http://loinc.org",
              "display": "Color of Urine"
            }
          ],
          "text": "Color of Urine"
        },
        "text": {
          "status": "generated",
          "div": "<div xmlns=\"http://www.w3.org/1999/xhtml\"><table class=\"hl7__eu__lab__report\"><tr><th>Test</th><th>08-Aug-2024</th><th>Reference&#xA0;Range</th><th>Unit</th></tr><tr><td>Color of Urine</td></tr></table></div>"
        },
        "status": "final",
        "subject": {
          "reference": "urn:uuid:839147f2-967a-4634-8b71-217f13f3a62b",
          "display": "Molly Jenkins"
        },
        "effectiveDateTime": "2024-08-08T14:42:11Z",
        "specimen": {
          "reference": "urn:uuid:7e19c79d-edc7-4a7f-bb73-6d4cf4f9b5db"
        }
      }
    },
    {
      "fullUrl": "urn:uuid:ca87a7bc-d9a4-4023-98ed-f5e93073553b",
      "resource": {
        "resourceType": "Observation",
        "id": "ca87a7bc-d9a4-4023-98ed-f5e93073553b",
        "meta": {
          "profile": [
            "http://hl7.eu/fhir/laboratory/StructureDefinition/Observation-resultslab-eu-lab"
          ]
        },
        "performer": [
          {
            "display": "The Central European Lab"
          }
        ],
        "category": [
          {
            "coding": [
              {
                "system": "http://terminology.hl7.org/CodeSystem/observation-category",
                "code": "laboratory"
              }
            ]
          }
        ],
        "code": {
          "coding": [
            {
              "code": "5792-7",
              "system": "http://loinc.org",
              "display": "Glucose [Mass/volume] in Urine by Test strip"
            }
          ],
          "text": "Glucose [Mass/volume] in Urine by Test strip"
        },
        "valueQuantity": {
          "system": "http://unitsofmeasure.org",
          "value": 1,
          "unit": "mg/dL",
          "code": "mg/dL"
        },
        "referenceRange": [
          {
            "low": {
              "value": 0,
              "code": "mg/dL",
              "system": "http://unitsofmeasure.org"
            }
          },
          {
            "high": {
              "value": 0,
              "code": "mg/dL",
              "system": "http://unitsofmeasure.org"
            }
          }
        ],
        "interpretation": [
          {
            "coding": [
              {
                "code": "H",
                "system": "http://terminology.hl7.org/CodeSystem/v3-ObservationInterpretation",
                "display": "High"
              }
            ]
          }
        ],
        "text": {
          "status": "generated",
          "div": "<div xmlns=\"http://www.w3.org/1999/xhtml\"><table class=\"hl7__eu__lab__report\"><tr><th>Test</th><th>08-Aug-2024</th><th>Reference&#xA0;Range</th><th>Unit</th></tr><tr><td>Glucose [Mass/volume] in Urine by Test strip</td><td>1.0</td><td>0 - 0</td><td>H</td><td>mg/dL</td></tr></table></div>"
        },
        "status": "final",
        "subject": {
          "reference": "urn:uuid:839147f2-967a-4634-8b71-217f13f3a62b",
          "display": "Molly Jenkins"
        },
        "effectiveDateTime": "2024-08-08T14:42:11Z",
        "specimen": {
          "reference": "urn:uuid:7e19c79d-edc7-4a7f-bb73-6d4cf4f9b5db"
        }
      }
    },
    {
      "fullUrl": "urn:uuid:d27caf19-bc59-4a4b-82c6-d7c1a72ee99e",
      "resource": {
        "resourceType": "Observation",
        "id": "d27caf19-bc59-4a4b-82c6-d7c1a72ee99e",
        "meta": {
          "profile": [
            "http://hl7.eu/fhir/laboratory/StructureDefinition/Observation-resultslab-eu-lab"
          ]
        },
        "performer": [
          {
            "display": "The Central European Lab"
          }
        ],
        "category": [
          {
            "coding": [
              {
                "system": "http://terminology.hl7.org/CodeSystem/observation-category",
                "code": "laboratory"
              }
            ]
          }
        ],
        "code": {
          "coding": [
            {
              "code": "25428-4",
              "system": "http://loinc.org",
              "display": "Glucose [Presence] in Urine by Test strip"
            }
          ],
          "text": "Glucose [Presence] in Urine by Test strip"
        },
        "text": {
          "status": "generated",
          "div": "<div xmlns=\"http://www.w3.org/1999/xhtml\"><table class=\"hl7__eu__lab__report\"><tr><th>Test</th><th>08-Aug-2024</th><th>Reference&#xA0;Range</th><th>Unit</th></tr><tr><td>Glucose [Presence] in Urine by Test strip</td></tr></table></div>"
        },
        "status": "final",
        "subject": {
          "reference": "urn:uuid:839147f2-967a-4634-8b71-217f13f3a62b",
          "display": "Molly Jenkins"
        },
        "effectiveDateTime": "2024-08-08T14:42:11Z",
        "specimen": {
          "reference": "urn:uuid:7e19c79d-edc7-4a7f-bb73-6d4cf4f9b5db"
        }
      }
    },
    {
      "fullUrl": "urn:uuid:4da9d97b-59d3-4674-bacd-399e6053652f",
      "resource": {
        "resourceType": "Observation",
        "id": "4da9d97b-59d3-4674-bacd-399e6053652f",
        "meta": {
          "profile": [
            "http://hl7.eu/fhir/laboratory/StructureDefinition/Observation-resultslab-eu-lab"
          ]
        },
        "performer": [
          {
            "display": "The Central European Lab"
          }
        ],
        "category": [
          {
            "coding": [
              {
                "system": "http://terminology.hl7.org/CodeSystem/observation-category",
                "code": "laboratory"
              }
            ]
          }
        ],
        "code": {
          "coding": [
            {
              "code": "20505-4",
              "system": "http://loinc.org",
              "display": "Bilirubin.total [Mass/volume] in Urine by Test strip"
            }
          ],
          "text": "Bilirubin.total [Mass/volume] in Urine by Test strip"
        },
        "valueQuantity": {
          "system": "http://unitsofmeasure.org",
          "value": 0.7,
          "unit": "mg/dL",
          "code": "mg/dL"
        },
        "referenceRange": [
          {
            "low": {
              "value": 0,
              "code": "mg/dL",
              "system": "http://unitsofmeasure.org"
            }
          },
          {
            "high": {
              "value": 1.6,
              "code": "mg/dL",
              "system": "http://unitsofmeasure.org"
            }
          }
        ],
        "text": {
          "status": "generated",
          "div": "<div xmlns=\"http://www.w3.org/1999/xhtml\"><table class=\"hl7__eu__lab__report\"><tr><th>Test</th><th>08-Aug-2024</th><th>Reference&#xA0;Range</th><th>Unit</th></tr><tr><td>Bilirubin.total [Mass/volume] in Urine by Test strip</td><td>0.7</td><td>0 - 1.6</td><td></td><td>mg/dL</td></tr></table></div>"
        },
        "status": "final",
        "subject": {
          "reference": "urn:uuid:839147f2-967a-4634-8b71-217f13f3a62b",
          "display": "Molly Jenkins"
        },
        "effectiveDateTime": "2024-08-08T14:42:11Z",
        "specimen": {
          "reference": "urn:uuid:7e19c79d-edc7-4a7f-bb73-6d4cf4f9b5db"
        }
      }
    },
    {
      "fullUrl": "urn:uuid:23b93881-ef65-46f9-a034-b8f440b5c650",
      "resource": {
        "resourceType": "Observation",
        "id": "23b93881-ef65-46f9-a034-b8f440b5c650",
        "meta": {
          "profile": [
            "http://hl7.eu/fhir/laboratory/StructureDefinition/Observation-resultslab-eu-lab"
          ]
        },
        "performer": [
          {
            "display": "The Central European Lab"
          }
        ],
        "category": [
          {
            "coding": [
              {
                "system": "http://terminology.hl7.org/CodeSystem/observation-category",
                "code": "laboratory"
              }
            ]
          }
        ],
        "code": {
          "coding": [
            {
              "code": "5770-3",
              "system": "http://loinc.org",
              "display": "Bilirubin.total [Presence] in Urine by Test strip"
            }
          ],
          "text": "Bilirubin.total [Presence] in Urine by Test strip"
        },
        "text": {
          "status": "generated",
          "div": "<div xmlns=\"http://www.w3.org/1999/xhtml\"><table class=\"hl7__eu__lab__report\"><tr><th>Test</th><th>08-Aug-2024</th><th>Reference&#xA0;Range</th><th>Unit</th></tr><tr><td>Bilirubin.total [Presence] in Urine by Test strip</td></tr></table></div>"
        },
        "status": "final",
        "subject": {
          "reference": "urn:uuid:839147f2-967a-4634-8b71-217f13f3a62b",
          "display": "Molly Jenkins"
        },
        "effectiveDateTime": "2024-08-08T14:42:11Z",
        "specimen": {
          "reference": "urn:uuid:7e19c79d-edc7-4a7f-bb73-6d4cf4f9b5db"
        }
      }
    },
    {
      "fullUrl": "urn:uuid:177e73ce-0c57-4811-9711-ea89eb35ba00",
      "resource": {
        "resourceType": "Observation",
        "id": "177e73ce-0c57-4811-9711-ea89eb35ba00",
        "meta": {
          "profile": [
            "http://hl7.eu/fhir/laboratory/StructureDefinition/Observation-resultslab-eu-lab"
          ]
        },
        "performer": [
          {
            "display": "The Central European Lab"
          }
        ],
        "category": [
          {
            "coding": [
              {
                "system": "http://terminology.hl7.org/CodeSystem/observation-category",
                "code": "laboratory"
              }
            ]
          }
        ],
        "code": {
          "coding": [
            {
              "code": "5797-6",
              "system": "http://loinc.org",
              "display": "Ketones [Mass/volume] in Urine by Test strip"
            }
          ],
          "text": "Ketones [Mass/volume] in Urine by Test strip"
        },
        "valueQuantity": {
          "system": "http://unitsofmeasure.org",
          "value": 5,
          "unit": "mg/dL",
          "code": "mg/dL"
        },
        "referenceRange": [
          {
            "low": {
              "value": 0,
              "code": "mg/dL",
              "system": "http://unitsofmeasure.org"
            }
          },
          {
            "high": {
              "value": 0.5,
              "code": "mg/dL",
              "system": "http://unitsofmeasure.org"
            }
          }
        ],
        "interpretation": [
          {
            "coding": [
              {
                "code": "H",
                "system": "http://terminology.hl7.org/CodeSystem/v3-ObservationInterpretation",
                "display": "High"
              }
            ]
          }
        ],
        "text": {
          "status": "generated",
          "div": "<div xmlns=\"http://www.w3.org/1999/xhtml\"><table class=\"hl7__eu__lab__report\"><tr><th>Test</th><th>08-Aug-2024</th><th>Reference&#xA0;Range</th><th>Unit</th></tr><tr><td>Ketones [Mass/volume] in Urine by Test strip</td><td>5.0</td><td>0 - 0.5</td><td>H</td><td>mg/dL</td></tr></table></div>"
        },
        "status": "final",
        "subject": {
          "reference": "urn:uuid:839147f2-967a-4634-8b71-217f13f3a62b",
          "display": "Molly Jenkins"
        },
        "effectiveDateTime": "2024-08-08T14:42:11Z",
        "specimen": {
          "reference": "urn:uuid:7e19c79d-edc7-4a7f-bb73-6d4cf4f9b5db"
        }
      }
    },
    {
      "fullUrl": "urn:uuid:ba394e4f-6918-4c63-ac36-91a67c477d90",
      "resource": {
        "resourceType": "Observation",
        "id": "ba394e4f-6918-4c63-ac36-91a67c477d90",
        "meta": {
          "profile": [
            "http://hl7.eu/fhir/laboratory/StructureDefinition/Observation-resultslab-eu-lab"
          ]
        },
        "performer": [
          {
            "display": "The Central European Lab"
          }
        ],
        "category": [
          {
            "coding": [
              {
                "system": "http://terminology.hl7.org/CodeSystem/observation-category",
                "code": "laboratory"
              }
            ]
          }
        ],
        "code": {
          "coding": [
            {
              "code": "2514-8",
              "system": "http://loinc.org",
              "display": "Ketones [Presence] in Urine by Test strip"
            }
          ],
          "text": "Ketones [Presence] in Urine by Test strip"
        },
        "text": {
          "status": "generated",
          "div": "<div xmlns=\"http://www.w3.org/1999/xhtml\"><table class=\"hl7__eu__lab__report\"><tr><th>Test</th><th>08-Aug-2024</th><th>Reference&#xA0;Range</th><th>Unit</th></tr><tr><td>Ketones [Presence] in Urine by Test strip</td></tr></table></div>"
        },
        "status": "final",
        "subject": {
          "reference": "urn:uuid:839147f2-967a-4634-8b71-217f13f3a62b",
          "display": "Molly Jenkins"
        },
        "effectiveDateTime": "2024-08-08T14:42:11Z",
        "specimen": {
          "reference": "urn:uuid:7e19c79d-edc7-4a7f-bb73-6d4cf4f9b5db"
        }
      }
    },
    {
      "fullUrl": "urn:uuid:e76def26-839e-4d17-a349-e88f6cc92d69",
      "resource": {
        "resourceType": "Observation",
        "id": "e76def26-839e-4d17-a349-e88f6cc92d69",
        "meta": {
          "profile": [
            "http://hl7.eu/fhir/laboratory/StructureDefinition/Observation-resultslab-eu-lab"
          ]
        },
        "performer": [
          {
            "display": "The Central European Lab"
          }
        ],
        "category": [
          {
            "coding": [
              {
                "system": "http://terminology.hl7.org/CodeSystem/observation-category",
                "code": "laboratory"
              }
            ]
          }
        ],
        "code": {
          "coding": [
            {
              "code": "5811-5",
              "system": "http://loinc.org",
              "display": "Specific gravity of Urine by Test strip"
            }
          ],
          "text": "Specific gravity of Urine by Test strip"
        },
        "valueQuantity": {
          "system": "http://unitsofmeasure.org",
          "value": 1,
          "unit": "{nominal}",
          "code": "{nominal}"
        },
        "referenceRange": [
          {
            "low": {
              "value": 1.005,
              "code": "g/mL",
              "system": "http://unitsofmeasure.org"
            }
          },
          {
            "high": {
              "value": 1.03,
              "code": "g/mL",
              "system": "http://unitsofmeasure.org"
            }
          }
        ],
        "interpretation": [
          {
            "coding": [
              {
                "code": "L",
                "system": "http://terminology.hl7.org/CodeSystem/v3-ObservationInterpretation",
                "display": "Low"
              }
            ]
          }
        ],
        "text": {
          "status": "generated",
          "div": "<div xmlns=\"http://www.w3.org/1999/xhtml\"><table class=\"hl7__eu__lab__report\"><tr><th>Test</th><th>08-Aug-2024</th><th>Reference&#xA0;Range</th><th>Unit</th></tr><tr><td>Specific gravity of Urine by Test strip</td><td>1.0</td><td>1.005 - 1.03</td><td>L</td><td>{nominal}</td></tr></table></div>"
        },
        "status": "final",
        "subject": {
          "reference": "urn:uuid:839147f2-967a-4634-8b71-217f13f3a62b",
          "display": "Molly Jenkins"
        },
        "effectiveDateTime": "2024-08-08T14:42:11Z",
        "specimen": {
          "reference": "urn:uuid:7e19c79d-edc7-4a7f-bb73-6d4cf4f9b5db"
        }
      }
    },
    {
      "fullUrl": "urn:uuid:bd59ed67-97ce-4adc-a08d-df22b1216836",
      "resource": {
        "resourceType": "Observation",
        "id": "bd59ed67-97ce-4adc-a08d-df22b1216836",
        "meta": {
          "profile": [
            "http://hl7.eu/fhir/laboratory/StructureDefinition/Observation-resultslab-eu-lab"
          ]
        },
        "performer": [
          {
            "display": "The Central European Lab"
          }
        ],
        "category": [
          {
            "coding": [
              {
                "system": "http://terminology.hl7.org/CodeSystem/observation-category",
                "code": "laboratory"
              }
            ]
          }
        ],
        "code": {
          "coding": [
            {
              "code": "5803-2",
              "system": "http://loinc.org",
              "display": "pH of Urine by Test strip"
            }
          ],
          "text": "pH of Urine by Test strip"
        },
        "valueQuantity": {
          "system": "http://unitsofmeasure.org",
          "value": 5.6,
          "unit": "pH",
          "code": "pH"
        },
        "referenceRange": [
          {
            "low": {
              "value": 4.5,
              "code": "pH",
              "system": "http://unitsofmeasure.org"
            }
          },
          {
            "high": {
              "value": 7.5,
              "code": "pH",
              "system": "http://unitsofmeasure.org"
            }
          }
        ],
        "text": {
          "status": "generated",
          "div": "<div xmlns=\"http://www.w3.org/1999/xhtml\"><table class=\"hl7__eu__lab__report\"><tr><th>Test</th><th>08-Aug-2024</th><th>Reference&#xA0;Range</th><th>Unit</th></tr><tr><td>pH of Urine by Test strip</td><td>5.6</td><td>4.5 - 7.5</td><td></td><td>pH</td></tr></table></div>"
        },
        "status": "final",
        "subject": {
          "reference": "urn:uuid:839147f2-967a-4634-8b71-217f13f3a62b",
          "display": "Molly Jenkins"
        },
        "effectiveDateTime": "2024-08-08T14:42:11Z",
        "specimen": {
          "reference": "urn:uuid:7e19c79d-edc7-4a7f-bb73-6d4cf4f9b5db"
        }
      }
    },
    {
      "fullUrl": "urn:uuid:10c5424b-e42e-4302-87df-213924a8aa51",
      "resource": {
        "resourceType": "Observation",
        "id": "10c5424b-e42e-4302-87df-213924a8aa51",
        "meta": {
          "profile": [
            "http://hl7.eu/fhir/laboratory/StructureDefinition/Observation-resultslab-eu-lab"
          ]
        },
        "performer": [
          {
            "display": "The Central European Lab"
          }
        ],
        "category": [
          {
            "coding": [
              {
                "system": "http://terminology.hl7.org/CodeSystem/observation-category",
                "code": "laboratory"
              }
            ]
          }
        ],
        "code": {
          "coding": [
            {
              "code": "5804-0",
              "system": "http://loinc.org",
              "display": "Protein [Mass/volume] in Urine by Test strip"
            }
          ],
          "text": "Protein [Mass/volume] in Urine by Test strip"
        },
        "valueQuantity": {
          "system": "http://unitsofmeasure.org",
          "value": 256.8,
          "unit": "mg/dL",
          "code": "mg/dL"
        },
        "referenceRange": [
          {
            "low": {
              "value": 0,
              "code": "mg/dL",
              "system": "http://unitsofmeasure.org"
            }
          },
          {
            "high": {
              "value": 15,
              "code": "mg/dL",
              "system": "http://unitsofmeasure.org"
            }
          }
        ],
        "interpretation": [
          {
            "coding": [
              {
                "code": "H",
                "system": "http://terminology.hl7.org/CodeSystem/v3-ObservationInterpretation",
                "display": "High"
              }
            ]
          }
        ],
        "text": {
          "status": "generated",
          "div": "<div xmlns=\"http://www.w3.org/1999/xhtml\"><table class=\"hl7__eu__lab__report\"><tr><th>Test</th><th>08-Aug-2024</th><th>Reference&#xA0;Range</th><th>Unit</th></tr><tr><td>Protein [Mass/volume] in Urine by Test strip</td><td>256.8</td><td>0 - 15</td><td>H</td><td>mg/dL</td></tr></table></div>"
        },
        "status": "final",
        "subject": {
          "reference": "urn:uuid:839147f2-967a-4634-8b71-217f13f3a62b",
          "display": "Molly Jenkins"
        },
        "effectiveDateTime": "2024-08-08T14:42:11Z",
        "specimen": {
          "reference": "urn:uuid:7e19c79d-edc7-4a7f-bb73-6d4cf4f9b5db"
        }
      }
    },
    {
      "fullUrl": "urn:uuid:5140b0e3-b795-4f60-bcb7-e8507f086d9f",
      "resource": {
        "resourceType": "Observation",
        "id": "5140b0e3-b795-4f60-bcb7-e8507f086d9f",
        "meta": {
          "profile": [
            "http://hl7.eu/fhir/laboratory/StructureDefinition/Observation-resultslab-eu-lab"
          ]
        },
        "performer": [
          {
            "display": "The Central European Lab"
          }
        ],
        "category": [
          {
            "coding": [
              {
                "system": "http://terminology.hl7.org/CodeSystem/observation-category",
                "code": "laboratory"
              }
            ]
          }
        ],
        "code": {
          "coding": [
            {
              "code": "20454-5",
              "system": "http://loinc.org",
              "display": "Protein [Presence] in Urine by Test strip"
            }
          ],
          "text": "Protein [Presence] in Urine by Test strip"
        },
        "text": {
          "status": "generated",
          "div": "<div xmlns=\"http://www.w3.org/1999/xhtml\"><table class=\"hl7__eu__lab__report\"><tr><th>Test</th><th>08-Aug-2024</th><th>Reference&#xA0;Range</th><th>Unit</th></tr><tr><td>Protein [Presence] in Urine by Test strip</td></tr></table></div>"
        },
        "status": "final",
        "subject": {
          "reference": "urn:uuid:839147f2-967a-4634-8b71-217f13f3a62b",
          "display": "Molly Jenkins"
        },
        "effectiveDateTime": "2024-08-08T14:42:11Z",
        "specimen": {
          "reference": "urn:uuid:7e19c79d-edc7-4a7f-bb73-6d4cf4f9b5db"
        }
      }
    },
    {
      "fullUrl": "urn:uuid:ac13e7b3-be2a-4b14-9eb5-1e499cdaf901",
      "resource": {
        "resourceType": "Observation",
        "id": "ac13e7b3-be2a-4b14-9eb5-1e499cdaf901",
        "meta": {
          "profile": [
            "http://hl7.eu/fhir/laboratory/StructureDefinition/Observation-resultslab-eu-lab"
          ]
        },
        "performer": [
          {
            "display": "The Central European Lab"
          }
        ],
        "category": [
          {
            "coding": [
              {
                "system": "http://terminology.hl7.org/CodeSystem/observation-category",
                "code": "laboratory"
              }
            ]
          }
        ],
        "code": {
          "coding": [
            {
              "code": "5802-4",
              "system": "http://loinc.org",
              "display": "Nitrite [Presence] in Urine by Test strip"
            }
          ],
          "text": "Nitrite [Presence] in Urine by Test strip"
        },
        "text": {
          "status": "generated",
          "div": "<div xmlns=\"http://www.w3.org/1999/xhtml\"><table class=\"hl7__eu__lab__report\"><tr><th>Test</th><th>08-Aug-2024</th><th>Reference&#xA0;Range</th><th>Unit</th></tr><tr><td>Nitrite [Presence] in Urine by Test strip</td></tr></table></div>"
        },
        "status": "final",
        "subject": {
          "reference": "urn:uuid:839147f2-967a-4634-8b71-217f13f3a62b",
          "display": "Molly Jenkins"
        },
        "effectiveDateTime": "2024-08-08T14:42:11Z",
        "specimen": {
          "reference": "urn:uuid:7e19c79d-edc7-4a7f-bb73-6d4cf4f9b5db"
        }
      }
    },
    {
      "fullUrl": "urn:uuid:bc5d6a63-6005-4f17-9961-1478cadf4317",
      "resource": {
        "resourceType": "Observation",
        "id": "bc5d6a63-6005-4f17-9961-1478cadf4317",
        "meta": {
          "profile": [
            "http://hl7.eu/fhir/laboratory/StructureDefinition/Observation-resultslab-eu-lab"
          ]
        },
        "performer": [
          {
            "display": "The Central European Lab"
          }
        ],
        "category": [
          {
            "coding": [
              {
                "system": "http://terminology.hl7.org/CodeSystem/observation-category",
                "code": "laboratory"
              }
            ]
          }
        ],
        "code": {
          "coding": [
            {
              "code": "5794-3",
              "system": "http://loinc.org",
              "display": "Hemoglobin [Presence] in Urine by Test strip"
            }
          ],
          "text": "Hemoglobin [Presence] in Urine by Test strip"
        },
        "text": {
          "status": "generated",
          "div": "<div xmlns=\"http://www.w3.org/1999/xhtml\"><table class=\"hl7__eu__lab__report\"><tr><th>Test</th><th>08-Aug-2024</th><th>Reference&#xA0;Range</th><th>Unit</th></tr><tr><td>Hemoglobin [Presence] in Urine by Test strip</td></tr></table></div>"
        },
        "status": "final",
        "subject": {
          "reference": "urn:uuid:839147f2-967a-4634-8b71-217f13f3a62b",
          "display": "Molly Jenkins"
        },
        "effectiveDateTime": "2024-08-08T14:42:11Z",
        "specimen": {
          "reference": "urn:uuid:7e19c79d-edc7-4a7f-bb73-6d4cf4f9b5db"
        }
      }
    },
    {
      "fullUrl": "urn:uuid:1c092ec6-c953-4e9a-a57b-ab333b1053cd",
      "resource": {
        "resourceType": "Observation",
        "id": "1c092ec6-c953-4e9a-a57b-ab333b1053cd",
        "meta": {
          "profile": [
            "http://hl7.eu/fhir/laboratory/StructureDefinition/Observation-resultslab-eu-lab"
          ]
        },
        "performer": [
          {
            "display": "The Central European Lab"
          }
        ],
        "category": [
          {
            "coding": [
              {
                "system": "http://terminology.hl7.org/CodeSystem/observation-category",
                "code": "laboratory"
              }
            ]
          }
        ],
        "code": {
          "coding": [
            {
              "code": "5799-2",
              "system": "http://loinc.org",
              "display": "Leukocyte esterase [Presence] in Urine by Test strip"
            }
          ],
          "text": "Leukocyte esterase [Presence] in Urine by Test strip"
        },
        "text": {
          "status": "generated",
          "div": "<div xmlns=\"http://www.w3.org/1999/xhtml\"><table class=\"hl7__eu__lab__report\"><tr><th>Test</th><th>08-Aug-2024</th><th>Reference&#xA0;Range</th><th>Unit</th></tr><tr><td>Leukocyte esterase [Presence] in Urine by Test strip</td></tr></table></div>"
        },
        "status": "final",
        "subject": {
          "reference": "urn:uuid:839147f2-967a-4634-8b71-217f13f3a62b",
          "display": "Molly Jenkins"
        },
        "effectiveDateTime": "2024-08-08T14:42:11Z",
        "specimen": {
          "reference": "urn:uuid:7e19c79d-edc7-4a7f-bb73-6d4cf4f9b5db"
        }
      }
    },
    {
      "fullUrl": "urn:uuid:e6304654-2322-4b1a-906b-85a66e25a110",
      "resource": {
        "resourceType": "Observation",
        "id": "e6304654-2322-4b1a-906b-85a66e25a110",
        "meta": {
          "profile": [
            "http://hl7.eu/fhir/laboratory/StructureDefinition/Observation-resultslab-eu-lab"
          ]
        },
        "performer": [
          {
            "display": "The Central European Lab"
          }
        ],
        "category": [
          {
            "coding": [
              {
                "system": "http://terminology.hl7.org/CodeSystem/observation-category",
                "code": "laboratory"
              }
            ]
          }
        ],
        "code": {
          "coding": [
            {
              "code": "4548-4",
              "system": "http://loinc.org",
              "display": "Hemoglobin A1c/Hemoglobin.total in Blood"
            }
          ],
          "text": "Hemoglobin A1c/Hemoglobin.total in Blood"
        },
        "valueQuantity": {
          "system": "http://unitsofmeasure.org",
          "value": 2.8,
          "unit": "%",
          "code": "%"
        },
        "referenceRange": [
          {
            "low": {
              "value": 4,
              "code": "%",
              "system": "http://unitsofmeasure.org"
            }
          },
          {
            "high": {
              "value": 6,
              "code": "%",
              "system": "http://unitsofmeasure.org"
            }
          }
        ],
        "interpretation": [
          {
            "coding": [
              {
                "code": "L",
                "system": "http://terminology.hl7.org/CodeSystem/v3-ObservationInterpretation",
                "display": "Low"
              }
            ]
          }
        ],
        "text": {
          "status": "generated",
          "div": "<div xmlns=\"http://www.w3.org/1999/xhtml\"><table class=\"hl7__eu__lab__report\"><tr><th>Test</th><th>08-Aug-2024</th><th>Reference&#xA0;Range</th><th>Unit</th></tr><tr><td>Hemoglobin A1c/Hemoglobin.total in Blood</td><td>2.8</td><td>4 - 6</td><td>L</td><td>%</td></tr></table></div>"
        },
        "status": "final",
        "subject": {
          "reference": "urn:uuid:839147f2-967a-4634-8b71-217f13f3a62b",
          "display": "Molly Jenkins"
        },
        "effectiveDateTime": "2024-08-08T14:42:11Z",
        "specimen": {
          "reference": "urn:uuid:175a4b06-b38e-4dc3-9add-96349c2753e6"
        }
      }
    },
    {
      "fullUrl": "urn:uuid:eed99fcc-4fbd-4d66-af3f-2605f0a001d4",
      "resource": {
        "resourceType": "Observation",
        "id": "eed99fcc-4fbd-4d66-af3f-2605f0a001d4",
        "meta": {
          "profile": [
            "http://hl7.eu/fhir/laboratory/StructureDefinition/Observation-resultslab-eu-lab"
          ]
        },
        "performer": [
          {
            "display": "The Central European Lab"
          }
        ],
        "category": [
          {
            "coding": [
              {
                "system": "http://terminology.hl7.org/CodeSystem/observation-category",
                "code": "laboratory"
              }
            ]
          }
        ],
        "code": {
          "coding": [
            {
              "code": "2339-0",
              "system": "http://loinc.org",
              "display": "Glucose [Mass/volume] in Blood"
            }
          ],
          "text": "Glucose [Mass/volume] in Blood"
        },
        "valueQuantity": {
          "system": "http://unitsofmeasure.org",
          "value": 78.7,
          "unit": "mg/dL",
          "code": "mg/dL"
        },
        "referenceRange": [
          {
            "low": {
              "value": 70,
              "code": "mg/dL",
              "system": "http://unitsofmeasure.org"
            }
          },
          {
            "high": {
              "value": 100,
              "code": "mg/dL",
              "system": "http://unitsofmeasure.org"
            }
          }
        ],
        "text": {
          "status": "generated",
          "div": "<div xmlns=\"http://www.w3.org/1999/xhtml\"><table class=\"hl7__eu__lab__report\"><tr><th>Test</th><th>08-Aug-2024</th><th>Reference&#xA0;Range</th><th>Unit</th></tr><tr><td>Glucose [Mass/volume] in Blood</td><td>78.7</td><td>70 - 100</td><td></td><td>mg/dL</td></tr></table></div>"
        },
        "status": "final",
        "subject": {
          "reference": "urn:uuid:839147f2-967a-4634-8b71-217f13f3a62b",
          "display": "Molly Jenkins"
        },
        "effectiveDateTime": "2024-08-08T14:42:11Z",
        "specimen": {
          "reference": "urn:uuid:175a4b06-b38e-4dc3-9add-96349c2753e6"
        }
      }
    },
    {
      "fullUrl": "urn:uuid:35e7c058-fd07-4745-8730-c365ace647e0",
      "resource": {
        "resourceType": "Observation",
        "id": "35e7c058-fd07-4745-8730-c365ace647e0",
        "meta": {
          "profile": [
            "http://hl7.eu/fhir/laboratory/StructureDefinition/Observation-resultslab-eu-lab"
          ]
        },
        "performer": [
          {
            "display": "The Central European Lab"
          }
        ],
        "category": [
          {
            "coding": [
              {
                "system": "http://terminology.hl7.org/CodeSystem/observation-category",
                "code": "laboratory"
              }
            ]
          }
        ],
        "code": {
          "coding": [
            {
              "code": "6299-2",
              "system": "http://loinc.org",
              "display": "Urea nitrogen [Mass/volume] in Blood"
            }
          ],
          "text": "Urea nitrogen [Mass/volume] in Blood"
        },
        "valueQuantity": {
          "system": "http://unitsofmeasure.org",
          "value": 9.2,
          "unit": "mg/dL",
          "code": "mg/dL"
        },
        "referenceRange": [
          {
            "low": {
              "value": 7,
              "code": "mg/dL",
              "system": "http://unitsofmeasure.org"
            }
          },
          {
            "high": {
              "value": 20,
              "code": "mg/dL",
              "system": "http://unitsofmeasure.org"
            }
          }
        ],
        "text": {
          "status": "generated",
          "div": "<div xmlns=\"http://www.w3.org/1999/xhtml\"><table class=\"hl7__eu__lab__report\"><tr><th>Test</th><th>08-Aug-2024</th><th>Reference&#xA0;Range</th><th>Unit</th></tr><tr><td>Urea nitrogen [Mass/volume] in Blood</td><td>9.2</td><td>7 - 20</td><td></td><td>mg/dL</td></tr></table></div>"
        },
        "status": "final",
        "subject": {
          "reference": "urn:uuid:839147f2-967a-4634-8b71-217f13f3a62b",
          "display": "Molly Jenkins"
        },
        "effectiveDateTime": "2024-08-08T14:42:11Z",
        "specimen": {
          "reference": "urn:uuid:175a4b06-b38e-4dc3-9add-96349c2753e6"
        }
      }
    },
    {
      "fullUrl": "urn:uuid:b8bd9f2b-ef31-4483-82c2-523c1c78ce74",
      "resource": {
        "resourceType": "Observation",
        "id": "b8bd9f2b-ef31-4483-82c2-523c1c78ce74",
        "meta": {
          "profile": [
            "http://hl7.eu/fhir/laboratory/StructureDefinition/Observation-resultslab-eu-lab"
          ]
        },
        "performer": [
          {
            "display": "The Central European Lab"
          }
        ],
        "category": [
          {
            "coding": [
              {
                "system": "http://terminology.hl7.org/CodeSystem/observation-category",
                "code": "laboratory"
              }
            ]
          }
        ],
        "code": {
          "coding": [
            {
              "code": "38483-4",
              "system": "http://loinc.org",
              "display": "Creatinine [Mass/volume] in Blood"
            }
          ],
          "text": "Creatinine [Mass/volume] in Blood"
        },
        "valueQuantity": {
          "system": "http://unitsofmeasure.org",
          "value": 2,
          "unit": "mg/dL",
          "code": "mg/dL"
        },
        "referenceRange": [
          {
            "low": {
              "value": 0.6,
              "code": "mg/dL",
              "system": "http://unitsofmeasure.org"
            }
          },
          {
            "high": {
              "value": 1.3,
              "code": "mg/dL",
              "system": "http://unitsofmeasure.org"
            }
          }
        ],
        "interpretation": [
          {
            "coding": [
              {
                "code": "H",
                "system": "http://terminology.hl7.org/CodeSystem/v3-ObservationInterpretation",
                "display": "High"
              }
            ]
          }
        ],
        "text": {
          "status": "generated",
          "div": "<div xmlns=\"http://www.w3.org/1999/xhtml\"><table class=\"hl7__eu__lab__report\"><tr><th>Test</th><th>08-Aug-2024</th><th>Reference&#xA0;Range</th><th>Unit</th></tr><tr><td>Creatinine [Mass/volume] in Blood</td><td>2.0</td><td>0.6 - 1.3</td><td>H</td><td>mg/dL</td></tr></table></div>"
        },
        "status": "final",
        "subject": {
          "reference": "urn:uuid:839147f2-967a-4634-8b71-217f13f3a62b",
          "display": "Molly Jenkins"
        },
        "effectiveDateTime": "2024-08-08T14:42:11Z",
        "specimen": {
          "reference": "urn:uuid:175a4b06-b38e-4dc3-9add-96349c2753e6"
        }
      }
    },
    {
      "fullUrl": "urn:uuid:fb43b886-cbc9-46b0-831a-b2c4a52a0067",
      "resource": {
        "resourceType": "Observation",
        "id": "fb43b886-cbc9-46b0-831a-b2c4a52a0067",
        "meta": {
          "profile": [
            "http://hl7.eu/fhir/laboratory/StructureDefinition/Observation-resultslab-eu-lab"
          ]
        },
        "performer": [
          {
            "display": "The Central European Lab"
          }
        ],
        "category": [
          {
            "coding": [
              {
                "system": "http://terminology.hl7.org/CodeSystem/observation-category",
                "code": "laboratory"
              }
            ]
          }
        ],
        "code": {
          "coding": [
            {
              "code": "49765-1",
              "system": "http://loinc.org",
              "display": "Calcium [Mass/volume] in Blood"
            }
          ],
          "text": "Calcium [Mass/volume] in Blood"
        },
        "valueQuantity": {
          "system": "http://unitsofmeasure.org",
          "value": 9.9,
          "unit": "mg/dL",
          "code": "mg/dL"
        },
        "referenceRange": [
          {
            "low": {
              "value": 8.6,
              "code": "mg/dL",
              "system": "http://unitsofmeasure.org"
            }
          },
          {
            "high": {
              "value": 10.4,
              "code": "mg/dL",
              "system": "http://unitsofmeasure.org"
            }
          }
        ],
        "text": {
          "status": "generated",
          "div": "<div xmlns=\"http://www.w3.org/1999/xhtml\"><table class=\"hl7__eu__lab__report\"><tr><th>Test</th><th>08-Aug-2024</th><th>Reference&#xA0;Range</th><th>Unit</th></tr><tr><td>Calcium [Mass/volume] in Blood</td><td>9.9</td><td>8.6 - 10.4</td><td></td><td>mg/dL</td></tr></table></div>"
        },
        "status": "final",
        "subject": {
          "reference": "urn:uuid:839147f2-967a-4634-8b71-217f13f3a62b",
          "display": "Molly Jenkins"
        },
        "effectiveDateTime": "2024-08-08T14:42:11Z",
        "specimen": {
          "reference": "urn:uuid:175a4b06-b38e-4dc3-9add-96349c2753e6"
        }
      }
    },
    {
      "fullUrl": "urn:uuid:d2cffa36-4ced-4639-b1f8-b1e92bef50b4",
      "resource": {
        "resourceType": "Observation",
        "id": "d2cffa36-4ced-4639-b1f8-b1e92bef50b4",
        "meta": {
          "profile": [
            "http://hl7.eu/fhir/laboratory/StructureDefinition/Observation-resultslab-eu-lab"
          ]
        },
        "performer": [
          {
            "display": "The Central European Lab"
          }
        ],
        "category": [
          {
            "coding": [
              {
                "system": "http://terminology.hl7.org/CodeSystem/observation-category",
                "code": "laboratory"
              }
            ]
          }
        ],
        "code": {
          "coding": [
            {
              "code": "2947-0",
              "system": "http://loinc.org",
              "display": "Sodium [Moles/volume] in Blood"
            }
          ],
          "text": "Sodium [Moles/volume] in Blood"
        },
        "valueQuantity": {
          "system": "http://unitsofmeasure.org",
          "value": 143.3,
          "unit": "mmol/L",
          "code": "mmol/L"
        },
        "referenceRange": [
          {
            "low": {
              "value": 135,
              "code": "mmol/L",
              "system": "http://unitsofmeasure.org"
            }
          },
          {
            "high": {
              "value": 145,
              "code": "mmol/L",
              "system": "http://unitsofmeasure.org"
            }
          }
        ],
        "text": {
          "status": "generated",
          "div": "<div xmlns=\"http://www.w3.org/1999/xhtml\"><table class=\"hl7__eu__lab__report\"><tr><th>Test</th><th>08-Aug-2024</th><th>Reference&#xA0;Range</th><th>Unit</th></tr><tr><td>Sodium [Moles/volume] in Blood</td><td>143.3</td><td>135 - 145</td><td></td><td>mmol/L</td></tr></table></div>"
        },
        "status": "final",
        "subject": {
          "reference": "urn:uuid:839147f2-967a-4634-8b71-217f13f3a62b",
          "display": "Molly Jenkins"
        },
        "effectiveDateTime": "2024-08-08T14:42:11Z",
        "specimen": {
          "reference": "urn:uuid:175a4b06-b38e-4dc3-9add-96349c2753e6"
        }
      }
    },
    {
      "fullUrl": "urn:uuid:9c40b34c-02e8-46db-a7d7-fbd1be8e2b35",
      "resource": {
        "resourceType": "Observation",
        "id": "9c40b34c-02e8-46db-a7d7-fbd1be8e2b35",
        "meta": {
          "profile": [
            "http://hl7.eu/fhir/laboratory/StructureDefinition/Observation-resultslab-eu-lab"
          ]
        },
        "performer": [
          {
            "display": "The Central European Lab"
          }
        ],
        "category": [
          {
            "coding": [
              {
                "system": "http://terminology.hl7.org/CodeSystem/observation-category",
                "code": "laboratory"
              }
            ]
          }
        ],
        "code": {
          "coding": [
            {
              "code": "6298-4",
              "system": "http://loinc.org",
              "display": "Potassium [Moles/volume] in Blood"
            }
          ],
          "text": "Potassium [Moles/volume] in Blood"
        },
        "valueQuantity": {
          "system": "http://unitsofmeasure.org",
          "value": 4.3,
          "unit": "mmol/L",
          "code": "mmol/L"
        },
        "referenceRange": [
          {
            "low": {
              "value": 3.5,
              "code": "mmol/L",
              "system": "http://unitsofmeasure.org"
            }
          },
          {
            "high": {
              "value": 5.1,
              "code": "mmol/L",
              "system": "http://unitsofmeasure.org"
            }
          }
        ],
        "text": {
          "status": "generated",
          "div": "<div xmlns=\"http://www.w3.org/1999/xhtml\"><table class=\"hl7__eu__lab__report\"><tr><th>Test</th><th>08-Aug-2024</th><th>Reference&#xA0;Range</th><th>Unit</th></tr><tr><td>Potassium [Moles/volume] in Blood</td><td>4.3</td><td>3.5 - 5.1</td><td></td><td>mmol/L</td></tr></table></div>"
        },
        "status": "final",
        "subject": {
          "reference": "urn:uuid:839147f2-967a-4634-8b71-217f13f3a62b",
          "display": "Molly Jenkins"
        },
        "effectiveDateTime": "2024-08-08T14:42:11Z",
        "specimen": {
          "reference": "urn:uuid:175a4b06-b38e-4dc3-9add-96349c2753e6"
        }
      }
    },
    {
      "fullUrl": "urn:uuid:9070a20f-51df-4d4c-a463-d2cd94b895c3",
      "resource": {
        "resourceType": "Observation",
        "id": "9070a20f-51df-4d4c-a463-d2cd94b895c3",
        "meta": {
          "profile": [
            "http://hl7.eu/fhir/laboratory/StructureDefinition/Observation-resultslab-eu-lab"
          ]
        },
        "performer": [
          {
            "display": "The Central European Lab"
          }
        ],
        "category": [
          {
            "coding": [
              {
                "system": "http://terminology.hl7.org/CodeSystem/observation-category",
                "code": "laboratory"
              }
            ]
          }
        ],
        "code": {
          "coding": [
            {
              "code": "2069-3",
              "system": "http://loinc.org",
              "display": "Chloride [Moles/volume] in Blood"
            }
          ],
          "text": "Chloride [Moles/volume] in Blood"
        },
        "valueQuantity": {
          "system": "http://unitsofmeasure.org",
          "value": 103.7,
          "unit": "mmol/L",
          "code": "mmol/L"
        },
        "referenceRange": [
          {
            "low": {
              "value": 98,
              "code": "mmol/L",
              "system": "http://unitsofmeasure.org"
            }
          },
          {
            "high": {
              "value": 110,
              "code": "mmol/L",
              "system": "http://unitsofmeasure.org"
            }
          }
        ],
        "text": {
          "status": "generated",
          "div": "<div xmlns=\"http://www.w3.org/1999/xhtml\"><table class=\"hl7__eu__lab__report\"><tr><th>Test</th><th>08-Aug-2024</th><th>Reference&#xA0;Range</th><th>Unit</th></tr><tr><td>Chloride [Moles/volume] in Blood</td><td>103.7</td><td>98 - 110</td><td></td><td>mmol/L</td></tr></table></div>"
        },
        "status": "final",
        "subject": {
          "reference": "urn:uuid:839147f2-967a-4634-8b71-217f13f3a62b",
          "display": "Molly Jenkins"
        },
        "effectiveDateTime": "2024-08-08T14:42:11Z",
        "specimen": {
          "reference": "urn:uuid:175a4b06-b38e-4dc3-9add-96349c2753e6"
        }
      }
    },
    {
      "fullUrl": "urn:uuid:34c50577-114c-4b24-ae98-53013fe97df2",
      "resource": {
        "resourceType": "Observation",
        "id": "34c50577-114c-4b24-ae98-53013fe97df2",
        "meta": {
          "profile": [
            "http://hl7.eu/fhir/laboratory/StructureDefinition/Observation-resultslab-eu-lab"
          ]
        },
        "performer": [
          {
            "display": "The Central European Lab"
          }
        ],
        "category": [
          {
            "coding": [
              {
                "system": "http://terminology.hl7.org/CodeSystem/observation-category",
                "code": "laboratory"
              }
            ]
          }
        ],
        "code": {
          "coding": [
            {
              "code": "20565-8",
              "system": "http://loinc.org",
              "display": "Carbon dioxide, total [Moles/volume] in Blood"
            }
          ],
          "text": "Carbon dioxide, total [Moles/volume] in Blood"
        },
        "valueQuantity": {
          "system": "http://unitsofmeasure.org",
          "value": 21.2,
          "unit": "mmol/L",
          "code": "mmol/L"
        },
        "referenceRange": [
          {
            "low": {
              "value": 22,
              "code": "mmol/L",
              "system": "http://unitsofmeasure.org"
            }
          },
          {
            "high": {
              "value": 29,
              "code": "mmol/L",
              "system": "http://unitsofmeasure.org"
            }
          }
        ],
        "interpretation": [
          {
            "coding": [
              {
                "code": "L",
                "system": "http://terminology.hl7.org/CodeSystem/v3-ObservationInterpretation",
                "display": "Low"
              }
            ]
          }
        ],
        "text": {
          "status": "generated",
          "div": "<div xmlns=\"http://www.w3.org/1999/xhtml\"><table class=\"hl7__eu__lab__report\"><tr><th>Test</th><th>08-Aug-2024</th><th>Reference&#xA0;Range</th><th>Unit</th></tr><tr><td>Carbon dioxide, total [Moles/volume] in Blood</td><td>21.2</td><td>22 - 29</td><td>L</td><td>mmol/L</td></tr></table></div>"
        },
        "status": "final",
        "subject": {
          "reference": "urn:uuid:839147f2-967a-4634-8b71-217f13f3a62b",
          "display": "Molly Jenkins"
        },
        "effectiveDateTime": "2024-08-08T14:42:11Z",
        "specimen": {
          "reference": "urn:uuid:175a4b06-b38e-4dc3-9add-96349c2753e6"
        }
      }
    },
    {
      "fullUrl": "urn:uuid:01842f2d-055f-406f-a192-e55dcef2e97e",
      "resource": {
        "resourceType": "Observation",
        "id": "01842f2d-055f-406f-a192-e55dcef2e97e",
        "meta": {
          "profile": [
            "http://hl7.eu/fhir/laboratory/StructureDefinition/Observation-resultslab-eu-lab"
          ]
        },
        "performer": [
          {
            "display": "The Central European Lab"
          }
        ],
        "category": [
          {
            "coding": [
              {
                "system": "http://terminology.hl7.org/CodeSystem/observation-category",
                "code": "laboratory"
              }
            ]
          }
        ],
        "code": {
          "coding": [
            {
              "code": "2093-3",
              "system": "http://loinc.org",
              "display": "Cholesterol [Mass/volume] in Serum or Plasma"
            }
          ],
          "text": "Cholesterol [Mass/volume] in Serum or Plasma"
        },
        "valueQuantity": {
          "system": "http://unitsofmeasure.org",
          "value": 158.2,
          "unit": "mg/dL",
          "code": "mg/dL"
        },
        "referenceRange": [
          {
            "low": {
              "value": 125,
              "code": "mg/dL",
              "system": "http://unitsofmeasure.org"
            }
          },
          {
            "high": {
              "value": 200,
              "code": "mg/dL",
              "system": "http://unitsofmeasure.org"
            }
          }
        ],
        "text": {
          "status": "generated",
          "div": "<div xmlns=\"http://www.w3.org/1999/xhtml\"><table class=\"hl7__eu__lab__report\"><tr><th>Test</th><th>08-Aug-2024</th><th>Reference&#xA0;Range</th><th>Unit</th></tr><tr><td>Cholesterol [Mass/volume] in Serum or Plasma</td><td>158.2</td><td>125 - 200</td><td></td><td>mg/dL</td></tr></table></div>"
        },
        "status": "final",
        "subject": {
          "reference": "urn:uuid:839147f2-967a-4634-8b71-217f13f3a62b",
          "display": "Molly Jenkins"
        },
        "effectiveDateTime": "2024-08-08T14:42:11Z",
        "specimen": {
          "reference": "urn:uuid:084ff8e8-361c-4654-bd5b-9347bb880162"
        }
      }
    },
    {
      "fullUrl": "urn:uuid:79b2932c-ebfd-4245-82e6-43d27cf1410a",
      "resource": {
        "resourceType": "Observation",
        "id": "79b2932c-ebfd-4245-82e6-43d27cf1410a",
        "meta": {
          "profile": [
            "http://hl7.eu/fhir/laboratory/StructureDefinition/Observation-resultslab-eu-lab"
          ]
        },
        "performer": [
          {
            "display": "The Central European Lab"
          }
        ],
        "category": [
          {
            "coding": [
              {
                "system": "http://terminology.hl7.org/CodeSystem/observation-category",
                "code": "laboratory"
              }
            ]
          }
        ],
        "code": {
          "coding": [
            {
              "code": "2571-8",
              "system": "http://loinc.org",
              "display": "Triglyceride [Mass/volume] in Serum or Plasma"
            }
          ],
          "text": "Triglyceride [Mass/volume] in Serum or Plasma"
        },
        "valueQuantity": {
          "system": "http://unitsofmeasure.org",
          "value": 107.3,
          "unit": "mg/dL",
          "code": "mg/dL"
        },
        "referenceRange": [
          {
            "low": {
              "value": 35,
              "code": "mg/dL",
              "system": "http://unitsofmeasure.org"
            }
          },
          {
            "high": {
              "value": 150,
              "code": "mg/dL",
              "system": "http://unitsofmeasure.org"
            }
          }
        ],
        "text": {
          "status": "generated",
          "div": "<div xmlns=\"http://www.w3.org/1999/xhtml\"><table class=\"hl7__eu__lab__report\"><tr><th>Test</th><th>08-Aug-2024</th><th>Reference&#xA0;Range</th><th>Unit</th></tr><tr><td>Triglyceride [Mass/volume] in Serum or Plasma</td><td>107.3</td><td>35 - 150</td><td></td><td>mg/dL</td></tr></table></div>"
        },
        "status": "final",
        "subject": {
          "reference": "urn:uuid:839147f2-967a-4634-8b71-217f13f3a62b",
          "display": "Molly Jenkins"
        },
        "effectiveDateTime": "2024-08-08T14:42:11Z",
        "specimen": {
          "reference": "urn:uuid:084ff8e8-361c-4654-bd5b-9347bb880162"
        }
      }
    },
    {
      "fullUrl": "urn:uuid:56856ee3-ce72-40ac-b0a1-cd44055be65e",
      "resource": {
        "resourceType": "Observation",
        "id": "56856ee3-ce72-40ac-b0a1-cd44055be65e",
        "meta": {
          "profile": [
            "http://hl7.eu/fhir/laboratory/StructureDefinition/Observation-resultslab-eu-lab"
          ]
        },
        "performer": [
          {
            "display": "The Central European Lab"
          }
        ],
        "category": [
          {
            "coding": [
              {
                "system": "http://terminology.hl7.org/CodeSystem/observation-category",
                "code": "laboratory"
              }
            ]
          }
        ],
        "code": {
          "coding": [
            {
              "code": "18262-6",
              "system": "http://loinc.org",
              "display": "Cholesterol in LDL [Mass/volume] in Serum or Plasma by Direct assay"
            }
          ],
          "text": "Cholesterol in LDL [Mass/volume] in Serum or Plasma by Direct assay"
        },
        "valueQuantity": {
          "system": "http://unitsofmeasure.org",
          "value": 85.2,
          "unit": "mg/dL",
          "code": "mg/dL"
        },
        "referenceRange": [
          {
            "low": {
              "value": 0,
              "code": "mg/dL",
              "system": "http://unitsofmeasure.org"
            }
          },
          {
            "high": {
              "value": 130,
              "code": "mg/dL",
              "system": "http://unitsofmeasure.org"
            }
          }
        ],
        "text": {
          "status": "generated",
          "div": "<div xmlns=\"http://www.w3.org/1999/xhtml\"><table class=\"hl7__eu__lab__report\"><tr><th>Test</th><th>08-Aug-2024</th><th>Reference&#xA0;Range</th><th>Unit</th></tr><tr><td>Cholesterol in LDL [Mass/volume] in Serum or Plasma by Direct assay</td><td>85.2</td><td>0 - 130</td><td></td><td>mg/dL</td></tr></table></div>"
        },
        "status": "final",
        "subject": {
          "reference": "urn:uuid:839147f2-967a-4634-8b71-217f13f3a62b",
          "display": "Molly Jenkins"
        },
        "effectiveDateTime": "2024-08-08T14:42:11Z",
        "specimen": {
          "reference": "urn:uuid:084ff8e8-361c-4654-bd5b-9347bb880162"
        }
      }
    },
    {
      "fullUrl": "urn:uuid:e752ba0c-27cc-4980-a7a3-128209740bb0",
      "resource": {
        "resourceType": "Observation",
        "id": "e752ba0c-27cc-4980-a7a3-128209740bb0",
        "meta": {
          "profile": [
            "http://hl7.eu/fhir/laboratory/StructureDefinition/Observation-resultslab-eu-lab"
          ]
        },
        "performer": [
          {
            "display": "The Central European Lab"
          }
        ],
        "category": [
          {
            "coding": [
              {
                "system": "http://terminology.hl7.org/CodeSystem/observation-category",
                "code": "laboratory"
              }
            ]
          }
        ],
        "code": {
          "coding": [
            {
              "code": "2085-9",
              "system": "http://loinc.org",
              "display": "Cholesterol in HDL [Mass/volume] in Serum or Plasma"
            }
          ],
          "text": "Cholesterol in HDL [Mass/volume] in Serum or Plasma"
        },
        "valueQuantity": {
          "system": "http://unitsofmeasure.org",
          "value": 51.6,
          "unit": "mg/dL",
          "code": "mg/dL"
        },
        "referenceRange": [
          {
            "low": {
              "value": 46,
              "code": "mg/dL",
              "system": "http://unitsofmeasure.org"
            }
          },
          {
            "high": {
              "value": 82,
              "code": "mg/dL",
              "system": "http://unitsofmeasure.org"
            }
          }
        ],
        "text": {
          "status": "generated",
          "div": "<div xmlns=\"http://www.w3.org/1999/xhtml\"><table class=\"hl7__eu__lab__report\"><tr><th>Test</th><th>08-Aug-2024</th><th>Reference&#xA0;Range</th><th>Unit</th></tr><tr><td>Cholesterol in HDL [Mass/volume] in Serum or Plasma</td><td>51.6</td><td>46 - 82</td><td></td><td>mg/dL</td></tr></table></div>"
        },
        "status": "final",
        "subject": {
          "reference": "urn:uuid:839147f2-967a-4634-8b71-217f13f3a62b",
          "display": "Molly Jenkins"
        },
        "effectiveDateTime": "2024-08-08T14:42:11Z",
        "specimen": {
          "reference": "urn:uuid:084ff8e8-361c-4654-bd5b-9347bb880162"
        }
      }
    },
    {
      "fullUrl": "urn:uuid:14bd7fd3-74e3-4f67-b2d6-254621299eb8",
      "resource": {
        "resourceType": "Device",
        "id": "14bd7fd3-74e3-4f67-b2d6-254621299eb8",
        "deviceName": [
          {
            "name": "SYNDERAI Synthetic Generator",
            "type": "manufacturer-name"
          }
        ],
        "version": [
          {
            "value": "5.0"
          }
        ],
        "text": {
          "status": "generated",
          "div": "<div xmlns=\"http://www.w3.org/1999/xhtml\">SYNDERAI Synthetic Generator v5.0</div>"
        },
        "status": "active\"",
        "distinctIdentifier": "synderai-generator-50",
        "manufacturer": "SYNDERAI Project"
      }
    },
    {
      "fullUrl": "urn:uuid:1046493c-b78a-4295-9a6d-1dc28eb23cc9",
      "resource": {
        "resourceType": "Provenance",
        "id": "1046493c-b78a-4295-9a6d-1dc28eb23cc9",
        "target": [
          {
            "reference": "Patient/839147f2-967a-4634-8b71-217f13f3a62b"
          },
          {
            "reference": "Bundle/081beaf2-b3d2-42f3-a71f-2005f0ebde52"
          },
          {
            "reference": "Composition/2a53d1e6-e59b-4d96-8c24-c1100ffc179d"
          },
          {
            "reference": "PractitionerRole/6bb21e96-f63b-46d4-aea3-58284514339b"
          },
          {
            "reference": "Practitioner/0829c875-9b7b-4621-bd7a-b6dd136a7637"
          },
          {
            "reference": "PractitionerRole/de5f44a9-3763-4475-9046-36608941f53e"
          },
          {
            "reference": "Organization/86786b3f-5cc7-4754-ac31-510b53f3b073"
          }
        ],
        "activity": {
          "text": "Synthetic Example Data Generation"
        },
        "policy": [
          "https://synderai.net/synderai-synthetic-data-policy"
        ],
        "agent": [
          {
            "type": {
              "text": "author"
            },
            "who": {
              "reference": "Device/14bd7fd3-74e3-4f67-b2d6-254621299eb8"
            }
          }
        ],
        "reason": [
          {
            "text": "Interoperability Testing and Training (non-clinical use)"
          }
        ],
        "text": {
          "status": "generated",
          "div": "<div xmlns=\"http://www.w3.org/1999/xhtml\">Provenance for SYNDERAI Synthetic Example Data Resource</div>"
        },
        "recorded": "2024-08-08T16:42:11Z"
      }
    },
    {
      "fullUrl": "urn:uuid:6bb21e96-f63b-46d4-aea3-58284514339b",
      "resource": {
        "resourceType": "PractitionerRole",
        "id": "6bb21e96-f63b-46d4-aea3-58284514339b",
        "meta": {
          "profile": [
            "http://hl7.eu/fhir/base/StructureDefinition/practitionerRole-eu"
          ]
        },
        "text": {
          "status": "generated",
          "div": "<div xmlns=\"http://www.w3.org/1999/xhtml\">Laboratory Role Id: 6bb21e96-f63b-46d4-aea3-58284514339b</div>"
        },
        "practitioner": {
          "reference": "urn:uuid:0829c875-9b7b-4621-bd7a-b6dd136a7637"
        }
      }
    },
    {
      "fullUrl": "urn:uuid:0829c875-9b7b-4621-bd7a-b6dd136a7637",
      "resource": {
        "resourceType": "Practitioner",
        "id": "0829c875-9b7b-4621-bd7a-b6dd136a7637",
        "meta": {
          "profile": [
            "http://hl7.eu/fhir/base/StructureDefinition/practitioner-eu"
          ]
        },
        "identifier": [
          {
            "assigner": {
              "display": "HL7 Europe"
            },
            "system": "urn:oid:2.16.840.1.113883.2.51.999",
            "value": "b61e55b8-2717-4671-974e-bfd096c357ba"
          }
        ],
        "name": [
          {
            "prefix": [
              "dr"
            ],
            "given": [
              "Ex"
            ],
            "family": "Ample"
          }
        ],
        "address": [
          {
            "line": [
              "Laboratoire Central Européenne",
              "Boulevard du Jardin Botanique 32"
            ],
            "postalCode": "1000",
            "city": "Brussels",
            "country": "Belgium"
          }
        ],
        "text": {
          "status": "generated",
          "div": "<div xmlns=\"http://www.w3.org/1999/xhtml\">Laboratory: Laboratoire Central Européenne, 1000 Brussels, Belgium</div>"
        }
      }
    }
  ],
  "type": "document",
  "timestamp": "2024-08-08T16:42:11Z"
}
