{
  "resourceType": "Bundle",
  "id": "fc3a4bc4-0c22-456b-b601-710d6ba026f6",
  "meta": {
    "profile": [
      "http://hl7.eu/fhir/laboratory/StructureDefinition/Bundle-eu-lab"
    ]
  },
  "identifier": {
    "assigner": {
      "display": "HL7 Europe"
    },
    "system": "urn:oid:2.16.840.1.113883.2.51.999",
    "value": "29e40de2-f590-49c0-a4f5-5a6ee8cb5df9"
  },
  "entry": [
    {
      "fullUrl": "urn:uuid:04f43af3-6020-4ff2-a12d-bbaa845a0da7",
      "resource": {
        "resourceType": "Composition",
        "id": "04f43af3-6020-4ff2-a12d-bbaa845a0da7",
        "meta": {
          "profile": [
            "http://hl7.eu/fhir/laboratory/StructureDefinition/Composition-eu-lab"
          ]
        },
        "identifier": {
          "assigner": {
            "display": "HL7 Europe"
          },
          "system": "urn:oid:2.16.840.1.113883.2.51.999",
          "value": "35cdcfbf-1796-4088-8a94-fed60d475cd6"
        },
        "author": [
          {
            "reference": "urn:uuid:2e9b6e87-64fd-4e92-891e-580dbdcb8a18"
          }
        ],
        "category": [
          {
            "coding": [
              {
                "code": "26436-6",
                "system": "http://loinc.org",
                "display": "Laboratory studies (set)"
              }
            ]
          }
        ],
        "type": {
          "coding": [
            {
              "code": "11502-2",
              "system": "http://loinc.org",
              "display": "Laboratory report"
            }
          ],
          "text": "Laboratory Report"
        },
        "section": [
          {
            "code": {
              "coding": [
                {
                  "code": "26436-6",
                  "system": "http://loinc.org",
                  "display": "Laboratory studies (set)"
                }
              ],
              "text": "Laboratory studies"
            },
            "section": [
              {
                "code": {
                  "coding": [
                    {
                      "code": "$18723-7",
                      "system": "http://loinc.org",
                      "display": "Hematology studies (set)"
                    }
                  ],
                  "text": "Hematology"
                },
                "entry": [
                  {
                    "reference": "urn:uuid:a7b5b937-1f72-458b-b379-bd5bb8424692"
                  },
                  {
                    "reference": "urn:uuid:c336394c-7abd-494e-8897-9c0d99bf3236"
                  },
                  {
                    "reference": "urn:uuid:22a49689-9152-46b2-8b22-e6cdda1879d9"
                  },
                  {
                    "reference": "urn:uuid:3b24e1da-bc19-4c56-a455-4adebadf6951"
                  },
                  {
                    "reference": "urn:uuid:94583af1-53c7-4857-a29e-22d2b41a4bee"
                  },
                  {
                    "reference": "urn:uuid:12e7d398-352a-4ed7-8c8d-b5d00ff6a594"
                  },
                  {
                    "reference": "urn:uuid:8e73fefb-b38d-4284-8e6b-2f730ed96164"
                  },
                  {
                    "reference": "urn:uuid:26076f46-eaf5-47db-916c-e615e62cf06e"
                  },
                  {
                    "reference": "urn:uuid:ef0b7444-b353-469e-92e7-d89ef5b9ba3d"
                  },
                  {
                    "reference": "urn:uuid:9b81b143-8baf-4f34-a84f-da724794dec7"
                  },
                  {
                    "reference": "urn:uuid:eb1306fb-e722-4185-9992-9691a1dde603"
                  }
                ],
                "text": {
                  "status": "generated",
                  "div": "<div xmlns=\"http://www.w3.org/1999/xhtml\"><h3>Hematology</h3><table class=\"hl7__eu__lab__report\"><thead><tr><th>Test</th><th>21-DEC-2023</th><th>Reference&#xA0;Range</th><th>Unit</th></tr></thead><tbody><tr><td>Leukocytes [#/volume] in Blood by Automated count</td><td>5.3</td><td>3.5 - 10.5</td><td>10*3/uL</td></tr><tr><td>Erythrocytes [#/volume] in Blood by Automated count</td><td>4.6</td><td>4.5 - 5.5</td><td>10*6/uL</td></tr><tr><td>Hemoglobin [Mass/volume] in Blood</td><td>14.1</td><td>14 - 18</td><td>g/dL</td></tr><tr><td>Hematocrit [Volume Fraction] of Blood by Automated count</td><td><strong>37.1 L</strong></td><td>38 - 50</td><td>%</td></tr><tr><td>MCV [Entitic volume] by Automated count</td><td>82.0</td><td>80 - 98</td><td>fL</td></tr><tr><td>MCH [Entitic mass] by Automated count</td><td>28.4</td><td>27 - 34</td><td>pg</td></tr><tr><td>MCHC [Mass/volume] by Automated count</td><td>34.0</td><td>32 - 36</td><td>g/dL</td></tr><tr><td>Erythrocyte distribution width [Entitic volume] by Automated count</td><td>39.7</td><td>39 - 55</td><td>fL</td></tr><tr><td>Platelets [#/volume] in Blood by Automated count</td><td>231.5</td><td>150 - 400</td><td>10*3/uL</td></tr><tr><td>Platelet distribution width [Entitic volume] in Blood by Automated count</td><td><strong>236.3 H</strong></td><td>13.4 - 17.4</td><td>fL</td></tr><tr><td>Platelet mean volume [Entitic volume] in Blood by Automated count</td><td>12.3</td><td>7.2 - 13.8</td><td>fL</td></tr></tbody></table></div>"
                },
                "title": "Hematology"
              },
              {
                "code": {
                  "coding": [
                    {
                      "code": "$18719-5",
                      "system": "http://loinc.org",
                      "display": "Chemistry studies (set)"
                    }
                  ],
                  "text": "Chemistry"
                },
                "entry": [
                  {
                    "reference": "urn:uuid:61adf2f3-260e-4beb-8d09-51287abb099b"
                  },
                  {
                    "reference": "urn:uuid:14e0a1ca-f4f1-4692-9df0-2c0a8fcef75d"
                  },
                  {
                    "reference": "urn:uuid:f3a2dbdd-fd56-4bde-b761-13fdbed66a9a"
                  },
                  {
                    "reference": "urn:uuid:8a3923bd-743e-4c1e-901f-b7514240760e"
                  }
                ],
                "text": {
                  "status": "generated",
                  "div": "<div xmlns=\"http://www.w3.org/1999/xhtml\"><h3>Chemistry</h3><table class=\"hl7__eu__lab__report\"><thead><tr><th>Test</th><th>21-DEC-2023</th><th>Reference&#xA0;Range</th><th>Unit</th></tr></thead><tbody><tr><td>Cholesterol [Mass/volume] in Serum or Plasma</td><td>175.4</td><td>125 - 200</td><td>mg/dL</td></tr><tr><td>Triglyceride [Mass/volume] in Serum or Plasma</td><td>100.3</td><td>40 - 150</td><td>mg/dL</td></tr><tr><td>Cholesterol in LDL [Mass/volume] in Serum or Plasma by Direct assay</td><td>103.0</td><td>0 - 130</td><td>mg/dL</td></tr><tr><td>Cholesterol in HDL [Mass/volume] in Serum or Plasma</td><td>52.4</td><td>40 - 60</td><td>mg/dL</td></tr></tbody></table></div>"
                },
                "title": "Chemistry"
              }
            ],
            "title": "Laboratory Report"
          },
          {
            "text": {
              "status": "generated",
              "div": "<div xmlns=\"http://www.w3.org/1999/xhtml\"><h3>Annotation</h3><table class=\"hl7__eu__lab__report\"><tr><th>Conclusion and Recommendations based on this report and previous findings known to us</th></tr><tr><td>All lipid and blood cell parameters are within normal limits, except for a mildly decreased hematocrit (37.1%, slightly below lower limit) and a markedly elevated platelet distribution width (236.3 fL, above normal). These findings may suggest mild anemia and increased platelet size variability, which can be seen in reactive states or early platelet regeneration. Clinical correlation is recommended.</td></tr></table></div>"
            },
            "code": {
              "coding": [
                {
                  "system": "http://loinc.org",
                  "code": "48767-8",
                  "display": "Annotation comment"
                }
              ]
            },
            "title": "Annotation comment"
          }
        ],
        "status": "final",
        "subject": {
          "reference": "urn:uuid:35fc6992-61a9-41ee-b278-def4f7a243dd",
          "display": "Alberto Manrique"
        },
        "date": "2023-12-21T11:32:27Z",
        "title": "Laboratory Report",
        "confidentiality": "N"
      }
    },
    {
      "fullUrl": "urn:uuid:ad65bae4-3f8c-4ce4-90a5-74e20665c002",
      "resource": {
        "resourceType": "DiagnosticReport",
        "id": "ad65bae4-3f8c-4ce4-90a5-74e20665c002",
        "meta": {
          "profile": [
            "http://hl7.eu/fhir/laboratory/StructureDefinition/DiagnosticReport-eu-lab"
          ]
        },
        "identifier": [
          {
            "assigner": {
              "display": "HL7 Europe"
            },
            "system": "urn:oid:2.16.840.1.113883.2.51.999",
            "value": "11fda4ba-2dc2-4f4e-bc5a-bf3287be6f67"
          }
        ],
        "extension": [
          {
            "url": "http://hl7.org/fhir/5.0/StructureDefinition/extension-DiagnosticReport.composition",
            "valueReference": {
              "reference": "urn:uuid:35cdcfbf-1796-4088-8a94-fed60d475cd6"
            }
          }
        ],
        "category": [
          {
            "coding": [
              {
                "code": "26436-6",
                "system": "http://loinc.org",
                "display": "Laboratory studies (set)"
              }
            ]
          }
        ],
        "specimen": [
          {
            "reference": "urn:uuid:b64822ee-36ab-42ab-b332-43d01b2935fa"
          },
          {
            "reference": "urn:uuid:8b8477ce-ff0b-4c55-bc74-0ac7d69a0ff8"
          },
          {
            "reference": "urn:uuid:8b8477ce-ff0b-4c55-bc74-0ac7d69a0ff8"
          }
        ],
        "result": [
          {
            "reference": "urn:uuid:61adf2f3-260e-4beb-8d09-51287abb099b"
          },
          {
            "reference": "urn:uuid:14e0a1ca-f4f1-4692-9df0-2c0a8fcef75d"
          },
          {
            "reference": "urn:uuid:f3a2dbdd-fd56-4bde-b761-13fdbed66a9a"
          },
          {
            "reference": "urn:uuid:8a3923bd-743e-4c1e-901f-b7514240760e"
          },
          {
            "reference": "urn:uuid:a7b5b937-1f72-458b-b379-bd5bb8424692"
          },
          {
            "reference": "urn:uuid:c336394c-7abd-494e-8897-9c0d99bf3236"
          },
          {
            "reference": "urn:uuid:22a49689-9152-46b2-8b22-e6cdda1879d9"
          },
          {
            "reference": "urn:uuid:3b24e1da-bc19-4c56-a455-4adebadf6951"
          },
          {
            "reference": "urn:uuid:94583af1-53c7-4857-a29e-22d2b41a4bee"
          },
          {
            "reference": "urn:uuid:12e7d398-352a-4ed7-8c8d-b5d00ff6a594"
          },
          {
            "reference": "urn:uuid:8e73fefb-b38d-4284-8e6b-2f730ed96164"
          },
          {
            "reference": "urn:uuid:26076f46-eaf5-47db-916c-e615e62cf06e"
          },
          {
            "reference": "urn:uuid:ef0b7444-b353-469e-92e7-d89ef5b9ba3d"
          },
          {
            "reference": "urn:uuid:9b81b143-8baf-4f34-a84f-da724794dec7"
          },
          {
            "reference": "urn:uuid:eb1306fb-e722-4185-9992-9691a1dde603"
          }
        ],
        "status": "registered",
        "code": {
          "coding": [
            {
              "code": "11502-2",
              "system": "http://loinc.org",
              "display": "Laboratory report"
            }
          ]
        },
        "subject": {
          "reference": "urn:uuid:35fc6992-61a9-41ee-b278-def4f7a243dd",
          "display": "Alberto Manrique"
        }
      }
    },
    {
      "fullUrl": "urn:uuid:35fc6992-61a9-41ee-b278-def4f7a243dd",
      "resource": {
        "resourceType": "Patient",
        "id": "35fc6992-61a9-41ee-b278-def4f7a243dd",
        "meta": {
          "security": [
            {
              "system": "http://terminology.hl7.org/CodeSystem/v3-ActReason",
              "code": "HTEST"
            },
            {
              "system": "http://terminology.hl7.org/CodeSystem/v3-ActReason",
              "code": "TRAIN"
            }
          ],
          "tag": [
            {
              "system": "https://synderai.net/fhir/CodeSystem/tags",
              "code": "synthetic",
              "display": "SYNDERAI Synthetic data"
            }
          ],
          "profile": [
            "http://hl7.eu/fhir/base/StructureDefinition/patient-eu-core"
          ]
        },
        "identifier": [
          {
            "type": {
              "coding": [
                {
                  "code": "PT",
                  "system": "http://terminology.hl7.org/CodeSystem/v2-0203"
                }
              ]
            },
            "system": "http://ec.europa.eu/identifier/eci",
            "value": "7218-581842-3"
          },
          {
            "type": {
              "coding": [
                {
                  "code": "MR",
                  "system": "http://terminology.hl7.org/CodeSystem/v2-0203"
                }
              ]
            },
            "system": "http://local.setting.eu/identifier",
            "value": "b6afc1e6-e260-fa0e-a335-1699bedecb9b"
          }
        ],
        "name": [
          {
            "family": "Manrique"
          },
          {
            "given": [
              "Alberto"
            ]
          },
          {
            "text": "Alberto Manrique"
          }
        ],
        "address": [
          {
            "line": [
              "Pasaje de Elisabet Rey 25"
            ],
            "use": "home",
            "type": "physical",
            "postalCode": "47001",
            "city": "Valladolid",
            "country": "Spain"
          }
        ],
        "telecom": [
          {
            "system": "phone",
            "value": "+34 827 76 55 59"
          }
        ],
        "extension": [
          {
            "url": "http://hl7.org/fhir/StructureDefinition/patient-nationality",
            "valueCodeableConcept": {
              "coding": [
                {
                  "code": "ES",
                  "system": "http://hl7.org/fhir/ValueSet/country"
                }
              ]
            }
          }
        ],
        "text": {
          "status": "generated",
          "div": "<div xmlns=\"http://www.w3.org/1999/xhtml\"><table class=\"hl7__ips\"><tr><td>Alberto Manrique</td><td>male</td><td>05-Apr-1993</td></tr></table></div>"
        },
        "gender": "male",
        "birthDate": "1993-04-05"
      }
    },
    {
      "fullUrl": "urn:uuid:e85da454-d6f9-4402-87c7-fbf925bee23e",
      "resource": {
        "resourceType": "ServiceRequest",
        "id": "e85da454-d6f9-4402-87c7-fbf925bee23e",
        "meta": {
          "profile": [
            "http://hl7.eu/fhir/laboratory/StructureDefinition/ServiceRequest-eu-lab"
          ]
        },
        "identifier": [
          {
            "system": "http://example.org",
            "value": "fd7b7ec4-0263-44ad-9280-48a195ad2948"
          }
        ],
        "specimen": [
          {
            "reference": "urn:uuid:b64822ee-36ab-42ab-b332-43d01b2935fa"
          },
          {
            "reference": "urn:uuid:8b8477ce-ff0b-4c55-bc74-0ac7d69a0ff8"
          }
        ],
        "reasonCode": [
          {
            "coding": [
              {
                "code": "59621000",
                "system": "http://snomed.info/sct",
                "display": "Essential hypertension"
              }
            ]
          }
        ],
        "status": "active",
        "intent": "order",
        "code": {
          "coding": [
            {
              "code": "108252007",
              "system": "http://snomed.info/sct",
              "display": "Laboratory procedure"
            }
          ]
        },
        "subject": {
          "reference": "urn:uuid:35fc6992-61a9-41ee-b278-def4f7a243dd",
          "display": "Alberto Manrique"
        },
        "requester": {
          "reference": "urn:uuid:69d128a0-0357-4c40-b95d-69c9afdeeb65"
        }
      }
    },
    {
      "fullUrl": "urn:uuid:69d128a0-0357-4c40-b95d-69c9afdeeb65",
      "resource": {
        "resourceType": "PractitionerRole",
        "id": "69d128a0-0357-4c40-b95d-69c9afdeeb65",
        "meta": {
          "profile": [
            "http://hl7.eu/fhir/base/StructureDefinition/practitionerRole-eu"
          ]
        },
        "text": {
          "status": "generated",
          "div": "<div xmlns=\"http://www.w3.org/1999/xhtml\">Provider Role Id: 69d128a0-0357-4c40-b95d-69c9afdeeb65</div>"
        },
        "organization": {
          "reference": "urn:uuid:60981258-829a-4bf3-8fa2-ce37d4e36713"
        }
      }
    },
    {
      "fullUrl": "urn:uuid:60981258-829a-4bf3-8fa2-ce37d4e36713",
      "resource": {
        "resourceType": "Organization",
        "id": "60981258-829a-4bf3-8fa2-ce37d4e36713",
        "meta": {
          "profile": [
            "http://hl7.eu/fhir/base/StructureDefinition/organization-eu"
          ]
        },
        "identifier": [
          {
            "assigner": {
              "display": "HL7 Europe"
            },
            "system": "urn:oid:2.16.840.1.113883.2.51.999",
            "value": "9cf4a9b1-bd30-4cc1-8a9d-ef35785264d1"
          }
        ],
        "address": [
          {
            "line": [
              "Calle de la Estación del Norte nan"
            ],
            "city": "Valladolid",
            "postalCode": "47007",
            "country": "Spain"
          }
        ],
        "text": {
          "status": "generated",
          "div": "<div xmlns=\"http://www.w3.org/1999/xhtml\">Provider Organization: Hospital Recoletas Campo Grande</div>"
        },
        "name": "Hospital Recoletas Campo Grande"
      }
    },
    {
      "fullUrl": "urn:uuid:b64822ee-36ab-42ab-b332-43d01b2935fa",
      "resource": {
        "resourceType": "Specimen",
        "id": "b64822ee-36ab-42ab-b332-43d01b2935fa",
        "meta": {
          "profile": [
            "http://hl7.eu/fhir/laboratory/StructureDefinition/Specimen-eu-lab"
          ]
        },
        "collection": {
          "collectedDateTime": "2023-12-21"
        },
        "text": {
          "status": "generated",
          "div": "<div xmlns=\"http://www.w3.org/1999/xhtml\"><table class=\"hl7__eu__lab__report\"><tr><th>Specimen</th><th>Collection Date</th></tr><tr><td>Acellular blood (serum or plasma) specimen</td><td><span class=\"nb\">21-Dec-2023</span></td></tr></table></div>"
        },
        "type": {
          "coding": [
            {
              "code": "122592007",
              "system": "http://snomed.info/sct",
              "display": "Acellular blood (serum or plasma) specimen"
            }
          ]
        }
      }
    },
    {
      "fullUrl": "urn:uuid:8b8477ce-ff0b-4c55-bc74-0ac7d69a0ff8",
      "resource": {
        "resourceType": "Specimen",
        "id": "8b8477ce-ff0b-4c55-bc74-0ac7d69a0ff8",
        "meta": {
          "profile": [
            "http://hl7.eu/fhir/laboratory/StructureDefinition/Specimen-eu-lab"
          ]
        },
        "collection": {
          "collectedDateTime": "2023-12-21"
        },
        "text": {
          "status": "generated",
          "div": "<div xmlns=\"http://www.w3.org/1999/xhtml\"><table class=\"hl7__eu__lab__report\"><tr><th>Specimen</th><th>Collection Date</th></tr><tr><td>Whole blood specimen (specimen)</td><td><span class=\"nb\">21-Dec-2023</span></td></tr></table></div>"
        },
        "type": {
          "coding": [
            {
              "code": "258580003",
              "system": "http://snomed.info/sct",
              "display": "Whole blood specimen (specimen)"
            }
          ]
        }
      }
    },
    {
      "fullUrl": "urn:uuid:8b8477ce-ff0b-4c55-bc74-0ac7d69a0ff8",
      "resource": {
        "resourceType": "Specimen",
        "id": "8b8477ce-ff0b-4c55-bc74-0ac7d69a0ff8",
        "meta": {
          "profile": [
            "http://hl7.eu/fhir/laboratory/StructureDefinition/Specimen-eu-lab"
          ]
        },
        "collection": {
          "collectedDateTime": "2023-12-21"
        },
        "text": {
          "status": "generated",
          "div": "<div xmlns=\"http://www.w3.org/1999/xhtml\"><table class=\"hl7__eu__lab__report\"><tr><th>Specimen</th><th>Collection Date</th></tr><tr><td>Whole blood specimen (specimen)</td><td><span class=\"nb\">21-Dec-2023</span></td></tr></table></div>"
        },
        "type": {
          "coding": [
            {
              "code": "258580003",
              "system": "http://snomed.info/sct",
              "display": "Whole blood specimen (specimen)"
            }
          ]
        }
      }
    },
    {
      "fullUrl": "urn:uuid:61adf2f3-260e-4beb-8d09-51287abb099b",
      "resource": {
        "resourceType": "Observation",
        "id": "61adf2f3-260e-4beb-8d09-51287abb099b",
        "meta": {
          "profile": [
            "http://hl7.eu/fhir/laboratory/StructureDefinition/Observation-resultslab-eu-lab"
          ]
        },
        "performer": [
          {
            "display": "The Central European Lab"
          }
        ],
        "category": [
          {
            "coding": [
              {
                "system": "http://terminology.hl7.org/CodeSystem/observation-category",
                "code": "laboratory"
              }
            ]
          }
        ],
        "code": {
          "coding": [
            {
              "code": "2093-3",
              "system": "http://loinc.org",
              "display": "Cholesterol [Mass/volume] in Serum or Plasma"
            }
          ],
          "text": "Cholesterol [Mass/volume] in Serum or Plasma"
        },
        "valueQuantity": {
          "system": "http://unitsofmeasure.org",
          "value": 175.4,
          "unit": "mg/dL",
          "code": "mg/dL"
        },
        "referenceRange": [
          {
            "low": {
              "value": 125,
              "code": "mg/dL",
              "system": "http://unitsofmeasure.org"
            }
          },
          {
            "high": {
              "value": 200,
              "code": "mg/dL",
              "system": "http://unitsofmeasure.org"
            }
          }
        ],
        "text": {
          "status": "generated",
          "div": "<div xmlns=\"http://www.w3.org/1999/xhtml\"><table class=\"hl7__eu__lab__report\"><tr><th>Test</th><th>21-Dec-2023</th><th>Reference&#xA0;Range</th><th>Unit</th></tr><tr><td>Cholesterol [Mass/volume] in Serum or Plasma</td><td>175.4</td><td>125 - 200</td><td></td><td>mg/dL</td></tr></table></div>"
        },
        "status": "final",
        "subject": {
          "reference": "urn:uuid:35fc6992-61a9-41ee-b278-def4f7a243dd",
          "display": "Alberto Manrique"
        },
        "effectiveDateTime": "2023-12-21T10:32:27Z",
        "specimen": {
          "reference": "urn:uuid:b64822ee-36ab-42ab-b332-43d01b2935fa"
        }
      }
    },
    {
      "fullUrl": "urn:uuid:14e0a1ca-f4f1-4692-9df0-2c0a8fcef75d",
      "resource": {
        "resourceType": "Observation",
        "id": "14e0a1ca-f4f1-4692-9df0-2c0a8fcef75d",
        "meta": {
          "profile": [
            "http://hl7.eu/fhir/laboratory/StructureDefinition/Observation-resultslab-eu-lab"
          ]
        },
        "performer": [
          {
            "display": "The Central European Lab"
          }
        ],
        "category": [
          {
            "coding": [
              {
                "system": "http://terminology.hl7.org/CodeSystem/observation-category",
                "code": "laboratory"
              }
            ]
          }
        ],
        "code": {
          "coding": [
            {
              "code": "2571-8",
              "system": "http://loinc.org",
              "display": "Triglyceride [Mass/volume] in Serum or Plasma"
            }
          ],
          "text": "Triglyceride [Mass/volume] in Serum or Plasma"
        },
        "valueQuantity": {
          "system": "http://unitsofmeasure.org",
          "value": 100.3,
          "unit": "mg/dL",
          "code": "mg/dL"
        },
        "referenceRange": [
          {
            "low": {
              "value": 40,
              "code": "mg/dL",
              "system": "http://unitsofmeasure.org"
            }
          },
          {
            "high": {
              "value": 150,
              "code": "mg/dL",
              "system": "http://unitsofmeasure.org"
            }
          }
        ],
        "text": {
          "status": "generated",
          "div": "<div xmlns=\"http://www.w3.org/1999/xhtml\"><table class=\"hl7__eu__lab__report\"><tr><th>Test</th><th>21-Dec-2023</th><th>Reference&#xA0;Range</th><th>Unit</th></tr><tr><td>Triglyceride [Mass/volume] in Serum or Plasma</td><td>100.3</td><td>40 - 150</td><td></td><td>mg/dL</td></tr></table></div>"
        },
        "status": "final",
        "subject": {
          "reference": "urn:uuid:35fc6992-61a9-41ee-b278-def4f7a243dd",
          "display": "Alberto Manrique"
        },
        "effectiveDateTime": "2023-12-21T10:32:27Z",
        "specimen": {
          "reference": "urn:uuid:b64822ee-36ab-42ab-b332-43d01b2935fa"
        }
      }
    },
    {
      "fullUrl": "urn:uuid:f3a2dbdd-fd56-4bde-b761-13fdbed66a9a",
      "resource": {
        "resourceType": "Observation",
        "id": "f3a2dbdd-fd56-4bde-b761-13fdbed66a9a",
        "meta": {
          "profile": [
            "http://hl7.eu/fhir/laboratory/StructureDefinition/Observation-resultslab-eu-lab"
          ]
        },
        "performer": [
          {
            "display": "The Central European Lab"
          }
        ],
        "category": [
          {
            "coding": [
              {
                "system": "http://terminology.hl7.org/CodeSystem/observation-category",
                "code": "laboratory"
              }
            ]
          }
        ],
        "code": {
          "coding": [
            {
              "code": "18262-6",
              "system": "http://loinc.org",
              "display": "Cholesterol in LDL [Mass/volume] in Serum or Plasma by Direct assay"
            }
          ],
          "text": "Cholesterol in LDL [Mass/volume] in Serum or Plasma by Direct assay"
        },
        "valueQuantity": {
          "system": "http://unitsofmeasure.org",
          "value": 103,
          "unit": "mg/dL",
          "code": "mg/dL"
        },
        "referenceRange": [
          {
            "low": {
              "value": 0,
              "code": "mg/dL",
              "system": "http://unitsofmeasure.org"
            }
          },
          {
            "high": {
              "value": 130,
              "code": "mg/dL",
              "system": "http://unitsofmeasure.org"
            }
          }
        ],
        "text": {
          "status": "generated",
          "div": "<div xmlns=\"http://www.w3.org/1999/xhtml\"><table class=\"hl7__eu__lab__report\"><tr><th>Test</th><th>21-Dec-2023</th><th>Reference&#xA0;Range</th><th>Unit</th></tr><tr><td>Cholesterol in LDL [Mass/volume] in Serum or Plasma by Direct assay</td><td>103.0</td><td>0 - 130</td><td></td><td>mg/dL</td></tr></table></div>"
        },
        "status": "final",
        "subject": {
          "reference": "urn:uuid:35fc6992-61a9-41ee-b278-def4f7a243dd",
          "display": "Alberto Manrique"
        },
        "effectiveDateTime": "2023-12-21T10:32:27Z",
        "specimen": {
          "reference": "urn:uuid:b64822ee-36ab-42ab-b332-43d01b2935fa"
        }
      }
    },
    {
      "fullUrl": "urn:uuid:8a3923bd-743e-4c1e-901f-b7514240760e",
      "resource": {
        "resourceType": "Observation",
        "id": "8a3923bd-743e-4c1e-901f-b7514240760e",
        "meta": {
          "profile": [
            "http://hl7.eu/fhir/laboratory/StructureDefinition/Observation-resultslab-eu-lab"
          ]
        },
        "performer": [
          {
            "display": "The Central European Lab"
          }
        ],
        "category": [
          {
            "coding": [
              {
                "system": "http://terminology.hl7.org/CodeSystem/observation-category",
                "code": "laboratory"
              }
            ]
          }
        ],
        "code": {
          "coding": [
            {
              "code": "2085-9",
              "system": "http://loinc.org",
              "display": "Cholesterol in HDL [Mass/volume] in Serum or Plasma"
            }
          ],
          "text": "Cholesterol in HDL [Mass/volume] in Serum or Plasma"
        },
        "valueQuantity": {
          "system": "http://unitsofmeasure.org",
          "value": 52.4,
          "unit": "mg/dL",
          "code": "mg/dL"
        },
        "referenceRange": [
          {
            "low": {
              "value": 40,
              "code": "mg/dL",
              "system": "http://unitsofmeasure.org"
            }
          },
          {
            "high": {
              "value": 60,
              "code": "mg/dL",
              "system": "http://unitsofmeasure.org"
            }
          }
        ],
        "text": {
          "status": "generated",
          "div": "<div xmlns=\"http://www.w3.org/1999/xhtml\"><table class=\"hl7__eu__lab__report\"><tr><th>Test</th><th>21-Dec-2023</th><th>Reference&#xA0;Range</th><th>Unit</th></tr><tr><td>Cholesterol in HDL [Mass/volume] in Serum or Plasma</td><td>52.4</td><td>40 - 60</td><td></td><td>mg/dL</td></tr></table></div>"
        },
        "status": "final",
        "subject": {
          "reference": "urn:uuid:35fc6992-61a9-41ee-b278-def4f7a243dd",
          "display": "Alberto Manrique"
        },
        "effectiveDateTime": "2023-12-21T10:32:27Z",
        "specimen": {
          "reference": "urn:uuid:b64822ee-36ab-42ab-b332-43d01b2935fa"
        }
      }
    },
    {
      "fullUrl": "urn:uuid:a7b5b937-1f72-458b-b379-bd5bb8424692",
      "resource": {
        "resourceType": "Observation",
        "id": "a7b5b937-1f72-458b-b379-bd5bb8424692",
        "meta": {
          "profile": [
            "http://hl7.eu/fhir/laboratory/StructureDefinition/Observation-resultslab-eu-lab"
          ]
        },
        "performer": [
          {
            "display": "The Central European Lab"
          }
        ],
        "category": [
          {
            "coding": [
              {
                "system": "http://terminology.hl7.org/CodeSystem/observation-category",
                "code": "laboratory"
              }
            ]
          }
        ],
        "code": {
          "coding": [
            {
              "code": "6690-2",
              "system": "http://loinc.org",
              "display": "Leukocytes [#/volume] in Blood by Automated count"
            }
          ],
          "text": "Leukocytes [#/volume] in Blood by Automated count"
        },
        "valueQuantity": {
          "system": "http://unitsofmeasure.org",
          "value": 5.3,
          "unit": "10*3/uL",
          "code": "10*3/uL"
        },
        "referenceRange": [
          {
            "low": {
              "value": 3.5,
              "code": "10*3/uL",
              "system": "http://unitsofmeasure.org"
            }
          },
          {
            "high": {
              "value": 10.5,
              "code": "10*3/uL",
              "system": "http://unitsofmeasure.org"
            }
          }
        ],
        "text": {
          "status": "generated",
          "div": "<div xmlns=\"http://www.w3.org/1999/xhtml\"><table class=\"hl7__eu__lab__report\"><tr><th>Test</th><th>21-Dec-2023</th><th>Reference&#xA0;Range</th><th>Unit</th></tr><tr><td>Leukocytes [#/volume] in Blood by Automated count</td><td>5.3</td><td>3.5 - 10.5</td><td></td><td>10*3/uL</td></tr></table></div>"
        },
        "status": "final",
        "subject": {
          "reference": "urn:uuid:35fc6992-61a9-41ee-b278-def4f7a243dd",
          "display": "Alberto Manrique"
        },
        "effectiveDateTime": "2023-12-21T10:32:27Z",
        "specimen": {
          "reference": "urn:uuid:8b8477ce-ff0b-4c55-bc74-0ac7d69a0ff8"
        }
      }
    },
    {
      "fullUrl": "urn:uuid:c336394c-7abd-494e-8897-9c0d99bf3236",
      "resource": {
        "resourceType": "Observation",
        "id": "c336394c-7abd-494e-8897-9c0d99bf3236",
        "meta": {
          "profile": [
            "http://hl7.eu/fhir/laboratory/StructureDefinition/Observation-resultslab-eu-lab"
          ]
        },
        "performer": [
          {
            "display": "The Central European Lab"
          }
        ],
        "category": [
          {
            "coding": [
              {
                "system": "http://terminology.hl7.org/CodeSystem/observation-category",
                "code": "laboratory"
              }
            ]
          }
        ],
        "code": {
          "coding": [
            {
              "code": "789-8",
              "system": "http://loinc.org",
              "display": "Erythrocytes [#/volume] in Blood by Automated count"
            }
          ],
          "text": "Erythrocytes [#/volume] in Blood by Automated count"
        },
        "valueQuantity": {
          "system": "http://unitsofmeasure.org",
          "value": 4.6,
          "unit": "10*6/uL",
          "code": "10*6/uL"
        },
        "referenceRange": [
          {
            "low": {
              "value": 4.5,
              "code": "10*6/uL",
              "system": "http://unitsofmeasure.org"
            }
          },
          {
            "high": {
              "value": 5.5,
              "code": "10*6/uL",
              "system": "http://unitsofmeasure.org"
            }
          }
        ],
        "text": {
          "status": "generated",
          "div": "<div xmlns=\"http://www.w3.org/1999/xhtml\"><table class=\"hl7__eu__lab__report\"><tr><th>Test</th><th>21-Dec-2023</th><th>Reference&#xA0;Range</th><th>Unit</th></tr><tr><td>Erythrocytes [#/volume] in Blood by Automated count</td><td>4.6</td><td>4.5 - 5.5</td><td></td><td>10*6/uL</td></tr></table></div>"
        },
        "status": "final",
        "subject": {
          "reference": "urn:uuid:35fc6992-61a9-41ee-b278-def4f7a243dd",
          "display": "Alberto Manrique"
        },
        "effectiveDateTime": "2023-12-21T10:32:27Z",
        "specimen": {
          "reference": "urn:uuid:8b8477ce-ff0b-4c55-bc74-0ac7d69a0ff8"
        }
      }
    },
    {
      "fullUrl": "urn:uuid:22a49689-9152-46b2-8b22-e6cdda1879d9",
      "resource": {
        "resourceType": "Observation",
        "id": "22a49689-9152-46b2-8b22-e6cdda1879d9",
        "meta": {
          "profile": [
            "http://hl7.eu/fhir/laboratory/StructureDefinition/Observation-resultslab-eu-lab"
          ]
        },
        "performer": [
          {
            "display": "The Central European Lab"
          }
        ],
        "category": [
          {
            "coding": [
              {
                "system": "http://terminology.hl7.org/CodeSystem/observation-category",
                "code": "laboratory"
              }
            ]
          }
        ],
        "code": {
          "coding": [
            {
              "code": "718-7",
              "system": "http://loinc.org",
              "display": "Hemoglobin [Mass/volume] in Blood"
            }
          ],
          "text": "Hemoglobin [Mass/volume] in Blood"
        },
        "valueQuantity": {
          "system": "http://unitsofmeasure.org",
          "value": 14.1,
          "unit": "g/dL",
          "code": "g/dL"
        },
        "referenceRange": [
          {
            "low": {
              "value": 14,
              "code": "g/dL",
              "system": "http://unitsofmeasure.org"
            }
          },
          {
            "high": {
              "value": 18,
              "code": "g/dL",
              "system": "http://unitsofmeasure.org"
            }
          }
        ],
        "text": {
          "status": "generated",
          "div": "<div xmlns=\"http://www.w3.org/1999/xhtml\"><table class=\"hl7__eu__lab__report\"><tr><th>Test</th><th>21-Dec-2023</th><th>Reference&#xA0;Range</th><th>Unit</th></tr><tr><td>Hemoglobin [Mass/volume] in Blood</td><td>14.1</td><td>14 - 18</td><td></td><td>g/dL</td></tr></table></div>"
        },
        "status": "final",
        "subject": {
          "reference": "urn:uuid:35fc6992-61a9-41ee-b278-def4f7a243dd",
          "display": "Alberto Manrique"
        },
        "effectiveDateTime": "2023-12-21T10:32:27Z",
        "specimen": {
          "reference": "urn:uuid:8b8477ce-ff0b-4c55-bc74-0ac7d69a0ff8"
        }
      }
    },
    {
      "fullUrl": "urn:uuid:3b24e1da-bc19-4c56-a455-4adebadf6951",
      "resource": {
        "resourceType": "Observation",
        "id": "3b24e1da-bc19-4c56-a455-4adebadf6951",
        "meta": {
          "profile": [
            "http://hl7.eu/fhir/laboratory/StructureDefinition/Observation-resultslab-eu-lab"
          ]
        },
        "performer": [
          {
            "display": "The Central European Lab"
          }
        ],
        "category": [
          {
            "coding": [
              {
                "system": "http://terminology.hl7.org/CodeSystem/observation-category",
                "code": "laboratory"
              }
            ]
          }
        ],
        "code": {
          "coding": [
            {
              "code": "4544-3",
              "system": "http://loinc.org",
              "display": "Hematocrit [Volume Fraction] of Blood by Automated count"
            }
          ],
          "text": "Hematocrit [Volume Fraction] of Blood by Automated count"
        },
        "valueQuantity": {
          "system": "http://unitsofmeasure.org",
          "value": 37.1,
          "unit": "%",
          "code": "%"
        },
        "referenceRange": [
          {
            "low": {
              "value": 38,
              "code": "%",
              "system": "http://unitsofmeasure.org"
            }
          },
          {
            "high": {
              "value": 50,
              "code": "%",
              "system": "http://unitsofmeasure.org"
            }
          }
        ],
        "interpretation": [
          {
            "coding": [
              {
                "code": "L",
                "system": "http://terminology.hl7.org/CodeSystem/v3-ObservationInterpretation",
                "display": "Low"
              }
            ]
          }
        ],
        "text": {
          "status": "generated",
          "div": "<div xmlns=\"http://www.w3.org/1999/xhtml\"><table class=\"hl7__eu__lab__report\"><tr><th>Test</th><th>21-Dec-2023</th><th>Reference&#xA0;Range</th><th>Unit</th></tr><tr><td>Hematocrit [Volume Fraction] of Blood by Automated count</td><td>37.1</td><td>38 - 50</td><td>L</td><td>%</td></tr></table></div>"
        },
        "status": "final",
        "subject": {
          "reference": "urn:uuid:35fc6992-61a9-41ee-b278-def4f7a243dd",
          "display": "Alberto Manrique"
        },
        "effectiveDateTime": "2023-12-21T10:32:27Z",
        "specimen": {
          "reference": "urn:uuid:8b8477ce-ff0b-4c55-bc74-0ac7d69a0ff8"
        }
      }
    },
    {
      "fullUrl": "urn:uuid:94583af1-53c7-4857-a29e-22d2b41a4bee",
      "resource": {
        "resourceType": "Observation",
        "id": "94583af1-53c7-4857-a29e-22d2b41a4bee",
        "meta": {
          "profile": [
            "http://hl7.eu/fhir/laboratory/StructureDefinition/Observation-resultslab-eu-lab"
          ]
        },
        "performer": [
          {
            "display": "The Central European Lab"
          }
        ],
        "category": [
          {
            "coding": [
              {
                "system": "http://terminology.hl7.org/CodeSystem/observation-category",
                "code": "laboratory"
              }
            ]
          }
        ],
        "code": {
          "coding": [
            {
              "code": "787-2",
              "system": "http://loinc.org",
              "display": "MCV [Entitic volume] by Automated count"
            }
          ],
          "text": "MCV [Entitic volume] by Automated count"
        },
        "valueQuantity": {
          "system": "http://unitsofmeasure.org",
          "value": 82,
          "unit": "fL",
          "code": "fL"
        },
        "referenceRange": [
          {
            "low": {
              "value": 80,
              "code": "fL",
              "system": "http://unitsofmeasure.org"
            }
          },
          {
            "high": {
              "value": 98,
              "code": "fL",
              "system": "http://unitsofmeasure.org"
            }
          }
        ],
        "text": {
          "status": "generated",
          "div": "<div xmlns=\"http://www.w3.org/1999/xhtml\"><table class=\"hl7__eu__lab__report\"><tr><th>Test</th><th>21-Dec-2023</th><th>Reference&#xA0;Range</th><th>Unit</th></tr><tr><td>MCV [Entitic volume] by Automated count</td><td>82.0</td><td>80 - 98</td><td></td><td>fL</td></tr></table></div>"
        },
        "status": "final",
        "subject": {
          "reference": "urn:uuid:35fc6992-61a9-41ee-b278-def4f7a243dd",
          "display": "Alberto Manrique"
        },
        "effectiveDateTime": "2023-12-21T10:32:27Z",
        "specimen": {
          "reference": "urn:uuid:8b8477ce-ff0b-4c55-bc74-0ac7d69a0ff8"
        }
      }
    },
    {
      "fullUrl": "urn:uuid:12e7d398-352a-4ed7-8c8d-b5d00ff6a594",
      "resource": {
        "resourceType": "Observation",
        "id": "12e7d398-352a-4ed7-8c8d-b5d00ff6a594",
        "meta": {
          "profile": [
            "http://hl7.eu/fhir/laboratory/StructureDefinition/Observation-resultslab-eu-lab"
          ]
        },
        "performer": [
          {
            "display": "The Central European Lab"
          }
        ],
        "category": [
          {
            "coding": [
              {
                "system": "http://terminology.hl7.org/CodeSystem/observation-category",
                "code": "laboratory"
              }
            ]
          }
        ],
        "code": {
          "coding": [
            {
              "code": "785-6",
              "system": "http://loinc.org",
              "display": "MCH [Entitic mass] by Automated count"
            }
          ],
          "text": "MCH [Entitic mass] by Automated count"
        },
        "valueQuantity": {
          "system": "http://unitsofmeasure.org",
          "value": 28.4,
          "unit": "pg",
          "code": "pg"
        },
        "referenceRange": [
          {
            "low": {
              "value": 27,
              "code": "pg",
              "system": "http://unitsofmeasure.org"
            }
          },
          {
            "high": {
              "value": 34,
              "code": "pg",
              "system": "http://unitsofmeasure.org"
            }
          }
        ],
        "text": {
          "status": "generated",
          "div": "<div xmlns=\"http://www.w3.org/1999/xhtml\"><table class=\"hl7__eu__lab__report\"><tr><th>Test</th><th>21-Dec-2023</th><th>Reference&#xA0;Range</th><th>Unit</th></tr><tr><td>MCH [Entitic mass] by Automated count</td><td>28.4</td><td>27 - 34</td><td></td><td>pg</td></tr></table></div>"
        },
        "status": "final",
        "subject": {
          "reference": "urn:uuid:35fc6992-61a9-41ee-b278-def4f7a243dd",
          "display": "Alberto Manrique"
        },
        "effectiveDateTime": "2023-12-21T10:32:27Z",
        "specimen": {
          "reference": "urn:uuid:8b8477ce-ff0b-4c55-bc74-0ac7d69a0ff8"
        }
      }
    },
    {
      "fullUrl": "urn:uuid:8e73fefb-b38d-4284-8e6b-2f730ed96164",
      "resource": {
        "resourceType": "Observation",
        "id": "8e73fefb-b38d-4284-8e6b-2f730ed96164",
        "meta": {
          "profile": [
            "http://hl7.eu/fhir/laboratory/StructureDefinition/Observation-resultslab-eu-lab"
          ]
        },
        "performer": [
          {
            "display": "The Central European Lab"
          }
        ],
        "category": [
          {
            "coding": [
              {
                "system": "http://terminology.hl7.org/CodeSystem/observation-category",
                "code": "laboratory"
              }
            ]
          }
        ],
        "code": {
          "coding": [
            {
              "code": "786-4",
              "system": "http://loinc.org",
              "display": "MCHC [Mass/volume] by Automated count"
            }
          ],
          "text": "MCHC [Mass/volume] by Automated count"
        },
        "valueQuantity": {
          "system": "http://unitsofmeasure.org",
          "value": 34,
          "unit": "g/dL",
          "code": "g/dL"
        },
        "referenceRange": [
          {
            "low": {
              "value": 32,
              "code": "g/dL",
              "system": "http://unitsofmeasure.org"
            }
          },
          {
            "high": {
              "value": 36,
              "code": "g/dL",
              "system": "http://unitsofmeasure.org"
            }
          }
        ],
        "text": {
          "status": "generated",
          "div": "<div xmlns=\"http://www.w3.org/1999/xhtml\"><table class=\"hl7__eu__lab__report\"><tr><th>Test</th><th>21-Dec-2023</th><th>Reference&#xA0;Range</th><th>Unit</th></tr><tr><td>MCHC [Mass/volume] by Automated count</td><td>34.0</td><td>32 - 36</td><td></td><td>g/dL</td></tr></table></div>"
        },
        "status": "final",
        "subject": {
          "reference": "urn:uuid:35fc6992-61a9-41ee-b278-def4f7a243dd",
          "display": "Alberto Manrique"
        },
        "effectiveDateTime": "2023-12-21T10:32:27Z",
        "specimen": {
          "reference": "urn:uuid:8b8477ce-ff0b-4c55-bc74-0ac7d69a0ff8"
        }
      }
    },
    {
      "fullUrl": "urn:uuid:26076f46-eaf5-47db-916c-e615e62cf06e",
      "resource": {
        "resourceType": "Observation",
        "id": "26076f46-eaf5-47db-916c-e615e62cf06e",
        "meta": {
          "profile": [
            "http://hl7.eu/fhir/laboratory/StructureDefinition/Observation-resultslab-eu-lab"
          ]
        },
        "performer": [
          {
            "display": "The Central European Lab"
          }
        ],
        "category": [
          {
            "coding": [
              {
                "system": "http://terminology.hl7.org/CodeSystem/observation-category",
                "code": "laboratory"
              }
            ]
          }
        ],
        "code": {
          "coding": [
            {
              "code": "21000-5",
              "system": "http://loinc.org",
              "display": "Erythrocyte distribution width [Entitic volume] by Automated count"
            }
          ],
          "text": "Erythrocyte distribution width [Entitic volume] by Automated count"
        },
        "valueQuantity": {
          "system": "http://unitsofmeasure.org",
          "value": 39.7,
          "unit": "fL",
          "code": "fL"
        },
        "referenceRange": [
          {
            "low": {
              "value": 39,
              "code": "fL",
              "system": "http://unitsofmeasure.org"
            }
          },
          {
            "high": {
              "value": 55,
              "code": "fL",
              "system": "http://unitsofmeasure.org"
            }
          }
        ],
        "text": {
          "status": "generated",
          "div": "<div xmlns=\"http://www.w3.org/1999/xhtml\"><table class=\"hl7__eu__lab__report\"><tr><th>Test</th><th>21-Dec-2023</th><th>Reference&#xA0;Range</th><th>Unit</th></tr><tr><td>Erythrocyte distribution width [Entitic volume] by Automated count</td><td>39.7</td><td>39 - 55</td><td></td><td>fL</td></tr></table></div>"
        },
        "status": "final",
        "subject": {
          "reference": "urn:uuid:35fc6992-61a9-41ee-b278-def4f7a243dd",
          "display": "Alberto Manrique"
        },
        "effectiveDateTime": "2023-12-21T10:32:27Z",
        "specimen": {
          "reference": "urn:uuid:8b8477ce-ff0b-4c55-bc74-0ac7d69a0ff8"
        }
      }
    },
    {
      "fullUrl": "urn:uuid:ef0b7444-b353-469e-92e7-d89ef5b9ba3d",
      "resource": {
        "resourceType": "Observation",
        "id": "ef0b7444-b353-469e-92e7-d89ef5b9ba3d",
        "meta": {
          "profile": [
            "http://hl7.eu/fhir/laboratory/StructureDefinition/Observation-resultslab-eu-lab"
          ]
        },
        "performer": [
          {
            "display": "The Central European Lab"
          }
        ],
        "category": [
          {
            "coding": [
              {
                "system": "http://terminology.hl7.org/CodeSystem/observation-category",
                "code": "laboratory"
              }
            ]
          }
        ],
        "code": {
          "coding": [
            {
              "code": "777-3",
              "system": "http://loinc.org",
              "display": "Platelets [#/volume] in Blood by Automated count"
            }
          ],
          "text": "Platelets [#/volume] in Blood by Automated count"
        },
        "valueQuantity": {
          "system": "http://unitsofmeasure.org",
          "value": 231.5,
          "unit": "10*3/uL",
          "code": "10*3/uL"
        },
        "referenceRange": [
          {
            "low": {
              "value": 150,
              "code": "10*3/uL",
              "system": "http://unitsofmeasure.org"
            }
          },
          {
            "high": {
              "value": 400,
              "code": "10*3/uL",
              "system": "http://unitsofmeasure.org"
            }
          }
        ],
        "text": {
          "status": "generated",
          "div": "<div xmlns=\"http://www.w3.org/1999/xhtml\"><table class=\"hl7__eu__lab__report\"><tr><th>Test</th><th>21-Dec-2023</th><th>Reference&#xA0;Range</th><th>Unit</th></tr><tr><td>Platelets [#/volume] in Blood by Automated count</td><td>231.5</td><td>150 - 400</td><td></td><td>10*3/uL</td></tr></table></div>"
        },
        "status": "final",
        "subject": {
          "reference": "urn:uuid:35fc6992-61a9-41ee-b278-def4f7a243dd",
          "display": "Alberto Manrique"
        },
        "effectiveDateTime": "2023-12-21T10:32:27Z",
        "specimen": {
          "reference": "urn:uuid:8b8477ce-ff0b-4c55-bc74-0ac7d69a0ff8"
        }
      }
    },
    {
      "fullUrl": "urn:uuid:9b81b143-8baf-4f34-a84f-da724794dec7",
      "resource": {
        "resourceType": "Observation",
        "id": "9b81b143-8baf-4f34-a84f-da724794dec7",
        "meta": {
          "profile": [
            "http://hl7.eu/fhir/laboratory/StructureDefinition/Observation-resultslab-eu-lab"
          ]
        },
        "performer": [
          {
            "display": "The Central European Lab"
          }
        ],
        "category": [
          {
            "coding": [
              {
                "system": "http://terminology.hl7.org/CodeSystem/observation-category",
                "code": "laboratory"
              }
            ]
          }
        ],
        "code": {
          "coding": [
            {
              "code": "32207-3",
              "system": "http://loinc.org",
              "display": "Platelet distribution width [Entitic volume] in Blood by Automated count"
            }
          ],
          "text": "Platelet distribution width [Entitic volume] in Blood by Automated count"
        },
        "valueQuantity": {
          "system": "http://unitsofmeasure.org",
          "value": 236.3,
          "unit": "fL",
          "code": "fL"
        },
        "referenceRange": [
          {
            "low": {
              "value": 13.4,
              "code": "fL",
              "system": "http://unitsofmeasure.org"
            }
          },
          {
            "high": {
              "value": 17.4,
              "code": "fL",
              "system": "http://unitsofmeasure.org"
            }
          }
        ],
        "interpretation": [
          {
            "coding": [
              {
                "code": "H",
                "system": "http://terminology.hl7.org/CodeSystem/v3-ObservationInterpretation",
                "display": "High"
              }
            ]
          }
        ],
        "text": {
          "status": "generated",
          "div": "<div xmlns=\"http://www.w3.org/1999/xhtml\"><table class=\"hl7__eu__lab__report\"><tr><th>Test</th><th>21-Dec-2023</th><th>Reference&#xA0;Range</th><th>Unit</th></tr><tr><td>Platelet distribution width [Entitic volume] in Blood by Automated count</td><td>236.3</td><td>13.4 - 17.4</td><td>H</td><td>fL</td></tr></table></div>"
        },
        "status": "final",
        "subject": {
          "reference": "urn:uuid:35fc6992-61a9-41ee-b278-def4f7a243dd",
          "display": "Alberto Manrique"
        },
        "effectiveDateTime": "2023-12-21T10:32:27Z",
        "specimen": {
          "reference": "urn:uuid:8b8477ce-ff0b-4c55-bc74-0ac7d69a0ff8"
        }
      }
    },
    {
      "fullUrl": "urn:uuid:eb1306fb-e722-4185-9992-9691a1dde603",
      "resource": {
        "resourceType": "Observation",
        "id": "eb1306fb-e722-4185-9992-9691a1dde603",
        "meta": {
          "profile": [
            "http://hl7.eu/fhir/laboratory/StructureDefinition/Observation-resultslab-eu-lab"
          ]
        },
        "performer": [
          {
            "display": "The Central European Lab"
          }
        ],
        "category": [
          {
            "coding": [
              {
                "system": "http://terminology.hl7.org/CodeSystem/observation-category",
                "code": "laboratory"
              }
            ]
          }
        ],
        "code": {
          "coding": [
            {
              "code": "32623-1",
              "system": "http://loinc.org",
              "display": "Platelet mean volume [Entitic volume] in Blood by Automated count"
            }
          ],
          "text": "Platelet mean volume [Entitic volume] in Blood by Automated count"
        },
        "valueQuantity": {
          "system": "http://unitsofmeasure.org",
          "value": 12.3,
          "unit": "fL",
          "code": "fL"
        },
        "referenceRange": [
          {
            "low": {
              "value": 7.2,
              "code": "fL",
              "system": "http://unitsofmeasure.org"
            }
          },
          {
            "high": {
              "value": 13.8,
              "code": "fL",
              "system": "http://unitsofmeasure.org"
            }
          }
        ],
        "text": {
          "status": "generated",
          "div": "<div xmlns=\"http://www.w3.org/1999/xhtml\"><table class=\"hl7__eu__lab__report\"><tr><th>Test</th><th>21-Dec-2023</th><th>Reference&#xA0;Range</th><th>Unit</th></tr><tr><td>Platelet mean volume [Entitic volume] in Blood by Automated count</td><td>12.3</td><td>7.2 - 13.8</td><td></td><td>fL</td></tr></table></div>"
        },
        "status": "final",
        "subject": {
          "reference": "urn:uuid:35fc6992-61a9-41ee-b278-def4f7a243dd",
          "display": "Alberto Manrique"
        },
        "effectiveDateTime": "2023-12-21T10:32:27Z",
        "specimen": {
          "reference": "urn:uuid:8b8477ce-ff0b-4c55-bc74-0ac7d69a0ff8"
        }
      }
    },
    {
      "fullUrl": "urn:uuid:00795f9b-44ee-4d47-aef3-5fa24f763ca0",
      "resource": {
        "resourceType": "Device",
        "id": "00795f9b-44ee-4d47-aef3-5fa24f763ca0",
        "deviceName": [
          {
            "name": "SYNDERAI Synthetic Generator",
            "type": "manufacturer-name"
          }
        ],
        "version": [
          {
            "value": "5.0"
          }
        ],
        "text": {
          "status": "generated",
          "div": "<div xmlns=\"http://www.w3.org/1999/xhtml\">SYNDERAI Synthetic Generator v5.0</div>"
        },
        "status": "active\"",
        "distinctIdentifier": "synderai-generator-50",
        "manufacturer": "SYNDERAI Project"
      }
    },
    {
      "fullUrl": "urn:uuid:93bd9fde-d383-476e-81ab-3b2993990a9e",
      "resource": {
        "resourceType": "Provenance",
        "id": "93bd9fde-d383-476e-81ab-3b2993990a9e",
        "target": [
          {
            "reference": "Patient/35fc6992-61a9-41ee-b278-def4f7a243dd"
          },
          {
            "reference": "Bundle/fc3a4bc4-0c22-456b-b601-710d6ba026f6"
          },
          {
            "reference": "Composition/04f43af3-6020-4ff2-a12d-bbaa845a0da7"
          },
          {
            "reference": "PractitionerRole/2e9b6e87-64fd-4e92-891e-580dbdcb8a18"
          },
          {
            "reference": "Practitioner/99f84c92-5447-4cb0-8433-a781031f5cfe"
          },
          {
            "reference": "PractitionerRole/69d128a0-0357-4c40-b95d-69c9afdeeb65"
          },
          {
            "reference": "Organization/60981258-829a-4bf3-8fa2-ce37d4e36713"
          }
        ],
        "activity": {
          "text": "Synthetic Example Data Generation"
        },
        "policy": [
          "https://synderai.net/synderai-synthetic-data-policy"
        ],
        "agent": [
          {
            "type": {
              "text": "author"
            },
            "who": {
              "reference": "Device/00795f9b-44ee-4d47-aef3-5fa24f763ca0"
            }
          }
        ],
        "reason": [
          {
            "text": "Interoperability Testing and Training (non-clinical use)"
          }
        ],
        "text": {
          "status": "generated",
          "div": "<div xmlns=\"http://www.w3.org/1999/xhtml\">Provenance for SYNDERAI Synthetic Example Data Resource</div>"
        },
        "recorded": "2023-12-21T11:32:27Z"
      }
    },
    {
      "fullUrl": "urn:uuid:2e9b6e87-64fd-4e92-891e-580dbdcb8a18",
      "resource": {
        "resourceType": "PractitionerRole",
        "id": "2e9b6e87-64fd-4e92-891e-580dbdcb8a18",
        "meta": {
          "profile": [
            "http://hl7.eu/fhir/base/StructureDefinition/practitionerRole-eu"
          ]
        },
        "text": {
          "status": "generated",
          "div": "<div xmlns=\"http://www.w3.org/1999/xhtml\">Laboratory Role Id: 2e9b6e87-64fd-4e92-891e-580dbdcb8a18</div>"
        },
        "practitioner": {
          "reference": "urn:uuid:99f84c92-5447-4cb0-8433-a781031f5cfe"
        }
      }
    },
    {
      "fullUrl": "urn:uuid:99f84c92-5447-4cb0-8433-a781031f5cfe",
      "resource": {
        "resourceType": "Practitioner",
        "id": "99f84c92-5447-4cb0-8433-a781031f5cfe",
        "meta": {
          "profile": [
            "http://hl7.eu/fhir/base/StructureDefinition/practitioner-eu"
          ]
        },
        "identifier": [
          {
            "assigner": {
              "display": "HL7 Europe"
            },
            "system": "urn:oid:2.16.840.1.113883.2.51.999",
            "value": "eac84f7c-ccae-409f-a68e-7d2a5351c3d6"
          }
        ],
        "name": [
          {
            "prefix": [
              "dr"
            ],
            "given": [
              "Ex"
            ],
            "family": "Ample"
          }
        ],
        "address": [
          {
            "line": [
              "Laboratoire Central Européenne",
              "Boulevard du Jardin Botanique 32"
            ],
            "postalCode": "1000",
            "city": "Brussels",
            "country": "Belgium"
          }
        ],
        "text": {
          "status": "generated",
          "div": "<div xmlns=\"http://www.w3.org/1999/xhtml\">Laboratory: Laboratoire Central Européenne, 1000 Brussels, Belgium</div>"
        }
      }
    }
  ],
  "type": "document",
  "timestamp": "2023-12-21T11:32:27Z"
}
