{
  "resourceType": "Bundle",
  "id": "69336e73-ce58-4f11-bf63-b4420966bb0e",
  "meta": {
    "profile": [
      "http://hl7.eu/fhir/laboratory/StructureDefinition/Bundle-eu-lab"
    ]
  },
  "identifier": {
    "assigner": {
      "display": "HL7 Europe"
    },
    "system": "urn:oid:2.16.840.1.113883.2.51.999",
    "value": "846c1f7e-3643-4222-b805-8e0005321510"
  },
  "entry": [
    {
      "fullUrl": "urn:uuid:1d580e5b-3448-4678-867d-b41b2f56d801",
      "resource": {
        "resourceType": "Composition",
        "id": "1d580e5b-3448-4678-867d-b41b2f56d801",
        "meta": {
          "profile": [
            "http://hl7.eu/fhir/laboratory/StructureDefinition/Composition-eu-lab"
          ]
        },
        "identifier": {
          "assigner": {
            "display": "HL7 Europe"
          },
          "system": "urn:oid:2.16.840.1.113883.2.51.999",
          "value": "1c4ba764-af27-4451-ae63-ddc9f47fd027"
        },
        "author": [
          {
            "reference": "urn:uuid:f129c3e9-5a3d-4431-88e6-8574264c336f"
          }
        ],
        "category": [
          {
            "coding": [
              {
                "code": "26436-6",
                "system": "http://loinc.org",
                "display": "Laboratory studies (set)"
              }
            ]
          }
        ],
        "type": {
          "coding": [
            {
              "code": "11502-2",
              "system": "http://loinc.org",
              "display": "Laboratory report"
            }
          ],
          "text": "Laboratory Report"
        },
        "section": [
          {
            "code": {
              "coding": [
                {
                  "code": "26436-6",
                  "system": "http://loinc.org",
                  "display": "Laboratory studies (set)"
                }
              ],
              "text": "Laboratory studies"
            },
            "section": [
              {
                "code": {
                  "coding": [
                    {
                      "code": "$18725-2",
                      "system": "http://loinc.org",
                      "display": "Microbiology studies"
                    }
                  ],
                  "text": "Microbiology"
                },
                "entry": [
                  {
                    "reference": "urn:uuid:6682f6d9-b539-447d-acc4-4fbb9e2feb91"
                  }
                ],
                "text": {
                  "status": "generated",
                  "div": "<div xmlns=\"http://www.w3.org/1999/xhtml\"><h3>Microbiology</h3><table class=\"hl7__eu__lab__report\"><thead><tr><th>Test</th><th>11-NOV-2020</th><th>Reference&#xA0;Range</th><th>Unit</th></tr></thead><tbody><tr><td>Bacteria identified in Blood by Culture</td><td>Bacteria identified in Blood by Culture</td><td></td><td></td></tr></tbody></table></div>"
                },
                "title": "Microbiology"
              }
            ],
            "title": "Laboratory Report"
          },
          {
            "text": {
              "status": "generated",
              "div": "<div xmlns=\"http://www.w3.org/1999/xhtml\"><h3>Annotation</h3><table class=\"hl7__eu__lab__report\"><tr><th>Conclusion and Recommendations based on this report and previous findings known to us</th></tr><tr><td>No bacteria were identified in the blood culture, indicating no evidence of bloodstream infection at the time of testing. This is a favorable finding from an infectious disease perspective. Clinical correlation is recommended.</td></tr></table></div>"
            },
            "code": {
              "coding": [
                {
                  "system": "http://loinc.org",
                  "code": "48767-8",
                  "display": "Annotation comment"
                }
              ]
            },
            "title": "Annotation comment"
          }
        ],
        "status": "final",
        "subject": {
          "reference": "urn:uuid:aebfdfd1-ceb2-4ab0-a2d6-da563091438d",
          "display": "Lazăr Florea"
        },
        "date": "2020-11-11T07:55:24Z",
        "title": "Laboratory Report",
        "confidentiality": "N"
      }
    },
    {
      "fullUrl": "urn:uuid:6405147c-b589-4e2e-b741-1e2443f8b472",
      "resource": {
        "resourceType": "DiagnosticReport",
        "id": "6405147c-b589-4e2e-b741-1e2443f8b472",
        "meta": {
          "profile": [
            "http://hl7.eu/fhir/laboratory/StructureDefinition/DiagnosticReport-eu-lab"
          ]
        },
        "identifier": [
          {
            "assigner": {
              "display": "HL7 Europe"
            },
            "system": "urn:oid:2.16.840.1.113883.2.51.999",
            "value": "94b2f750-bd2c-4300-86ec-676d52b86a16"
          }
        ],
        "extension": [
          {
            "url": "http://hl7.org/fhir/5.0/StructureDefinition/extension-DiagnosticReport.composition",
            "valueReference": {
              "reference": "urn:uuid:1c4ba764-af27-4451-ae63-ddc9f47fd027"
            }
          }
        ],
        "category": [
          {
            "coding": [
              {
                "code": "26436-6",
                "system": "http://loinc.org",
                "display": "Laboratory studies (set)"
              }
            ]
          }
        ],
        "specimen": [
          {
            "reference": "urn:uuid:efc73fb2-6513-45c7-8316-2eb0b8a661cd"
          }
        ],
        "result": [
          {
            "reference": "urn:uuid:6682f6d9-b539-447d-acc4-4fbb9e2feb91"
          }
        ],
        "status": "registered",
        "code": {
          "coding": [
            {
              "code": "11502-2",
              "system": "http://loinc.org",
              "display": "Laboratory report"
            }
          ]
        },
        "subject": {
          "reference": "urn:uuid:aebfdfd1-ceb2-4ab0-a2d6-da563091438d",
          "display": "Lazăr Florea"
        }
      }
    },
    {
      "fullUrl": "urn:uuid:aebfdfd1-ceb2-4ab0-a2d6-da563091438d",
      "resource": {
        "resourceType": "Patient",
        "id": "aebfdfd1-ceb2-4ab0-a2d6-da563091438d",
        "meta": {
          "security": [
            {
              "system": "http://terminology.hl7.org/CodeSystem/v3-ActReason",
              "code": "HTEST"
            },
            {
              "system": "http://terminology.hl7.org/CodeSystem/v3-ActReason",
              "code": "TRAIN"
            }
          ],
          "tag": [
            {
              "system": "https://synderai.net/fhir/CodeSystem/tags",
              "code": "synthetic",
              "display": "SYNDERAI Synthetic data"
            }
          ],
          "profile": [
            "http://hl7.eu/fhir/base/StructureDefinition/patient-eu-core"
          ]
        },
        "identifier": [
          {
            "type": {
              "coding": [
                {
                  "code": "PT",
                  "system": "http://terminology.hl7.org/CodeSystem/v2-0203"
                }
              ]
            },
            "system": "http://ec.europa.eu/identifier/eci",
            "value": "8693-862290-8"
          },
          {
            "type": {
              "coding": [
                {
                  "code": "MR",
                  "system": "http://terminology.hl7.org/CodeSystem/v2-0203"
                }
              ]
            },
            "system": "http://local.setting.eu/identifier",
            "value": "602fbbf5-967b-6d86-a533-5cec24b13e71"
          }
        ],
        "name": [
          {
            "family": "Florea"
          },
          {
            "given": [
              "Lazăr"
            ]
          },
          {
            "text": "Lazăr Florea"
          }
        ],
        "address": [
          {
            "line": [
              "Drumul Grațian Nistor"
            ],
            "use": "home",
            "type": "physical",
            "postalCode": "265300",
            "city": "Lupeni",
            "country": "Romania"
          }
        ],
        "telecom": [
          {
            "system": "phone",
            "value": "0753 950 380"
          }
        ],
        "extension": [
          {
            "url": "http://hl7.org/fhir/StructureDefinition/patient-nationality",
            "valueCodeableConcept": {
              "coding": [
                {
                  "code": "RO",
                  "system": "http://hl7.org/fhir/ValueSet/country"
                }
              ]
            }
          }
        ],
        "text": {
          "status": "generated",
          "div": "<div xmlns=\"http://www.w3.org/1999/xhtml\"><table class=\"hl7__ips\"><tr><td>Lazăr Florea</td><td>male</td><td>10-Feb-1946</td></tr></table></div>"
        },
        "gender": "male",
        "birthDate": "1946-02-10"
      }
    },
    {
      "fullUrl": "urn:uuid:9107001e-6693-4063-ab61-3ee821c8a4ce",
      "resource": {
        "resourceType": "ServiceRequest",
        "id": "9107001e-6693-4063-ab61-3ee821c8a4ce",
        "meta": {
          "profile": [
            "http://hl7.eu/fhir/laboratory/StructureDefinition/ServiceRequest-eu-lab"
          ]
        },
        "identifier": [
          {
            "system": "http://example.org",
            "value": "b20ce308-224c-4d0a-9e3d-5a778b698732"
          }
        ],
        "specimen": [
          {
            "reference": "urn:uuid:efc73fb2-6513-45c7-8316-2eb0b8a661cd"
          }
        ],
        "reasonCode": [
          {
            "coding": [
              {
                "code": "197927001",
                "system": "http://snomed.info/sct",
                "display": "Recurrent urinary tract infection"
              }
            ]
          },
          {
            "coding": [
              {
                "code": "414545008",
                "system": "http://snomed.info/sct",
                "display": "Ischemic heart disease"
              }
            ]
          },
          {
            "coding": [
              {
                "code": "237602007",
                "system": "http://snomed.info/sct",
                "display": "Metabolic syndrome X"
              }
            ]
          },
          {
            "coding": [
              {
                "code": "271737000",
                "system": "http://snomed.info/sct",
                "display": "Anemia"
              }
            ]
          },
          {
            "coding": [
              {
                "code": "15777000",
                "system": "http://snomed.info/sct",
                "display": "Prediabetes"
              }
            ]
          },
          {
            "coding": [
              {
                "code": "59621000",
                "system": "http://snomed.info/sct",
                "display": "Essential hypertension"
              }
            ]
          },
          {
            "coding": [
              {
                "code": "40055000",
                "system": "http://snomed.info/sct",
                "display": "Chronic sinusitis"
              }
            ]
          }
        ],
        "status": "active",
        "intent": "order",
        "code": {
          "coding": [
            {
              "code": "108252007",
              "system": "http://snomed.info/sct",
              "display": "Laboratory procedure"
            }
          ]
        },
        "subject": {
          "reference": "urn:uuid:aebfdfd1-ceb2-4ab0-a2d6-da563091438d",
          "display": "Lazăr Florea"
        },
        "requester": {
          "reference": "urn:uuid:3d0ac11d-ca16-46b3-bcd0-1cd18d6d3053"
        }
      }
    },
    {
      "fullUrl": "urn:uuid:3d0ac11d-ca16-46b3-bcd0-1cd18d6d3053",
      "resource": {
        "resourceType": "PractitionerRole",
        "id": "3d0ac11d-ca16-46b3-bcd0-1cd18d6d3053",
        "meta": {
          "profile": [
            "http://hl7.eu/fhir/base/StructureDefinition/practitionerRole-eu"
          ]
        },
        "text": {
          "status": "generated",
          "div": "<div xmlns=\"http://www.w3.org/1999/xhtml\">Provider Role Id: 3d0ac11d-ca16-46b3-bcd0-1cd18d6d3053</div>"
        },
        "organization": {
          "reference": "urn:uuid:f7138cf7-0a91-42dd-8d22-b6be0f739a2d"
        }
      }
    },
    {
      "fullUrl": "urn:uuid:f7138cf7-0a91-42dd-8d22-b6be0f739a2d",
      "resource": {
        "resourceType": "Organization",
        "id": "f7138cf7-0a91-42dd-8d22-b6be0f739a2d",
        "meta": {
          "profile": [
            "http://hl7.eu/fhir/base/StructureDefinition/organization-eu"
          ]
        },
        "identifier": [
          {
            "assigner": {
              "display": "HL7 Europe"
            },
            "system": "urn:oid:2.16.840.1.113883.2.51.999",
            "value": "a9b1121c-2a2b-4591-a599-108f869162b2"
          }
        ],
        "address": [
          {
            "line": [
              "Strada 1 Decembrie 1918 137 A"
            ],
            "city": "Petroșani",
            "postalCode": "332019",
            "country": "Romania"
          }
        ],
        "text": {
          "status": "generated",
          "div": "<div xmlns=\"http://www.w3.org/1999/xhtml\">Provider Organization: Spitalul de Urgență</div>"
        },
        "name": "Spitalul de Urgență"
      }
    },
    {
      "fullUrl": "urn:uuid:efc73fb2-6513-45c7-8316-2eb0b8a661cd",
      "resource": {
        "resourceType": "Specimen",
        "id": "efc73fb2-6513-45c7-8316-2eb0b8a661cd",
        "meta": {
          "profile": [
            "http://hl7.eu/fhir/laboratory/StructureDefinition/Specimen-eu-lab"
          ]
        },
        "collection": {
          "collectedDateTime": "2020-11-11"
        },
        "text": {
          "status": "generated",
          "div": "<div xmlns=\"http://www.w3.org/1999/xhtml\"><table class=\"hl7__eu__lab__report\"><tr><th>Specimen</th><th>Collection Date</th></tr><tr><td>Whole blood specimen (specimen)</td><td><span class=\"nb\">11-Nov-2020</span></td></tr></table></div>"
        },
        "type": {
          "coding": [
            {
              "code": "258580003",
              "system": "http://snomed.info/sct",
              "display": "Whole blood specimen (specimen)"
            }
          ]
        }
      }
    },
    {
      "fullUrl": "urn:uuid:6682f6d9-b539-447d-acc4-4fbb9e2feb91",
      "resource": {
        "resourceType": "Observation",
        "id": "6682f6d9-b539-447d-acc4-4fbb9e2feb91",
        "meta": {
          "profile": [
            "http://hl7.eu/fhir/laboratory/StructureDefinition/Observation-resultslab-eu-lab"
          ]
        },
        "performer": [
          {
            "display": "The Central European Lab"
          }
        ],
        "category": [
          {
            "coding": [
              {
                "system": "http://terminology.hl7.org/CodeSystem/observation-category",
                "code": "laboratory"
              }
            ]
          }
        ],
        "code": {
          "coding": [
            {
              "code": "600-7",
              "system": "http://loinc.org",
              "display": "Bacteria identified in Blood by Culture"
            }
          ],
          "text": "Bacteria identified in Blood by Culture"
        },
        "text": {
          "status": "generated",
          "div": "<div xmlns=\"http://www.w3.org/1999/xhtml\"><table class=\"hl7__eu__lab__report\"><tr><th>Test</th><th>11-Nov-2020</th><th>Reference&#xA0;Range</th><th>Unit</th></tr><tr><td>Bacteria identified in Blood by Culture</td></tr></table></div>"
        },
        "status": "final",
        "subject": {
          "reference": "urn:uuid:aebfdfd1-ceb2-4ab0-a2d6-da563091438d",
          "display": "Lazăr Florea"
        },
        "effectiveDateTime": "2020-11-11T06:55:24Z",
        "specimen": {
          "reference": "urn:uuid:efc73fb2-6513-45c7-8316-2eb0b8a661cd"
        }
      }
    },
    {
      "fullUrl": "urn:uuid:72d5d878-3ba3-4145-8f98-a1c0d160dc84",
      "resource": {
        "resourceType": "Device",
        "id": "72d5d878-3ba3-4145-8f98-a1c0d160dc84",
        "deviceName": [
          {
            "name": "SYNDERAI Synthetic Generator",
            "type": "manufacturer-name"
          }
        ],
        "version": [
          {
            "value": "5.0"
          }
        ],
        "text": {
          "status": "generated",
          "div": "<div xmlns=\"http://www.w3.org/1999/xhtml\">SYNDERAI Synthetic Generator v5.0</div>"
        },
        "status": "active\"",
        "distinctIdentifier": "synderai-generator-50",
        "manufacturer": "SYNDERAI Project"
      }
    },
    {
      "fullUrl": "urn:uuid:01c9e1d0-c589-4d87-b585-b43477ad00d6",
      "resource": {
        "resourceType": "Provenance",
        "id": "01c9e1d0-c589-4d87-b585-b43477ad00d6",
        "target": [
          {
            "reference": "Patient/aebfdfd1-ceb2-4ab0-a2d6-da563091438d"
          },
          {
            "reference": "Bundle/69336e73-ce58-4f11-bf63-b4420966bb0e"
          },
          {
            "reference": "Composition/1d580e5b-3448-4678-867d-b41b2f56d801"
          },
          {
            "reference": "PractitionerRole/f129c3e9-5a3d-4431-88e6-8574264c336f"
          },
          {
            "reference": "Practitioner/ed6d2d36-28d9-4947-8eb7-c6951772366f"
          },
          {
            "reference": "PractitionerRole/3d0ac11d-ca16-46b3-bcd0-1cd18d6d3053"
          },
          {
            "reference": "Organization/f7138cf7-0a91-42dd-8d22-b6be0f739a2d"
          }
        ],
        "activity": {
          "text": "Synthetic Example Data Generation"
        },
        "policy": [
          "https://synderai.net/synderai-synthetic-data-policy"
        ],
        "agent": [
          {
            "type": {
              "text": "author"
            },
            "who": {
              "reference": "Device/72d5d878-3ba3-4145-8f98-a1c0d160dc84"
            }
          }
        ],
        "reason": [
          {
            "text": "Interoperability Testing and Training (non-clinical use)"
          }
        ],
        "text": {
          "status": "generated",
          "div": "<div xmlns=\"http://www.w3.org/1999/xhtml\">Provenance for SYNDERAI Synthetic Example Data Resource</div>"
        },
        "recorded": "2020-11-11T07:55:24Z"
      }
    },
    {
      "fullUrl": "urn:uuid:f129c3e9-5a3d-4431-88e6-8574264c336f",
      "resource": {
        "resourceType": "PractitionerRole",
        "id": "f129c3e9-5a3d-4431-88e6-8574264c336f",
        "meta": {
          "profile": [
            "http://hl7.eu/fhir/base/StructureDefinition/practitionerRole-eu"
          ]
        },
        "text": {
          "status": "generated",
          "div": "<div xmlns=\"http://www.w3.org/1999/xhtml\">Laboratory Role Id: f129c3e9-5a3d-4431-88e6-8574264c336f</div>"
        },
        "practitioner": {
          "reference": "urn:uuid:ed6d2d36-28d9-4947-8eb7-c6951772366f"
        }
      }
    },
    {
      "fullUrl": "urn:uuid:ed6d2d36-28d9-4947-8eb7-c6951772366f",
      "resource": {
        "resourceType": "Practitioner",
        "id": "ed6d2d36-28d9-4947-8eb7-c6951772366f",
        "meta": {
          "profile": [
            "http://hl7.eu/fhir/base/StructureDefinition/practitioner-eu"
          ]
        },
        "identifier": [
          {
            "assigner": {
              "display": "HL7 Europe"
            },
            "system": "urn:oid:2.16.840.1.113883.2.51.999",
            "value": "0f02312d-abde-4cda-9b17-9a5b41ac4b63"
          }
        ],
        "name": [
          {
            "prefix": [
              "dr"
            ],
            "given": [
              "Ex"
            ],
            "family": "Ample"
          }
        ],
        "address": [
          {
            "line": [
              "Laboratoire Central Européenne",
              "Boulevard du Jardin Botanique 32"
            ],
            "postalCode": "1000",
            "city": "Brussels",
            "country": "Belgium"
          }
        ],
        "text": {
          "status": "generated",
          "div": "<div xmlns=\"http://www.w3.org/1999/xhtml\">Laboratory: Laboratoire Central Européenne, 1000 Brussels, Belgium</div>"
        }
      }
    }
  ],
  "type": "document",
  "timestamp": "2020-11-11T07:55:24Z"
}
