{
  "resourceType": "Bundle",
  "id": "723b20bb-ee95-4d17-bd19-ac02cb8f6bfe",
  "meta": {
    "profile": [
      "http://hl7.eu/fhir/laboratory/StructureDefinition/Bundle-eu-lab"
    ]
  },
  "identifier": {
    "assigner": {
      "display": "HL7 Europe"
    },
    "system": "urn:oid:2.16.840.1.113883.2.51.999",
    "value": "34f63490-0280-4ec7-ab6e-8927c47ea9a4"
  },
  "entry": [
    {
      "fullUrl": "urn:uuid:5fb13cda-5b7e-4114-9f76-29d001b099d0",
      "resource": {
        "resourceType": "Composition",
        "id": "5fb13cda-5b7e-4114-9f76-29d001b099d0",
        "meta": {
          "profile": [
            "http://hl7.eu/fhir/laboratory/StructureDefinition/Composition-eu-lab"
          ]
        },
        "identifier": {
          "assigner": {
            "display": "HL7 Europe"
          },
          "system": "urn:oid:2.16.840.1.113883.2.51.999",
          "value": "215a5a4f-94e6-4105-8a56-6c67d494d5ca"
        },
        "author": [
          {
            "reference": "urn:uuid:3c1fc962-123b-463c-9295-3c63c4136564"
          }
        ],
        "category": [
          {
            "coding": [
              {
                "code": "26436-6",
                "system": "http://loinc.org",
                "display": "Laboratory studies (set)"
              }
            ]
          }
        ],
        "type": {
          "coding": [
            {
              "code": "11502-2",
              "system": "http://loinc.org",
              "display": "Laboratory report"
            }
          ],
          "text": "Laboratory Report"
        },
        "section": [
          {
            "code": {
              "coding": [
                {
                  "code": "26436-6",
                  "system": "http://loinc.org",
                  "display": "Laboratory studies (set)"
                }
              ],
              "text": "Laboratory studies"
            },
            "section": [
              {
                "code": {
                  "coding": [
                    {
                      "code": "$18719-5",
                      "system": "http://loinc.org",
                      "display": "Chemistry studies (set)"
                    }
                  ],
                  "text": "Chemistry"
                },
                "entry": [
                  {
                    "reference": "urn:uuid:2e95fd89-6ee4-47ea-bc82-2a5b7d07bb9a"
                  },
                  {
                    "reference": "urn:uuid:9db78252-40b9-48f2-9507-8dab3e23d1e3"
                  },
                  {
                    "reference": "urn:uuid:ec62e688-90bd-41fb-a04c-a3a7364c53d8"
                  },
                  {
                    "reference": "urn:uuid:d6088099-ab3f-42c1-ad29-833c7724b941"
                  },
                  {
                    "reference": "urn:uuid:0cd87b52-50c9-4988-8c6e-629f2ef67b79"
                  },
                  {
                    "reference": "urn:uuid:d32d6d3d-9200-4ec9-b584-fdf5e3e9f316"
                  },
                  {
                    "reference": "urn:uuid:b11e5efb-0257-49fb-a195-f3eb81515c61"
                  },
                  {
                    "reference": "urn:uuid:2f3cb9e1-8a69-494a-9562-541594ba714b"
                  },
                  {
                    "reference": "urn:uuid:eec68b91-d885-42f2-8013-adc47c803f6c"
                  }
                ],
                "text": {
                  "status": "generated",
                  "div": "<div xmlns=\"http://www.w3.org/1999/xhtml\"><h3>Chemistry</h3><table class=\"hl7__eu__lab__report\"><thead><tr><th>Test</th><th>15-DEC-2020</th><th>Reference&#xA0;Range</th><th>Unit</th></tr></thead><tbody><tr><td>Hemoglobin A1c/Hemoglobin.total in Blood</td><td><strong>6.1 H</strong></td><td>4.8 - 5.7</td><td>%</td></tr><tr><td>Glucose [Mass/volume] in Blood</td><td>72.8</td><td>70 - 99</td><td>mg/dL</td></tr><tr><td>Urea nitrogen [Mass/volume] in Blood</td><td>8.5</td><td>7 - 20</td><td>mg/dL</td></tr><tr><td>Creatinine [Mass/volume] in Blood</td><td>0.8</td><td>0.6 - 1.1</td><td>mg/dL</td></tr><tr><td>Calcium [Mass/volume] in Blood</td><td>8.9</td><td>8.5 - 10.5</td><td>mg/dL</td></tr><tr><td>Sodium [Moles/volume] in Blood</td><td>140.2</td><td>135 - 145</td><td>mmol/L</td></tr><tr><td>Potassium [Moles/volume] in Blood</td><td>4.4</td><td>3.5 - 5.3</td><td>mmol/L</td></tr><tr><td>Chloride [Moles/volume] in Blood</td><td>105.0</td><td>98 - 114</td><td>mmol/L</td></tr><tr><td>Carbon dioxide, total [Moles/volume] in Blood</td><td>24.7</td><td>22 - 29</td><td>mmol/L</td></tr></tbody></table></div>"
                },
                "title": "Chemistry"
              }
            ],
            "title": "Laboratory Report"
          },
          {
            "text": {
              "status": "generated",
              "div": "<div xmlns=\"http://www.w3.org/1999/xhtml\"><h3>Annotation</h3><table class=\"hl7__eu__lab__report\"><tr><th>Conclusion and Recommendations based on this report and previous findings known to us</th></tr><tr><td>All parameters are within normal limits except for a mildly elevated HbA1c (6.1%), indicating impaired glucose metabolism or possible prediabetes. Renal function and electrolytes are normal. Recommend clinical correlation for diabetes risk and consideration of lifestyle modification or further evaluation as appropriate.</td></tr></table></div>"
            },
            "code": {
              "coding": [
                {
                  "system": "http://loinc.org",
                  "code": "48767-8",
                  "display": "Annotation comment"
                }
              ]
            },
            "title": "Annotation comment"
          }
        ],
        "status": "final",
        "subject": {
          "reference": "urn:uuid:cf08fb1b-9702-4b1f-a1fb-80f5014189cc",
          "display": "Aniela Sacharczuk"
        },
        "date": "2020-12-15T06:26:59Z",
        "title": "Laboratory Report",
        "confidentiality": "N"
      }
    },
    {
      "fullUrl": "urn:uuid:a0357757-564b-47e3-8e5e-dc0327554e88",
      "resource": {
        "resourceType": "DiagnosticReport",
        "id": "a0357757-564b-47e3-8e5e-dc0327554e88",
        "meta": {
          "profile": [
            "http://hl7.eu/fhir/laboratory/StructureDefinition/DiagnosticReport-eu-lab"
          ]
        },
        "identifier": [
          {
            "assigner": {
              "display": "HL7 Europe"
            },
            "system": "urn:oid:2.16.840.1.113883.2.51.999",
            "value": "56a69e44-5c14-43a3-9911-1bfeedc0bb37"
          }
        ],
        "extension": [
          {
            "url": "http://hl7.org/fhir/5.0/StructureDefinition/extension-DiagnosticReport.composition",
            "valueReference": {
              "reference": "urn:uuid:215a5a4f-94e6-4105-8a56-6c67d494d5ca"
            }
          }
        ],
        "category": [
          {
            "coding": [
              {
                "code": "26436-6",
                "system": "http://loinc.org",
                "display": "Laboratory studies (set)"
              }
            ]
          }
        ],
        "specimen": [
          {
            "reference": "urn:uuid:1b3993ce-4414-4205-98f9-19a78616b570"
          }
        ],
        "result": [
          {
            "reference": "urn:uuid:2e95fd89-6ee4-47ea-bc82-2a5b7d07bb9a"
          },
          {
            "reference": "urn:uuid:9db78252-40b9-48f2-9507-8dab3e23d1e3"
          },
          {
            "reference": "urn:uuid:ec62e688-90bd-41fb-a04c-a3a7364c53d8"
          },
          {
            "reference": "urn:uuid:d6088099-ab3f-42c1-ad29-833c7724b941"
          },
          {
            "reference": "urn:uuid:0cd87b52-50c9-4988-8c6e-629f2ef67b79"
          },
          {
            "reference": "urn:uuid:d32d6d3d-9200-4ec9-b584-fdf5e3e9f316"
          },
          {
            "reference": "urn:uuid:b11e5efb-0257-49fb-a195-f3eb81515c61"
          },
          {
            "reference": "urn:uuid:2f3cb9e1-8a69-494a-9562-541594ba714b"
          },
          {
            "reference": "urn:uuid:eec68b91-d885-42f2-8013-adc47c803f6c"
          }
        ],
        "status": "registered",
        "code": {
          "coding": [
            {
              "code": "11502-2",
              "system": "http://loinc.org",
              "display": "Laboratory report"
            }
          ]
        },
        "subject": {
          "reference": "urn:uuid:cf08fb1b-9702-4b1f-a1fb-80f5014189cc",
          "display": "Aniela Sacharczuk"
        }
      }
    },
    {
      "fullUrl": "urn:uuid:cf08fb1b-9702-4b1f-a1fb-80f5014189cc",
      "resource": {
        "resourceType": "Patient",
        "id": "cf08fb1b-9702-4b1f-a1fb-80f5014189cc",
        "meta": {
          "security": [
            {
              "system": "http://terminology.hl7.org/CodeSystem/v3-ActReason",
              "code": "HTEST"
            },
            {
              "system": "http://terminology.hl7.org/CodeSystem/v3-ActReason",
              "code": "TRAIN"
            }
          ],
          "tag": [
            {
              "system": "https://synderai.net/fhir/CodeSystem/tags",
              "code": "synthetic",
              "display": "SYNDERAI Synthetic data"
            }
          ],
          "profile": [
            "http://hl7.eu/fhir/base/StructureDefinition/patient-eu-core"
          ]
        },
        "identifier": [
          {
            "type": {
              "coding": [
                {
                  "code": "PT",
                  "system": "http://terminology.hl7.org/CodeSystem/v2-0203"
                }
              ]
            },
            "system": "http://ec.europa.eu/identifier/eci",
            "value": "3843-787162-7"
          },
          {
            "type": {
              "coding": [
                {
                  "code": "MR",
                  "system": "http://terminology.hl7.org/CodeSystem/v2-0203"
                }
              ]
            },
            "system": "http://local.setting.eu/identifier",
            "value": "cd2e7aac-e2c0-8306-b862-9ed4c443c8b5"
          }
        ],
        "name": [
          {
            "family": "Sacharczuk"
          },
          {
            "given": [
              "Aniela"
            ]
          },
          {
            "text": "Aniela Sacharczuk"
          }
        ],
        "address": [
          {
            "line": [
              "plac Szpitalna 13"
            ],
            "use": "home",
            "type": "physical",
            "postalCode": "27-600",
            "city": "Sandomierz",
            "country": "Poland"
          }
        ],
        "telecom": [
          {
            "system": "phone",
            "value": "+48 536 227 035"
          }
        ],
        "extension": [
          {
            "url": "http://hl7.org/fhir/StructureDefinition/patient-nationality",
            "valueCodeableConcept": {
              "coding": [
                {
                  "code": "PL",
                  "system": "http://hl7.org/fhir/ValueSet/country"
                }
              ]
            }
          }
        ],
        "text": {
          "status": "generated",
          "div": "<div xmlns=\"http://www.w3.org/1999/xhtml\"><table class=\"hl7__ips\"><tr><td>Aniela Sacharczuk</td><td>female</td><td>02-Nov-1970</td></tr></table></div>"
        },
        "gender": "female",
        "birthDate": "1970-11-02"
      }
    },
    {
      "fullUrl": "urn:uuid:c64b92e1-a303-4f34-820c-612efd937772",
      "resource": {
        "resourceType": "ServiceRequest",
        "id": "c64b92e1-a303-4f34-820c-612efd937772",
        "meta": {
          "profile": [
            "http://hl7.eu/fhir/laboratory/StructureDefinition/ServiceRequest-eu-lab"
          ]
        },
        "identifier": [
          {
            "system": "http://example.org",
            "value": "5cd5d6fc-6d7c-4e78-a3df-79067183347c"
          }
        ],
        "specimen": [
          {
            "reference": "urn:uuid:1b3993ce-4414-4205-98f9-19a78616b570"
          }
        ],
        "reasonCode": [
          {
            "coding": [
              {
                "code": "237602007",
                "system": "http://snomed.info/sct",
                "display": "Metabolic syndrome X"
              }
            ]
          },
          {
            "coding": [
              {
                "code": "15777000",
                "system": "http://snomed.info/sct",
                "display": "Prediabetes"
              }
            ]
          },
          {
            "coding": [
              {
                "code": "59621000",
                "system": "http://snomed.info/sct",
                "display": "Essential hypertension"
              }
            ]
          }
        ],
        "status": "active",
        "intent": "order",
        "code": {
          "coding": [
            {
              "code": "108252007",
              "system": "http://snomed.info/sct",
              "display": "Laboratory procedure"
            }
          ]
        },
        "subject": {
          "reference": "urn:uuid:cf08fb1b-9702-4b1f-a1fb-80f5014189cc",
          "display": "Aniela Sacharczuk"
        },
        "requester": {
          "reference": "urn:uuid:2993c258-94be-4faf-a931-fc75c3cc1bc5"
        }
      }
    },
    {
      "fullUrl": "urn:uuid:2993c258-94be-4faf-a931-fc75c3cc1bc5",
      "resource": {
        "resourceType": "PractitionerRole",
        "id": "2993c258-94be-4faf-a931-fc75c3cc1bc5",
        "meta": {
          "profile": [
            "http://hl7.eu/fhir/base/StructureDefinition/practitionerRole-eu"
          ]
        },
        "text": {
          "status": "generated",
          "div": "<div xmlns=\"http://www.w3.org/1999/xhtml\">Provider Role Id: 2993c258-94be-4faf-a931-fc75c3cc1bc5</div>"
        },
        "organization": {
          "reference": "urn:uuid:0235ee63-30bc-42e2-8b94-04ebcd9f0fcc"
        }
      }
    },
    {
      "fullUrl": "urn:uuid:0235ee63-30bc-42e2-8b94-04ebcd9f0fcc",
      "resource": {
        "resourceType": "Organization",
        "id": "0235ee63-30bc-42e2-8b94-04ebcd9f0fcc",
        "meta": {
          "profile": [
            "http://hl7.eu/fhir/base/StructureDefinition/organization-eu"
          ]
        },
        "identifier": [
          {
            "assigner": {
              "display": "HL7 Europe"
            },
            "system": "urn:oid:2.16.840.1.113883.2.51.999",
            "value": "7c75a9e2-8596-4573-b98b-5ea1940b15ba"
          }
        ],
        "address": [
          {
            "line": [
              "Józefa Piłsudskiego 17"
            ],
            "city": "Gorzyce",
            "postalCode": "39-432",
            "country": "Poland"
          }
        ],
        "text": {
          "status": "generated",
          "div": "<div xmlns=\"http://www.w3.org/1999/xhtml\">Provider Organization: Ośrodek Zdrowia</div>"
        },
        "name": "Ośrodek Zdrowia"
      }
    },
    {
      "fullUrl": "urn:uuid:1b3993ce-4414-4205-98f9-19a78616b570",
      "resource": {
        "resourceType": "Specimen",
        "id": "1b3993ce-4414-4205-98f9-19a78616b570",
        "meta": {
          "profile": [
            "http://hl7.eu/fhir/laboratory/StructureDefinition/Specimen-eu-lab"
          ]
        },
        "collection": {
          "collectedDateTime": "2020-12-15"
        },
        "text": {
          "status": "generated",
          "div": "<div xmlns=\"http://www.w3.org/1999/xhtml\"><table class=\"hl7__eu__lab__report\"><tr><th>Specimen</th><th>Collection Date</th></tr><tr><td>Whole blood specimen (specimen)</td><td><span class=\"nb\">15-Dec-2020</span></td></tr></table></div>"
        },
        "type": {
          "coding": [
            {
              "code": "258580003",
              "system": "http://snomed.info/sct",
              "display": "Whole blood specimen (specimen)"
            }
          ]
        }
      }
    },
    {
      "fullUrl": "urn:uuid:2e95fd89-6ee4-47ea-bc82-2a5b7d07bb9a",
      "resource": {
        "resourceType": "Observation",
        "id": "2e95fd89-6ee4-47ea-bc82-2a5b7d07bb9a",
        "meta": {
          "profile": [
            "http://hl7.eu/fhir/laboratory/StructureDefinition/Observation-resultslab-eu-lab"
          ]
        },
        "performer": [
          {
            "display": "The Central European Lab"
          }
        ],
        "category": [
          {
            "coding": [
              {
                "system": "http://terminology.hl7.org/CodeSystem/observation-category",
                "code": "laboratory"
              }
            ]
          }
        ],
        "code": {
          "coding": [
            {
              "code": "4548-4",
              "system": "http://loinc.org",
              "display": "Hemoglobin A1c/Hemoglobin.total in Blood"
            }
          ],
          "text": "Hemoglobin A1c/Hemoglobin.total in Blood"
        },
        "valueQuantity": {
          "system": "http://unitsofmeasure.org",
          "value": 6.1,
          "unit": "%",
          "code": "%"
        },
        "referenceRange": [
          {
            "low": {
              "value": 4.8,
              "code": "%",
              "system": "http://unitsofmeasure.org"
            }
          },
          {
            "high": {
              "value": 5.7,
              "code": "%",
              "system": "http://unitsofmeasure.org"
            }
          }
        ],
        "interpretation": [
          {
            "coding": [
              {
                "code": "H",
                "system": "http://terminology.hl7.org/CodeSystem/v3-ObservationInterpretation",
                "display": "High"
              }
            ]
          }
        ],
        "text": {
          "status": "generated",
          "div": "<div xmlns=\"http://www.w3.org/1999/xhtml\"><table class=\"hl7__eu__lab__report\"><tr><th>Test</th><th>15-Dec-2020</th><th>Reference&#xA0;Range</th><th>Unit</th></tr><tr><td>Hemoglobin A1c/Hemoglobin.total in Blood</td><td>6.1</td><td>4.8 - 5.7</td><td>H</td><td>%</td></tr></table></div>"
        },
        "status": "final",
        "subject": {
          "reference": "urn:uuid:cf08fb1b-9702-4b1f-a1fb-80f5014189cc",
          "display": "Aniela Sacharczuk"
        },
        "effectiveDateTime": "2020-12-15T05:26:59Z",
        "specimen": {
          "reference": "urn:uuid:1b3993ce-4414-4205-98f9-19a78616b570"
        }
      }
    },
    {
      "fullUrl": "urn:uuid:9db78252-40b9-48f2-9507-8dab3e23d1e3",
      "resource": {
        "resourceType": "Observation",
        "id": "9db78252-40b9-48f2-9507-8dab3e23d1e3",
        "meta": {
          "profile": [
            "http://hl7.eu/fhir/laboratory/StructureDefinition/Observation-resultslab-eu-lab"
          ]
        },
        "performer": [
          {
            "display": "The Central European Lab"
          }
        ],
        "category": [
          {
            "coding": [
              {
                "system": "http://terminology.hl7.org/CodeSystem/observation-category",
                "code": "laboratory"
              }
            ]
          }
        ],
        "code": {
          "coding": [
            {
              "code": "2339-0",
              "system": "http://loinc.org",
              "display": "Glucose [Mass/volume] in Blood"
            }
          ],
          "text": "Glucose [Mass/volume] in Blood"
        },
        "valueQuantity": {
          "system": "http://unitsofmeasure.org",
          "value": 72.8,
          "unit": "mg/dL",
          "code": "mg/dL"
        },
        "referenceRange": [
          {
            "low": {
              "value": 70,
              "code": "mg/dL",
              "system": "http://unitsofmeasure.org"
            }
          },
          {
            "high": {
              "value": 99,
              "code": "mg/dL",
              "system": "http://unitsofmeasure.org"
            }
          }
        ],
        "text": {
          "status": "generated",
          "div": "<div xmlns=\"http://www.w3.org/1999/xhtml\"><table class=\"hl7__eu__lab__report\"><tr><th>Test</th><th>15-Dec-2020</th><th>Reference&#xA0;Range</th><th>Unit</th></tr><tr><td>Glucose [Mass/volume] in Blood</td><td>72.8</td><td>70 - 99</td><td></td><td>mg/dL</td></tr></table></div>"
        },
        "status": "final",
        "subject": {
          "reference": "urn:uuid:cf08fb1b-9702-4b1f-a1fb-80f5014189cc",
          "display": "Aniela Sacharczuk"
        },
        "effectiveDateTime": "2020-12-15T05:26:59Z",
        "specimen": {
          "reference": "urn:uuid:1b3993ce-4414-4205-98f9-19a78616b570"
        }
      }
    },
    {
      "fullUrl": "urn:uuid:ec62e688-90bd-41fb-a04c-a3a7364c53d8",
      "resource": {
        "resourceType": "Observation",
        "id": "ec62e688-90bd-41fb-a04c-a3a7364c53d8",
        "meta": {
          "profile": [
            "http://hl7.eu/fhir/laboratory/StructureDefinition/Observation-resultslab-eu-lab"
          ]
        },
        "performer": [
          {
            "display": "The Central European Lab"
          }
        ],
        "category": [
          {
            "coding": [
              {
                "system": "http://terminology.hl7.org/CodeSystem/observation-category",
                "code": "laboratory"
              }
            ]
          }
        ],
        "code": {
          "coding": [
            {
              "code": "6299-2",
              "system": "http://loinc.org",
              "display": "Urea nitrogen [Mass/volume] in Blood"
            }
          ],
          "text": "Urea nitrogen [Mass/volume] in Blood"
        },
        "valueQuantity": {
          "system": "http://unitsofmeasure.org",
          "value": 8.5,
          "unit": "mg/dL",
          "code": "mg/dL"
        },
        "referenceRange": [
          {
            "low": {
              "value": 7,
              "code": "mg/dL",
              "system": "http://unitsofmeasure.org"
            }
          },
          {
            "high": {
              "value": 20,
              "code": "mg/dL",
              "system": "http://unitsofmeasure.org"
            }
          }
        ],
        "text": {
          "status": "generated",
          "div": "<div xmlns=\"http://www.w3.org/1999/xhtml\"><table class=\"hl7__eu__lab__report\"><tr><th>Test</th><th>15-Dec-2020</th><th>Reference&#xA0;Range</th><th>Unit</th></tr><tr><td>Urea nitrogen [Mass/volume] in Blood</td><td>8.5</td><td>7 - 20</td><td></td><td>mg/dL</td></tr></table></div>"
        },
        "status": "final",
        "subject": {
          "reference": "urn:uuid:cf08fb1b-9702-4b1f-a1fb-80f5014189cc",
          "display": "Aniela Sacharczuk"
        },
        "effectiveDateTime": "2020-12-15T05:26:59Z",
        "specimen": {
          "reference": "urn:uuid:1b3993ce-4414-4205-98f9-19a78616b570"
        }
      }
    },
    {
      "fullUrl": "urn:uuid:d6088099-ab3f-42c1-ad29-833c7724b941",
      "resource": {
        "resourceType": "Observation",
        "id": "d6088099-ab3f-42c1-ad29-833c7724b941",
        "meta": {
          "profile": [
            "http://hl7.eu/fhir/laboratory/StructureDefinition/Observation-resultslab-eu-lab"
          ]
        },
        "performer": [
          {
            "display": "The Central European Lab"
          }
        ],
        "category": [
          {
            "coding": [
              {
                "system": "http://terminology.hl7.org/CodeSystem/observation-category",
                "code": "laboratory"
              }
            ]
          }
        ],
        "code": {
          "coding": [
            {
              "code": "38483-4",
              "system": "http://loinc.org",
              "display": "Creatinine [Mass/volume] in Blood"
            }
          ],
          "text": "Creatinine [Mass/volume] in Blood"
        },
        "valueQuantity": {
          "system": "http://unitsofmeasure.org",
          "value": 0.8,
          "unit": "mg/dL",
          "code": "mg/dL"
        },
        "referenceRange": [
          {
            "low": {
              "value": 0.6,
              "code": "mg/dL",
              "system": "http://unitsofmeasure.org"
            }
          },
          {
            "high": {
              "value": 1.1,
              "code": "mg/dL",
              "system": "http://unitsofmeasure.org"
            }
          }
        ],
        "text": {
          "status": "generated",
          "div": "<div xmlns=\"http://www.w3.org/1999/xhtml\"><table class=\"hl7__eu__lab__report\"><tr><th>Test</th><th>15-Dec-2020</th><th>Reference&#xA0;Range</th><th>Unit</th></tr><tr><td>Creatinine [Mass/volume] in Blood</td><td>0.8</td><td>0.6 - 1.1</td><td></td><td>mg/dL</td></tr></table></div>"
        },
        "status": "final",
        "subject": {
          "reference": "urn:uuid:cf08fb1b-9702-4b1f-a1fb-80f5014189cc",
          "display": "Aniela Sacharczuk"
        },
        "effectiveDateTime": "2020-12-15T05:26:59Z",
        "specimen": {
          "reference": "urn:uuid:1b3993ce-4414-4205-98f9-19a78616b570"
        }
      }
    },
    {
      "fullUrl": "urn:uuid:0cd87b52-50c9-4988-8c6e-629f2ef67b79",
      "resource": {
        "resourceType": "Observation",
        "id": "0cd87b52-50c9-4988-8c6e-629f2ef67b79",
        "meta": {
          "profile": [
            "http://hl7.eu/fhir/laboratory/StructureDefinition/Observation-resultslab-eu-lab"
          ]
        },
        "performer": [
          {
            "display": "The Central European Lab"
          }
        ],
        "category": [
          {
            "coding": [
              {
                "system": "http://terminology.hl7.org/CodeSystem/observation-category",
                "code": "laboratory"
              }
            ]
          }
        ],
        "code": {
          "coding": [
            {
              "code": "49765-1",
              "system": "http://loinc.org",
              "display": "Calcium [Mass/volume] in Blood"
            }
          ],
          "text": "Calcium [Mass/volume] in Blood"
        },
        "valueQuantity": {
          "system": "http://unitsofmeasure.org",
          "value": 8.9,
          "unit": "mg/dL",
          "code": "mg/dL"
        },
        "referenceRange": [
          {
            "low": {
              "value": 8.5,
              "code": "mg/dL",
              "system": "http://unitsofmeasure.org"
            }
          },
          {
            "high": {
              "value": 10.5,
              "code": "mg/dL",
              "system": "http://unitsofmeasure.org"
            }
          }
        ],
        "text": {
          "status": "generated",
          "div": "<div xmlns=\"http://www.w3.org/1999/xhtml\"><table class=\"hl7__eu__lab__report\"><tr><th>Test</th><th>15-Dec-2020</th><th>Reference&#xA0;Range</th><th>Unit</th></tr><tr><td>Calcium [Mass/volume] in Blood</td><td>8.9</td><td>8.5 - 10.5</td><td></td><td>mg/dL</td></tr></table></div>"
        },
        "status": "final",
        "subject": {
          "reference": "urn:uuid:cf08fb1b-9702-4b1f-a1fb-80f5014189cc",
          "display": "Aniela Sacharczuk"
        },
        "effectiveDateTime": "2020-12-15T05:26:59Z",
        "specimen": {
          "reference": "urn:uuid:1b3993ce-4414-4205-98f9-19a78616b570"
        }
      }
    },
    {
      "fullUrl": "urn:uuid:d32d6d3d-9200-4ec9-b584-fdf5e3e9f316",
      "resource": {
        "resourceType": "Observation",
        "id": "d32d6d3d-9200-4ec9-b584-fdf5e3e9f316",
        "meta": {
          "profile": [
            "http://hl7.eu/fhir/laboratory/StructureDefinition/Observation-resultslab-eu-lab"
          ]
        },
        "performer": [
          {
            "display": "The Central European Lab"
          }
        ],
        "category": [
          {
            "coding": [
              {
                "system": "http://terminology.hl7.org/CodeSystem/observation-category",
                "code": "laboratory"
              }
            ]
          }
        ],
        "code": {
          "coding": [
            {
              "code": "2947-0",
              "system": "http://loinc.org",
              "display": "Sodium [Moles/volume] in Blood"
            }
          ],
          "text": "Sodium [Moles/volume] in Blood"
        },
        "valueQuantity": {
          "system": "http://unitsofmeasure.org",
          "value": 140.2,
          "unit": "mmol/L",
          "code": "mmol/L"
        },
        "referenceRange": [
          {
            "low": {
              "value": 135,
              "code": "mmol/L",
              "system": "http://unitsofmeasure.org"
            }
          },
          {
            "high": {
              "value": 145,
              "code": "mmol/L",
              "system": "http://unitsofmeasure.org"
            }
          }
        ],
        "text": {
          "status": "generated",
          "div": "<div xmlns=\"http://www.w3.org/1999/xhtml\"><table class=\"hl7__eu__lab__report\"><tr><th>Test</th><th>15-Dec-2020</th><th>Reference&#xA0;Range</th><th>Unit</th></tr><tr><td>Sodium [Moles/volume] in Blood</td><td>140.2</td><td>135 - 145</td><td></td><td>mmol/L</td></tr></table></div>"
        },
        "status": "final",
        "subject": {
          "reference": "urn:uuid:cf08fb1b-9702-4b1f-a1fb-80f5014189cc",
          "display": "Aniela Sacharczuk"
        },
        "effectiveDateTime": "2020-12-15T05:26:59Z",
        "specimen": {
          "reference": "urn:uuid:1b3993ce-4414-4205-98f9-19a78616b570"
        }
      }
    },
    {
      "fullUrl": "urn:uuid:b11e5efb-0257-49fb-a195-f3eb81515c61",
      "resource": {
        "resourceType": "Observation",
        "id": "b11e5efb-0257-49fb-a195-f3eb81515c61",
        "meta": {
          "profile": [
            "http://hl7.eu/fhir/laboratory/StructureDefinition/Observation-resultslab-eu-lab"
          ]
        },
        "performer": [
          {
            "display": "The Central European Lab"
          }
        ],
        "category": [
          {
            "coding": [
              {
                "system": "http://terminology.hl7.org/CodeSystem/observation-category",
                "code": "laboratory"
              }
            ]
          }
        ],
        "code": {
          "coding": [
            {
              "code": "6298-4",
              "system": "http://loinc.org",
              "display": "Potassium [Moles/volume] in Blood"
            }
          ],
          "text": "Potassium [Moles/volume] in Blood"
        },
        "valueQuantity": {
          "system": "http://unitsofmeasure.org",
          "value": 4.4,
          "unit": "mmol/L",
          "code": "mmol/L"
        },
        "referenceRange": [
          {
            "low": {
              "value": 3.5,
              "code": "mmol/L",
              "system": "http://unitsofmeasure.org"
            }
          },
          {
            "high": {
              "value": 5.3,
              "code": "mmol/L",
              "system": "http://unitsofmeasure.org"
            }
          }
        ],
        "text": {
          "status": "generated",
          "div": "<div xmlns=\"http://www.w3.org/1999/xhtml\"><table class=\"hl7__eu__lab__report\"><tr><th>Test</th><th>15-Dec-2020</th><th>Reference&#xA0;Range</th><th>Unit</th></tr><tr><td>Potassium [Moles/volume] in Blood</td><td>4.4</td><td>3.5 - 5.3</td><td></td><td>mmol/L</td></tr></table></div>"
        },
        "status": "final",
        "subject": {
          "reference": "urn:uuid:cf08fb1b-9702-4b1f-a1fb-80f5014189cc",
          "display": "Aniela Sacharczuk"
        },
        "effectiveDateTime": "2020-12-15T05:26:59Z",
        "specimen": {
          "reference": "urn:uuid:1b3993ce-4414-4205-98f9-19a78616b570"
        }
      }
    },
    {
      "fullUrl": "urn:uuid:2f3cb9e1-8a69-494a-9562-541594ba714b",
      "resource": {
        "resourceType": "Observation",
        "id": "2f3cb9e1-8a69-494a-9562-541594ba714b",
        "meta": {
          "profile": [
            "http://hl7.eu/fhir/laboratory/StructureDefinition/Observation-resultslab-eu-lab"
          ]
        },
        "performer": [
          {
            "display": "The Central European Lab"
          }
        ],
        "category": [
          {
            "coding": [
              {
                "system": "http://terminology.hl7.org/CodeSystem/observation-category",
                "code": "laboratory"
              }
            ]
          }
        ],
        "code": {
          "coding": [
            {
              "code": "2069-3",
              "system": "http://loinc.org",
              "display": "Chloride [Moles/volume] in Blood"
            }
          ],
          "text": "Chloride [Moles/volume] in Blood"
        },
        "valueQuantity": {
          "system": "http://unitsofmeasure.org",
          "value": 105,
          "unit": "mmol/L",
          "code": "mmol/L"
        },
        "referenceRange": [
          {
            "low": {
              "value": 98,
              "code": "mmol/L",
              "system": "http://unitsofmeasure.org"
            }
          },
          {
            "high": {
              "value": 114,
              "code": "mmol/L",
              "system": "http://unitsofmeasure.org"
            }
          }
        ],
        "text": {
          "status": "generated",
          "div": "<div xmlns=\"http://www.w3.org/1999/xhtml\"><table class=\"hl7__eu__lab__report\"><tr><th>Test</th><th>15-Dec-2020</th><th>Reference&#xA0;Range</th><th>Unit</th></tr><tr><td>Chloride [Moles/volume] in Blood</td><td>105.0</td><td>98 - 114</td><td></td><td>mmol/L</td></tr></table></div>"
        },
        "status": "final",
        "subject": {
          "reference": "urn:uuid:cf08fb1b-9702-4b1f-a1fb-80f5014189cc",
          "display": "Aniela Sacharczuk"
        },
        "effectiveDateTime": "2020-12-15T05:26:59Z",
        "specimen": {
          "reference": "urn:uuid:1b3993ce-4414-4205-98f9-19a78616b570"
        }
      }
    },
    {
      "fullUrl": "urn:uuid:eec68b91-d885-42f2-8013-adc47c803f6c",
      "resource": {
        "resourceType": "Observation",
        "id": "eec68b91-d885-42f2-8013-adc47c803f6c",
        "meta": {
          "profile": [
            "http://hl7.eu/fhir/laboratory/StructureDefinition/Observation-resultslab-eu-lab"
          ]
        },
        "performer": [
          {
            "display": "The Central European Lab"
          }
        ],
        "category": [
          {
            "coding": [
              {
                "system": "http://terminology.hl7.org/CodeSystem/observation-category",
                "code": "laboratory"
              }
            ]
          }
        ],
        "code": {
          "coding": [
            {
              "code": "20565-8",
              "system": "http://loinc.org",
              "display": "Carbon dioxide, total [Moles/volume] in Blood"
            }
          ],
          "text": "Carbon dioxide, total [Moles/volume] in Blood"
        },
        "valueQuantity": {
          "system": "http://unitsofmeasure.org",
          "value": 24.7,
          "unit": "mmol/L",
          "code": "mmol/L"
        },
        "referenceRange": [
          {
            "low": {
              "value": 22,
              "code": "mmol/L",
              "system": "http://unitsofmeasure.org"
            }
          },
          {
            "high": {
              "value": 29,
              "code": "mmol/L",
              "system": "http://unitsofmeasure.org"
            }
          }
        ],
        "text": {
          "status": "generated",
          "div": "<div xmlns=\"http://www.w3.org/1999/xhtml\"><table class=\"hl7__eu__lab__report\"><tr><th>Test</th><th>15-Dec-2020</th><th>Reference&#xA0;Range</th><th>Unit</th></tr><tr><td>Carbon dioxide, total [Moles/volume] in Blood</td><td>24.7</td><td>22 - 29</td><td></td><td>mmol/L</td></tr></table></div>"
        },
        "status": "final",
        "subject": {
          "reference": "urn:uuid:cf08fb1b-9702-4b1f-a1fb-80f5014189cc",
          "display": "Aniela Sacharczuk"
        },
        "effectiveDateTime": "2020-12-15T05:26:59Z",
        "specimen": {
          "reference": "urn:uuid:1b3993ce-4414-4205-98f9-19a78616b570"
        }
      }
    },
    {
      "fullUrl": "urn:uuid:858192c9-9216-45ba-b0dc-7ad2051d3d6d",
      "resource": {
        "resourceType": "Device",
        "id": "858192c9-9216-45ba-b0dc-7ad2051d3d6d",
        "deviceName": [
          {
            "name": "SYNDERAI Synthetic Generator",
            "type": "manufacturer-name"
          }
        ],
        "version": [
          {
            "value": "5.0"
          }
        ],
        "text": {
          "status": "generated",
          "div": "<div xmlns=\"http://www.w3.org/1999/xhtml\">SYNDERAI Synthetic Generator v5.0</div>"
        },
        "status": "active\"",
        "distinctIdentifier": "synderai-generator-50",
        "manufacturer": "SYNDERAI Project"
      }
    },
    {
      "fullUrl": "urn:uuid:21f51dd4-1ae0-4164-b4b0-8494716f69a4",
      "resource": {
        "resourceType": "Provenance",
        "id": "21f51dd4-1ae0-4164-b4b0-8494716f69a4",
        "target": [
          {
            "reference": "Patient/cf08fb1b-9702-4b1f-a1fb-80f5014189cc"
          },
          {
            "reference": "Bundle/723b20bb-ee95-4d17-bd19-ac02cb8f6bfe"
          },
          {
            "reference": "Composition/5fb13cda-5b7e-4114-9f76-29d001b099d0"
          },
          {
            "reference": "PractitionerRole/3c1fc962-123b-463c-9295-3c63c4136564"
          },
          {
            "reference": "Practitioner/ff874254-a3cd-4e0a-90b8-b9488ccdf22e"
          },
          {
            "reference": "PractitionerRole/2993c258-94be-4faf-a931-fc75c3cc1bc5"
          },
          {
            "reference": "Organization/0235ee63-30bc-42e2-8b94-04ebcd9f0fcc"
          }
        ],
        "activity": {
          "text": "Synthetic Example Data Generation"
        },
        "policy": [
          "https://synderai.net/synderai-synthetic-data-policy"
        ],
        "agent": [
          {
            "type": {
              "text": "author"
            },
            "who": {
              "reference": "Device/858192c9-9216-45ba-b0dc-7ad2051d3d6d"
            }
          }
        ],
        "reason": [
          {
            "text": "Interoperability Testing and Training (non-clinical use)"
          }
        ],
        "text": {
          "status": "generated",
          "div": "<div xmlns=\"http://www.w3.org/1999/xhtml\">Provenance for SYNDERAI Synthetic Example Data Resource</div>"
        },
        "recorded": "2020-12-15T06:26:59Z"
      }
    },
    {
      "fullUrl": "urn:uuid:3c1fc962-123b-463c-9295-3c63c4136564",
      "resource": {
        "resourceType": "PractitionerRole",
        "id": "3c1fc962-123b-463c-9295-3c63c4136564",
        "meta": {
          "profile": [
            "http://hl7.eu/fhir/base/StructureDefinition/practitionerRole-eu"
          ]
        },
        "text": {
          "status": "generated",
          "div": "<div xmlns=\"http://www.w3.org/1999/xhtml\">Laboratory Role Id: 3c1fc962-123b-463c-9295-3c63c4136564</div>"
        },
        "practitioner": {
          "reference": "urn:uuid:ff874254-a3cd-4e0a-90b8-b9488ccdf22e"
        }
      }
    },
    {
      "fullUrl": "urn:uuid:ff874254-a3cd-4e0a-90b8-b9488ccdf22e",
      "resource": {
        "resourceType": "Practitioner",
        "id": "ff874254-a3cd-4e0a-90b8-b9488ccdf22e",
        "meta": {
          "profile": [
            "http://hl7.eu/fhir/base/StructureDefinition/practitioner-eu"
          ]
        },
        "identifier": [
          {
            "assigner": {
              "display": "HL7 Europe"
            },
            "system": "urn:oid:2.16.840.1.113883.2.51.999",
            "value": "2b5e8f1e-ace7-4cc2-8712-0521611a22d7"
          }
        ],
        "name": [
          {
            "prefix": [
              "dr"
            ],
            "given": [
              "Ex"
            ],
            "family": "Ample"
          }
        ],
        "address": [
          {
            "line": [
              "Laboratoire Central Européenne",
              "Boulevard du Jardin Botanique 32"
            ],
            "postalCode": "1000",
            "city": "Brussels",
            "country": "Belgium"
          }
        ],
        "text": {
          "status": "generated",
          "div": "<div xmlns=\"http://www.w3.org/1999/xhtml\">Laboratory: Laboratoire Central Européenne, 1000 Brussels, Belgium</div>"
        }
      }
    }
  ],
  "type": "document",
  "timestamp": "2020-12-15T06:26:59Z"
}
