{
  "resourceType": "Bundle",
  "id": "2ec0f861-d29b-446a-b2f1-3d19af3785a3",
  "meta": {
    "profile": [
      "http://hl7.eu/fhir/laboratory/StructureDefinition/Bundle-eu-lab"
    ]
  },
  "identifier": {
    "assigner": {
      "display": "HL7 Europe"
    },
    "system": "urn:oid:2.16.840.1.113883.2.51.999",
    "value": "79efbbc9-9830-478f-a73c-cdbbae9a91b0"
  },
  "entry": [
    {
      "fullUrl": "urn:uuid:2a80e876-38b9-4d57-96b4-c20ccdea55d4",
      "resource": {
        "resourceType": "Composition",
        "id": "2a80e876-38b9-4d57-96b4-c20ccdea55d4",
        "meta": {
          "profile": [
            "http://hl7.eu/fhir/laboratory/StructureDefinition/Composition-eu-lab"
          ]
        },
        "identifier": {
          "assigner": {
            "display": "HL7 Europe"
          },
          "system": "urn:oid:2.16.840.1.113883.2.51.999",
          "value": "1150dc66-0e96-43fc-a968-a68cac7dc2b4"
        },
        "author": [
          {
            "reference": "urn:uuid:f5f8a79a-1bdb-420a-8315-432269f501f8"
          }
        ],
        "category": [
          {
            "coding": [
              {
                "code": "26436-6",
                "system": "http://loinc.org",
                "display": "Laboratory studies (set)"
              }
            ]
          }
        ],
        "type": {
          "coding": [
            {
              "code": "11502-2",
              "system": "http://loinc.org",
              "display": "Laboratory report"
            }
          ],
          "text": "Laboratory Report"
        },
        "section": [
          {
            "code": {
              "coding": [
                {
                  "code": "26436-6",
                  "system": "http://loinc.org",
                  "display": "Laboratory studies (set)"
                }
              ],
              "text": "Laboratory studies"
            },
            "section": [
              {
                "code": {
                  "coding": [
                    {
                      "code": "$18719-5",
                      "system": "http://loinc.org",
                      "display": "Chemistry studies (set)"
                    }
                  ],
                  "text": "Chemistry"
                },
                "entry": [
                  {
                    "reference": "urn:uuid:9246e575-84db-48a6-aea6-1a77655f60e0"
                  },
                  {
                    "reference": "urn:uuid:4bc21b83-3cee-490b-85dd-b41a2804ed12"
                  },
                  {
                    "reference": "urn:uuid:7f386f40-2349-48c0-b7da-9bf604c29d04"
                  },
                  {
                    "reference": "urn:uuid:e54ce808-1e90-4f28-912c-5b766c6fbe5a"
                  },
                  {
                    "reference": "urn:uuid:3451a1e5-787b-4c72-b6cf-80b8c9dd58c8"
                  },
                  {
                    "reference": "urn:uuid:c0f62835-a34d-4527-acfa-11b946d4fa67"
                  },
                  {
                    "reference": "urn:uuid:7866d804-d177-43bc-8ef1-9856114ed59c"
                  },
                  {
                    "reference": "urn:uuid:f5271191-a68a-42a8-8569-94f165de21c6"
                  },
                  {
                    "reference": "urn:uuid:1cc3241c-6959-41e0-b9b7-bd8448cb6d53"
                  }
                ],
                "text": {
                  "status": "generated",
                  "div": "<div xmlns=\"http://www.w3.org/1999/xhtml\"><h3>Chemistry</h3><table class=\"hl7__eu__lab__report\"><thead><tr><th>Test</th><th>21-AUG-2019</th><th>Reference&#xA0;Range</th><th>Unit</th></tr></thead><tbody><tr><td>Hemoglobin A1c/Hemoglobin.total in Blood</td><td>6.1</td><td>4.5 - 6.4</td><td>%</td></tr><tr><td>Glucose [Mass/volume] in Blood</td><td><strong>66.3 L</strong></td><td>70 - 140</td><td>mg/dL</td></tr><tr><td>Urea nitrogen [Mass/volume] in Blood</td><td>13.4</td><td>7 - 20</td><td>mg/dL</td></tr><tr><td>Creatinine [Mass/volume] in Blood</td><td><strong>0.5 L</strong></td><td>0.6 - 1.1</td><td>mg/dL</td></tr><tr><td>Calcium [Mass/volume] in Blood</td><td>9.5</td><td>8.5 - 10.4</td><td>mg/dL</td></tr><tr><td>Sodium [Moles/volume] in Blood</td><td>141.5</td><td>135 - 145</td><td>mmol/L</td></tr><tr><td>Potassium [Moles/volume] in Blood</td><td>4.1</td><td>3.5 - 5.1</td><td>mmol/L</td></tr><tr><td>Chloride [Moles/volume] in Blood</td><td><strong>109.7 H</strong></td><td>98 - 107</td><td>mmol/L</td></tr><tr><td>Carbon dioxide, total [Moles/volume] in Blood</td><td>28.1</td><td>22 - 29</td><td>mmol/L</td></tr></tbody></table></div>"
                },
                "title": "Chemistry"
              }
            ],
            "title": "Laboratory Report"
          },
          {
            "text": {
              "status": "generated",
              "div": "<div xmlns=\"http://www.w3.org/1999/xhtml\"><h3>Annotation</h3><table class=\"hl7__eu__lab__report\"><tr><th>Conclusion and Recommendations based on this report and previous findings known to us</th></tr><tr><td>The patient shows mild hypoglycemia and slightly low creatinine, which may reflect low muscle mass. Chloride is mildly elevated, but other electrolytes and renal parameters are within normal limits. HbA1c is at the upper end of normal, suggesting good long-term glycemic control. No acute laboratory abnormalities detected; findings are consistent with age-related changes. Clinical correlation recommended.</td></tr></table></div>"
            },
            "code": {
              "coding": [
                {
                  "system": "http://loinc.org",
                  "code": "48767-8",
                  "display": "Annotation comment"
                }
              ]
            },
            "title": "Annotation comment"
          }
        ],
        "status": "final",
        "subject": {
          "reference": "urn:uuid:8bd7e678-0f90-46bf-9c9c-95a4e4af82b1",
          "display": "Magdolna Balog"
        },
        "date": "2019-08-21T15:34:16Z",
        "title": "Laboratory Report",
        "confidentiality": "N"
      }
    },
    {
      "fullUrl": "urn:uuid:5044332d-2f4f-4ae2-94fd-8f8d67d5558b",
      "resource": {
        "resourceType": "DiagnosticReport",
        "id": "5044332d-2f4f-4ae2-94fd-8f8d67d5558b",
        "meta": {
          "profile": [
            "http://hl7.eu/fhir/laboratory/StructureDefinition/DiagnosticReport-eu-lab"
          ]
        },
        "identifier": [
          {
            "assigner": {
              "display": "HL7 Europe"
            },
            "system": "urn:oid:2.16.840.1.113883.2.51.999",
            "value": "0533073b-71c4-4d8f-8ae0-ea0846b479ad"
          }
        ],
        "extension": [
          {
            "url": "http://hl7.org/fhir/5.0/StructureDefinition/extension-DiagnosticReport.composition",
            "valueReference": {
              "reference": "urn:uuid:1150dc66-0e96-43fc-a968-a68cac7dc2b4"
            }
          }
        ],
        "category": [
          {
            "coding": [
              {
                "code": "26436-6",
                "system": "http://loinc.org",
                "display": "Laboratory studies (set)"
              }
            ]
          }
        ],
        "specimen": [
          {
            "reference": "urn:uuid:551a0f30-2ec2-4c5d-9ef2-83881b8e51af"
          }
        ],
        "result": [
          {
            "reference": "urn:uuid:9246e575-84db-48a6-aea6-1a77655f60e0"
          },
          {
            "reference": "urn:uuid:4bc21b83-3cee-490b-85dd-b41a2804ed12"
          },
          {
            "reference": "urn:uuid:7f386f40-2349-48c0-b7da-9bf604c29d04"
          },
          {
            "reference": "urn:uuid:e54ce808-1e90-4f28-912c-5b766c6fbe5a"
          },
          {
            "reference": "urn:uuid:3451a1e5-787b-4c72-b6cf-80b8c9dd58c8"
          },
          {
            "reference": "urn:uuid:c0f62835-a34d-4527-acfa-11b946d4fa67"
          },
          {
            "reference": "urn:uuid:7866d804-d177-43bc-8ef1-9856114ed59c"
          },
          {
            "reference": "urn:uuid:f5271191-a68a-42a8-8569-94f165de21c6"
          },
          {
            "reference": "urn:uuid:1cc3241c-6959-41e0-b9b7-bd8448cb6d53"
          }
        ],
        "status": "registered",
        "code": {
          "coding": [
            {
              "code": "11502-2",
              "system": "http://loinc.org",
              "display": "Laboratory report"
            }
          ]
        },
        "subject": {
          "reference": "urn:uuid:8bd7e678-0f90-46bf-9c9c-95a4e4af82b1",
          "display": "Magdolna Balog"
        }
      }
    },
    {
      "fullUrl": "urn:uuid:8bd7e678-0f90-46bf-9c9c-95a4e4af82b1",
      "resource": {
        "resourceType": "Patient",
        "id": "8bd7e678-0f90-46bf-9c9c-95a4e4af82b1",
        "meta": {
          "security": [
            {
              "system": "http://terminology.hl7.org/CodeSystem/v3-ActReason",
              "code": "HTEST"
            },
            {
              "system": "http://terminology.hl7.org/CodeSystem/v3-ActReason",
              "code": "TRAIN"
            }
          ],
          "tag": [
            {
              "system": "https://synderai.net/fhir/CodeSystem/tags",
              "code": "synthetic",
              "display": "SYNDERAI Synthetic data"
            }
          ],
          "profile": [
            "http://hl7.eu/fhir/base/StructureDefinition/patient-eu-core"
          ]
        },
        "identifier": [
          {
            "type": {
              "coding": [
                {
                  "code": "PT",
                  "system": "http://terminology.hl7.org/CodeSystem/v2-0203"
                }
              ]
            },
            "system": "http://ec.europa.eu/identifier/eci",
            "value": "2437-386280-4"
          },
          {
            "type": {
              "coding": [
                {
                  "code": "MR",
                  "system": "http://terminology.hl7.org/CodeSystem/v2-0203"
                }
              ]
            },
            "system": "http://local.setting.eu/identifier",
            "value": "1d8dc8c5-3a85-b1b5-4101-cca776d0be28"
          }
        ],
        "name": [
          {
            "family": "Balog"
          },
          {
            "given": [
              "Magdolna"
            ]
          },
          {
            "text": "Magdolna Balog"
          }
        ],
        "address": [
          {
            "line": [
              "Ady endre utca 160."
            ],
            "use": "home",
            "type": "physical",
            "postalCode": "3989",
            "city": "Némethídfa",
            "country": "Hungary"
          }
        ],
        "telecom": [
          {
            "system": "phone",
            "value": "+36 46 091-2914"
          }
        ],
        "extension": [
          {
            "url": "http://hl7.org/fhir/StructureDefinition/patient-nationality",
            "valueCodeableConcept": {
              "coding": [
                {
                  "code": "HU",
                  "system": "http://hl7.org/fhir/ValueSet/country"
                }
              ]
            }
          }
        ],
        "text": {
          "status": "generated",
          "div": "<div xmlns=\"http://www.w3.org/1999/xhtml\"><table class=\"hl7__ips\"><tr><td>Magdolna Balog</td><td>female</td><td>21-May-1946</td></tr></table></div>"
        },
        "gender": "female",
        "birthDate": "1946-05-21"
      }
    },
    {
      "fullUrl": "urn:uuid:c3c3d7cd-cadd-4546-b9a6-7720f1d8ca43",
      "resource": {
        "resourceType": "ServiceRequest",
        "id": "c3c3d7cd-cadd-4546-b9a6-7720f1d8ca43",
        "meta": {
          "profile": [
            "http://hl7.eu/fhir/laboratory/StructureDefinition/ServiceRequest-eu-lab"
          ]
        },
        "identifier": [
          {
            "system": "http://example.org",
            "value": "9d6f6ea1-1591-462f-9947-9e4d8f00eb2a"
          }
        ],
        "specimen": [
          {
            "reference": "urn:uuid:551a0f30-2ec2-4c5d-9ef2-83881b8e51af"
          }
        ],
        "reasonCode": [
          {
            "coding": [
              {
                "code": "26929004",
                "system": "http://snomed.info/sct",
                "display": "Alzheimer&#039;s disease"
              }
            ]
          },
          {
            "coding": [
              {
                "code": "414545008",
                "system": "http://snomed.info/sct",
                "display": "Ischemic heart disease"
              }
            ]
          },
          {
            "coding": [
              {
                "code": "49436004",
                "system": "http://snomed.info/sct",
                "display": "Atrial fibrillation"
              }
            ]
          },
          {
            "coding": [
              {
                "code": "64859006",
                "system": "http://snomed.info/sct",
                "display": "Osteoporosis"
              }
            ]
          },
          {
            "coding": [
              {
                "code": "15777000",
                "system": "http://snomed.info/sct",
                "display": "Prediabetes"
              }
            ]
          },
          {
            "coding": [
              {
                "code": "271737000",
                "system": "http://snomed.info/sct",
                "display": "Anemia"
              }
            ]
          }
        ],
        "status": "active",
        "intent": "order",
        "code": {
          "coding": [
            {
              "code": "108252007",
              "system": "http://snomed.info/sct",
              "display": "Laboratory procedure"
            }
          ]
        },
        "subject": {
          "reference": "urn:uuid:8bd7e678-0f90-46bf-9c9c-95a4e4af82b1",
          "display": "Magdolna Balog"
        },
        "requester": {
          "reference": "urn:uuid:c96977c8-b171-4c26-9ce4-690af2e4d8c1"
        }
      }
    },
    {
      "fullUrl": "urn:uuid:c96977c8-b171-4c26-9ce4-690af2e4d8c1",
      "resource": {
        "resourceType": "PractitionerRole",
        "id": "c96977c8-b171-4c26-9ce4-690af2e4d8c1",
        "meta": {
          "profile": [
            "http://hl7.eu/fhir/base/StructureDefinition/practitionerRole-eu"
          ]
        },
        "text": {
          "status": "generated",
          "div": "<div xmlns=\"http://www.w3.org/1999/xhtml\">Provider Role Id: c96977c8-b171-4c26-9ce4-690af2e4d8c1</div>"
        },
        "organization": {
          "reference": "urn:uuid:47ff6fb4-e54f-41d6-b9ec-6d64af668fa4"
        }
      }
    },
    {
      "fullUrl": "urn:uuid:47ff6fb4-e54f-41d6-b9ec-6d64af668fa4",
      "resource": {
        "resourceType": "Organization",
        "id": "47ff6fb4-e54f-41d6-b9ec-6d64af668fa4",
        "meta": {
          "profile": [
            "http://hl7.eu/fhir/base/StructureDefinition/organization-eu"
          ]
        },
        "identifier": [
          {
            "assigner": {
              "display": "HL7 Europe"
            },
            "system": "urn:oid:2.16.840.1.113883.2.51.999",
            "value": "6c3c7826-9357-4cf3-8422-03d051c99c19"
          }
        ],
        "address": [
          {
            "line": [
              "Csabai kapu 9-11"
            ],
            "city": "Miskolc",
            "postalCode": "3529",
            "country": "Hungary"
          }
        ],
        "text": {
          "status": "generated",
          "div": "<div xmlns=\"http://www.w3.org/1999/xhtml\">Provider Organization: Semmelweis Ignác Egészségügyi Központ és Egyetemi Oktató Kórház</div>"
        },
        "name": "Semmelweis Ignác Egészségügyi Központ és Egyetemi Oktató Kórház"
      }
    },
    {
      "fullUrl": "urn:uuid:551a0f30-2ec2-4c5d-9ef2-83881b8e51af",
      "resource": {
        "resourceType": "Specimen",
        "id": "551a0f30-2ec2-4c5d-9ef2-83881b8e51af",
        "meta": {
          "profile": [
            "http://hl7.eu/fhir/laboratory/StructureDefinition/Specimen-eu-lab"
          ]
        },
        "collection": {
          "collectedDateTime": "2019-08-21"
        },
        "text": {
          "status": "generated",
          "div": "<div xmlns=\"http://www.w3.org/1999/xhtml\"><table class=\"hl7__eu__lab__report\"><tr><th>Specimen</th><th>Collection Date</th></tr><tr><td>Whole blood specimen (specimen)</td><td><span class=\"nb\">21-Aug-2019</span></td></tr></table></div>"
        },
        "type": {
          "coding": [
            {
              "code": "258580003",
              "system": "http://snomed.info/sct",
              "display": "Whole blood specimen (specimen)"
            }
          ]
        }
      }
    },
    {
      "fullUrl": "urn:uuid:9246e575-84db-48a6-aea6-1a77655f60e0",
      "resource": {
        "resourceType": "Observation",
        "id": "9246e575-84db-48a6-aea6-1a77655f60e0",
        "meta": {
          "profile": [
            "http://hl7.eu/fhir/laboratory/StructureDefinition/Observation-resultslab-eu-lab"
          ]
        },
        "performer": [
          {
            "display": "The Central European Lab"
          }
        ],
        "category": [
          {
            "coding": [
              {
                "system": "http://terminology.hl7.org/CodeSystem/observation-category",
                "code": "laboratory"
              }
            ]
          }
        ],
        "code": {
          "coding": [
            {
              "code": "4548-4",
              "system": "http://loinc.org",
              "display": "Hemoglobin A1c/Hemoglobin.total in Blood"
            }
          ],
          "text": "Hemoglobin A1c/Hemoglobin.total in Blood"
        },
        "valueQuantity": {
          "system": "http://unitsofmeasure.org",
          "value": 6.1,
          "unit": "%",
          "code": "%"
        },
        "referenceRange": [
          {
            "low": {
              "value": 4.5,
              "code": "%",
              "system": "http://unitsofmeasure.org"
            }
          },
          {
            "high": {
              "value": 6.4,
              "code": "%",
              "system": "http://unitsofmeasure.org"
            }
          }
        ],
        "text": {
          "status": "generated",
          "div": "<div xmlns=\"http://www.w3.org/1999/xhtml\"><table class=\"hl7__eu__lab__report\"><tr><th>Test</th><th>21-Aug-2019</th><th>Reference&#xA0;Range</th><th>Unit</th></tr><tr><td>Hemoglobin A1c/Hemoglobin.total in Blood</td><td>6.1</td><td>4.5 - 6.4</td><td></td><td>%</td></tr></table></div>"
        },
        "status": "final",
        "subject": {
          "reference": "urn:uuid:8bd7e678-0f90-46bf-9c9c-95a4e4af82b1",
          "display": "Magdolna Balog"
        },
        "effectiveDateTime": "2019-08-21T13:34:16Z",
        "specimen": {
          "reference": "urn:uuid:551a0f30-2ec2-4c5d-9ef2-83881b8e51af"
        }
      }
    },
    {
      "fullUrl": "urn:uuid:4bc21b83-3cee-490b-85dd-b41a2804ed12",
      "resource": {
        "resourceType": "Observation",
        "id": "4bc21b83-3cee-490b-85dd-b41a2804ed12",
        "meta": {
          "profile": [
            "http://hl7.eu/fhir/laboratory/StructureDefinition/Observation-resultslab-eu-lab"
          ]
        },
        "performer": [
          {
            "display": "The Central European Lab"
          }
        ],
        "category": [
          {
            "coding": [
              {
                "system": "http://terminology.hl7.org/CodeSystem/observation-category",
                "code": "laboratory"
              }
            ]
          }
        ],
        "code": {
          "coding": [
            {
              "code": "2339-0",
              "system": "http://loinc.org",
              "display": "Glucose [Mass/volume] in Blood"
            }
          ],
          "text": "Glucose [Mass/volume] in Blood"
        },
        "valueQuantity": {
          "system": "http://unitsofmeasure.org",
          "value": 66.3,
          "unit": "mg/dL",
          "code": "mg/dL"
        },
        "referenceRange": [
          {
            "low": {
              "value": 70,
              "code": "mg/dL",
              "system": "http://unitsofmeasure.org"
            }
          },
          {
            "high": {
              "value": 140,
              "code": "mg/dL",
              "system": "http://unitsofmeasure.org"
            }
          }
        ],
        "interpretation": [
          {
            "coding": [
              {
                "code": "L",
                "system": "http://terminology.hl7.org/CodeSystem/v3-ObservationInterpretation",
                "display": "Low"
              }
            ]
          }
        ],
        "text": {
          "status": "generated",
          "div": "<div xmlns=\"http://www.w3.org/1999/xhtml\"><table class=\"hl7__eu__lab__report\"><tr><th>Test</th><th>21-Aug-2019</th><th>Reference&#xA0;Range</th><th>Unit</th></tr><tr><td>Glucose [Mass/volume] in Blood</td><td>66.3</td><td>70 - 140</td><td>L</td><td>mg/dL</td></tr></table></div>"
        },
        "status": "final",
        "subject": {
          "reference": "urn:uuid:8bd7e678-0f90-46bf-9c9c-95a4e4af82b1",
          "display": "Magdolna Balog"
        },
        "effectiveDateTime": "2019-08-21T13:34:16Z",
        "specimen": {
          "reference": "urn:uuid:551a0f30-2ec2-4c5d-9ef2-83881b8e51af"
        }
      }
    },
    {
      "fullUrl": "urn:uuid:7f386f40-2349-48c0-b7da-9bf604c29d04",
      "resource": {
        "resourceType": "Observation",
        "id": "7f386f40-2349-48c0-b7da-9bf604c29d04",
        "meta": {
          "profile": [
            "http://hl7.eu/fhir/laboratory/StructureDefinition/Observation-resultslab-eu-lab"
          ]
        },
        "performer": [
          {
            "display": "The Central European Lab"
          }
        ],
        "category": [
          {
            "coding": [
              {
                "system": "http://terminology.hl7.org/CodeSystem/observation-category",
                "code": "laboratory"
              }
            ]
          }
        ],
        "code": {
          "coding": [
            {
              "code": "6299-2",
              "system": "http://loinc.org",
              "display": "Urea nitrogen [Mass/volume] in Blood"
            }
          ],
          "text": "Urea nitrogen [Mass/volume] in Blood"
        },
        "valueQuantity": {
          "system": "http://unitsofmeasure.org",
          "value": 13.4,
          "unit": "mg/dL",
          "code": "mg/dL"
        },
        "referenceRange": [
          {
            "low": {
              "value": 7,
              "code": "mg/dL",
              "system": "http://unitsofmeasure.org"
            }
          },
          {
            "high": {
              "value": 20,
              "code": "mg/dL",
              "system": "http://unitsofmeasure.org"
            }
          }
        ],
        "text": {
          "status": "generated",
          "div": "<div xmlns=\"http://www.w3.org/1999/xhtml\"><table class=\"hl7__eu__lab__report\"><tr><th>Test</th><th>21-Aug-2019</th><th>Reference&#xA0;Range</th><th>Unit</th></tr><tr><td>Urea nitrogen [Mass/volume] in Blood</td><td>13.4</td><td>7 - 20</td><td></td><td>mg/dL</td></tr></table></div>"
        },
        "status": "final",
        "subject": {
          "reference": "urn:uuid:8bd7e678-0f90-46bf-9c9c-95a4e4af82b1",
          "display": "Magdolna Balog"
        },
        "effectiveDateTime": "2019-08-21T13:34:16Z",
        "specimen": {
          "reference": "urn:uuid:551a0f30-2ec2-4c5d-9ef2-83881b8e51af"
        }
      }
    },
    {
      "fullUrl": "urn:uuid:e54ce808-1e90-4f28-912c-5b766c6fbe5a",
      "resource": {
        "resourceType": "Observation",
        "id": "e54ce808-1e90-4f28-912c-5b766c6fbe5a",
        "meta": {
          "profile": [
            "http://hl7.eu/fhir/laboratory/StructureDefinition/Observation-resultslab-eu-lab"
          ]
        },
        "performer": [
          {
            "display": "The Central European Lab"
          }
        ],
        "category": [
          {
            "coding": [
              {
                "system": "http://terminology.hl7.org/CodeSystem/observation-category",
                "code": "laboratory"
              }
            ]
          }
        ],
        "code": {
          "coding": [
            {
              "code": "38483-4",
              "system": "http://loinc.org",
              "display": "Creatinine [Mass/volume] in Blood"
            }
          ],
          "text": "Creatinine [Mass/volume] in Blood"
        },
        "valueQuantity": {
          "system": "http://unitsofmeasure.org",
          "value": 0.5,
          "unit": "mg/dL",
          "code": "mg/dL"
        },
        "referenceRange": [
          {
            "low": {
              "value": 0.6,
              "code": "mg/dL",
              "system": "http://unitsofmeasure.org"
            }
          },
          {
            "high": {
              "value": 1.1,
              "code": "mg/dL",
              "system": "http://unitsofmeasure.org"
            }
          }
        ],
        "interpretation": [
          {
            "coding": [
              {
                "code": "L",
                "system": "http://terminology.hl7.org/CodeSystem/v3-ObservationInterpretation",
                "display": "Low"
              }
            ]
          }
        ],
        "text": {
          "status": "generated",
          "div": "<div xmlns=\"http://www.w3.org/1999/xhtml\"><table class=\"hl7__eu__lab__report\"><tr><th>Test</th><th>21-Aug-2019</th><th>Reference&#xA0;Range</th><th>Unit</th></tr><tr><td>Creatinine [Mass/volume] in Blood</td><td>0.5</td><td>0.6 - 1.1</td><td>L</td><td>mg/dL</td></tr></table></div>"
        },
        "status": "final",
        "subject": {
          "reference": "urn:uuid:8bd7e678-0f90-46bf-9c9c-95a4e4af82b1",
          "display": "Magdolna Balog"
        },
        "effectiveDateTime": "2019-08-21T13:34:16Z",
        "specimen": {
          "reference": "urn:uuid:551a0f30-2ec2-4c5d-9ef2-83881b8e51af"
        }
      }
    },
    {
      "fullUrl": "urn:uuid:3451a1e5-787b-4c72-b6cf-80b8c9dd58c8",
      "resource": {
        "resourceType": "Observation",
        "id": "3451a1e5-787b-4c72-b6cf-80b8c9dd58c8",
        "meta": {
          "profile": [
            "http://hl7.eu/fhir/laboratory/StructureDefinition/Observation-resultslab-eu-lab"
          ]
        },
        "performer": [
          {
            "display": "The Central European Lab"
          }
        ],
        "category": [
          {
            "coding": [
              {
                "system": "http://terminology.hl7.org/CodeSystem/observation-category",
                "code": "laboratory"
              }
            ]
          }
        ],
        "code": {
          "coding": [
            {
              "code": "49765-1",
              "system": "http://loinc.org",
              "display": "Calcium [Mass/volume] in Blood"
            }
          ],
          "text": "Calcium [Mass/volume] in Blood"
        },
        "valueQuantity": {
          "system": "http://unitsofmeasure.org",
          "value": 9.5,
          "unit": "mg/dL",
          "code": "mg/dL"
        },
        "referenceRange": [
          {
            "low": {
              "value": 8.5,
              "code": "mg/dL",
              "system": "http://unitsofmeasure.org"
            }
          },
          {
            "high": {
              "value": 10.4,
              "code": "mg/dL",
              "system": "http://unitsofmeasure.org"
            }
          }
        ],
        "text": {
          "status": "generated",
          "div": "<div xmlns=\"http://www.w3.org/1999/xhtml\"><table class=\"hl7__eu__lab__report\"><tr><th>Test</th><th>21-Aug-2019</th><th>Reference&#xA0;Range</th><th>Unit</th></tr><tr><td>Calcium [Mass/volume] in Blood</td><td>9.5</td><td>8.5 - 10.4</td><td></td><td>mg/dL</td></tr></table></div>"
        },
        "status": "final",
        "subject": {
          "reference": "urn:uuid:8bd7e678-0f90-46bf-9c9c-95a4e4af82b1",
          "display": "Magdolna Balog"
        },
        "effectiveDateTime": "2019-08-21T13:34:16Z",
        "specimen": {
          "reference": "urn:uuid:551a0f30-2ec2-4c5d-9ef2-83881b8e51af"
        }
      }
    },
    {
      "fullUrl": "urn:uuid:c0f62835-a34d-4527-acfa-11b946d4fa67",
      "resource": {
        "resourceType": "Observation",
        "id": "c0f62835-a34d-4527-acfa-11b946d4fa67",
        "meta": {
          "profile": [
            "http://hl7.eu/fhir/laboratory/StructureDefinition/Observation-resultslab-eu-lab"
          ]
        },
        "performer": [
          {
            "display": "The Central European Lab"
          }
        ],
        "category": [
          {
            "coding": [
              {
                "system": "http://terminology.hl7.org/CodeSystem/observation-category",
                "code": "laboratory"
              }
            ]
          }
        ],
        "code": {
          "coding": [
            {
              "code": "2947-0",
              "system": "http://loinc.org",
              "display": "Sodium [Moles/volume] in Blood"
            }
          ],
          "text": "Sodium [Moles/volume] in Blood"
        },
        "valueQuantity": {
          "system": "http://unitsofmeasure.org",
          "value": 141.5,
          "unit": "mmol/L",
          "code": "mmol/L"
        },
        "referenceRange": [
          {
            "low": {
              "value": 135,
              "code": "mmol/L",
              "system": "http://unitsofmeasure.org"
            }
          },
          {
            "high": {
              "value": 145,
              "code": "mmol/L",
              "system": "http://unitsofmeasure.org"
            }
          }
        ],
        "text": {
          "status": "generated",
          "div": "<div xmlns=\"http://www.w3.org/1999/xhtml\"><table class=\"hl7__eu__lab__report\"><tr><th>Test</th><th>21-Aug-2019</th><th>Reference&#xA0;Range</th><th>Unit</th></tr><tr><td>Sodium [Moles/volume] in Blood</td><td>141.5</td><td>135 - 145</td><td></td><td>mmol/L</td></tr></table></div>"
        },
        "status": "final",
        "subject": {
          "reference": "urn:uuid:8bd7e678-0f90-46bf-9c9c-95a4e4af82b1",
          "display": "Magdolna Balog"
        },
        "effectiveDateTime": "2019-08-21T13:34:16Z",
        "specimen": {
          "reference": "urn:uuid:551a0f30-2ec2-4c5d-9ef2-83881b8e51af"
        }
      }
    },
    {
      "fullUrl": "urn:uuid:7866d804-d177-43bc-8ef1-9856114ed59c",
      "resource": {
        "resourceType": "Observation",
        "id": "7866d804-d177-43bc-8ef1-9856114ed59c",
        "meta": {
          "profile": [
            "http://hl7.eu/fhir/laboratory/StructureDefinition/Observation-resultslab-eu-lab"
          ]
        },
        "performer": [
          {
            "display": "The Central European Lab"
          }
        ],
        "category": [
          {
            "coding": [
              {
                "system": "http://terminology.hl7.org/CodeSystem/observation-category",
                "code": "laboratory"
              }
            ]
          }
        ],
        "code": {
          "coding": [
            {
              "code": "6298-4",
              "system": "http://loinc.org",
              "display": "Potassium [Moles/volume] in Blood"
            }
          ],
          "text": "Potassium [Moles/volume] in Blood"
        },
        "valueQuantity": {
          "system": "http://unitsofmeasure.org",
          "value": 4.1,
          "unit": "mmol/L",
          "code": "mmol/L"
        },
        "referenceRange": [
          {
            "low": {
              "value": 3.5,
              "code": "mmol/L",
              "system": "http://unitsofmeasure.org"
            }
          },
          {
            "high": {
              "value": 5.1,
              "code": "mmol/L",
              "system": "http://unitsofmeasure.org"
            }
          }
        ],
        "text": {
          "status": "generated",
          "div": "<div xmlns=\"http://www.w3.org/1999/xhtml\"><table class=\"hl7__eu__lab__report\"><tr><th>Test</th><th>21-Aug-2019</th><th>Reference&#xA0;Range</th><th>Unit</th></tr><tr><td>Potassium [Moles/volume] in Blood</td><td>4.1</td><td>3.5 - 5.1</td><td></td><td>mmol/L</td></tr></table></div>"
        },
        "status": "final",
        "subject": {
          "reference": "urn:uuid:8bd7e678-0f90-46bf-9c9c-95a4e4af82b1",
          "display": "Magdolna Balog"
        },
        "effectiveDateTime": "2019-08-21T13:34:16Z",
        "specimen": {
          "reference": "urn:uuid:551a0f30-2ec2-4c5d-9ef2-83881b8e51af"
        }
      }
    },
    {
      "fullUrl": "urn:uuid:f5271191-a68a-42a8-8569-94f165de21c6",
      "resource": {
        "resourceType": "Observation",
        "id": "f5271191-a68a-42a8-8569-94f165de21c6",
        "meta": {
          "profile": [
            "http://hl7.eu/fhir/laboratory/StructureDefinition/Observation-resultslab-eu-lab"
          ]
        },
        "performer": [
          {
            "display": "The Central European Lab"
          }
        ],
        "category": [
          {
            "coding": [
              {
                "system": "http://terminology.hl7.org/CodeSystem/observation-category",
                "code": "laboratory"
              }
            ]
          }
        ],
        "code": {
          "coding": [
            {
              "code": "2069-3",
              "system": "http://loinc.org",
              "display": "Chloride [Moles/volume] in Blood"
            }
          ],
          "text": "Chloride [Moles/volume] in Blood"
        },
        "valueQuantity": {
          "system": "http://unitsofmeasure.org",
          "value": 109.7,
          "unit": "mmol/L",
          "code": "mmol/L"
        },
        "referenceRange": [
          {
            "low": {
              "value": 98,
              "code": "mmol/L",
              "system": "http://unitsofmeasure.org"
            }
          },
          {
            "high": {
              "value": 107,
              "code": "mmol/L",
              "system": "http://unitsofmeasure.org"
            }
          }
        ],
        "interpretation": [
          {
            "coding": [
              {
                "code": "H",
                "system": "http://terminology.hl7.org/CodeSystem/v3-ObservationInterpretation",
                "display": "High"
              }
            ]
          }
        ],
        "text": {
          "status": "generated",
          "div": "<div xmlns=\"http://www.w3.org/1999/xhtml\"><table class=\"hl7__eu__lab__report\"><tr><th>Test</th><th>21-Aug-2019</th><th>Reference&#xA0;Range</th><th>Unit</th></tr><tr><td>Chloride [Moles/volume] in Blood</td><td>109.7</td><td>98 - 107</td><td>H</td><td>mmol/L</td></tr></table></div>"
        },
        "status": "final",
        "subject": {
          "reference": "urn:uuid:8bd7e678-0f90-46bf-9c9c-95a4e4af82b1",
          "display": "Magdolna Balog"
        },
        "effectiveDateTime": "2019-08-21T13:34:16Z",
        "specimen": {
          "reference": "urn:uuid:551a0f30-2ec2-4c5d-9ef2-83881b8e51af"
        }
      }
    },
    {
      "fullUrl": "urn:uuid:1cc3241c-6959-41e0-b9b7-bd8448cb6d53",
      "resource": {
        "resourceType": "Observation",
        "id": "1cc3241c-6959-41e0-b9b7-bd8448cb6d53",
        "meta": {
          "profile": [
            "http://hl7.eu/fhir/laboratory/StructureDefinition/Observation-resultslab-eu-lab"
          ]
        },
        "performer": [
          {
            "display": "The Central European Lab"
          }
        ],
        "category": [
          {
            "coding": [
              {
                "system": "http://terminology.hl7.org/CodeSystem/observation-category",
                "code": "laboratory"
              }
            ]
          }
        ],
        "code": {
          "coding": [
            {
              "code": "20565-8",
              "system": "http://loinc.org",
              "display": "Carbon dioxide, total [Moles/volume] in Blood"
            }
          ],
          "text": "Carbon dioxide, total [Moles/volume] in Blood"
        },
        "valueQuantity": {
          "system": "http://unitsofmeasure.org",
          "value": 28.1,
          "unit": "mmol/L",
          "code": "mmol/L"
        },
        "referenceRange": [
          {
            "low": {
              "value": 22,
              "code": "mmol/L",
              "system": "http://unitsofmeasure.org"
            }
          },
          {
            "high": {
              "value": 29,
              "code": "mmol/L",
              "system": "http://unitsofmeasure.org"
            }
          }
        ],
        "text": {
          "status": "generated",
          "div": "<div xmlns=\"http://www.w3.org/1999/xhtml\"><table class=\"hl7__eu__lab__report\"><tr><th>Test</th><th>21-Aug-2019</th><th>Reference&#xA0;Range</th><th>Unit</th></tr><tr><td>Carbon dioxide, total [Moles/volume] in Blood</td><td>28.1</td><td>22 - 29</td><td></td><td>mmol/L</td></tr></table></div>"
        },
        "status": "final",
        "subject": {
          "reference": "urn:uuid:8bd7e678-0f90-46bf-9c9c-95a4e4af82b1",
          "display": "Magdolna Balog"
        },
        "effectiveDateTime": "2019-08-21T13:34:16Z",
        "specimen": {
          "reference": "urn:uuid:551a0f30-2ec2-4c5d-9ef2-83881b8e51af"
        }
      }
    },
    {
      "fullUrl": "urn:uuid:e8ad3b38-5106-4578-8c3d-98c80759c68f",
      "resource": {
        "resourceType": "Device",
        "id": "e8ad3b38-5106-4578-8c3d-98c80759c68f",
        "deviceName": [
          {
            "name": "SYNDERAI Synthetic Generator",
            "type": "manufacturer-name"
          }
        ],
        "version": [
          {
            "value": "5.0"
          }
        ],
        "text": {
          "status": "generated",
          "div": "<div xmlns=\"http://www.w3.org/1999/xhtml\">SYNDERAI Synthetic Generator v5.0</div>"
        },
        "status": "active\"",
        "distinctIdentifier": "synderai-generator-50",
        "manufacturer": "SYNDERAI Project"
      }
    },
    {
      "fullUrl": "urn:uuid:e52f6c8a-ac2b-443a-aabb-60d2c88360b5",
      "resource": {
        "resourceType": "Provenance",
        "id": "e52f6c8a-ac2b-443a-aabb-60d2c88360b5",
        "target": [
          {
            "reference": "Patient/8bd7e678-0f90-46bf-9c9c-95a4e4af82b1"
          },
          {
            "reference": "Bundle/2ec0f861-d29b-446a-b2f1-3d19af3785a3"
          },
          {
            "reference": "Composition/2a80e876-38b9-4d57-96b4-c20ccdea55d4"
          },
          {
            "reference": "PractitionerRole/f5f8a79a-1bdb-420a-8315-432269f501f8"
          },
          {
            "reference": "Practitioner/37557084-2d6d-4410-a6a0-b3ece202e913"
          },
          {
            "reference": "PractitionerRole/c96977c8-b171-4c26-9ce4-690af2e4d8c1"
          },
          {
            "reference": "Organization/47ff6fb4-e54f-41d6-b9ec-6d64af668fa4"
          }
        ],
        "activity": {
          "text": "Synthetic Example Data Generation"
        },
        "policy": [
          "https://synderai.net/synderai-synthetic-data-policy"
        ],
        "agent": [
          {
            "type": {
              "text": "author"
            },
            "who": {
              "reference": "Device/e8ad3b38-5106-4578-8c3d-98c80759c68f"
            }
          }
        ],
        "reason": [
          {
            "text": "Interoperability Testing and Training (non-clinical use)"
          }
        ],
        "text": {
          "status": "generated",
          "div": "<div xmlns=\"http://www.w3.org/1999/xhtml\">Provenance for SYNDERAI Synthetic Example Data Resource</div>"
        },
        "recorded": "2019-08-21T15:34:16Z"
      }
    },
    {
      "fullUrl": "urn:uuid:f5f8a79a-1bdb-420a-8315-432269f501f8",
      "resource": {
        "resourceType": "PractitionerRole",
        "id": "f5f8a79a-1bdb-420a-8315-432269f501f8",
        "meta": {
          "profile": [
            "http://hl7.eu/fhir/base/StructureDefinition/practitionerRole-eu"
          ]
        },
        "text": {
          "status": "generated",
          "div": "<div xmlns=\"http://www.w3.org/1999/xhtml\">Laboratory Role Id: f5f8a79a-1bdb-420a-8315-432269f501f8</div>"
        },
        "practitioner": {
          "reference": "urn:uuid:37557084-2d6d-4410-a6a0-b3ece202e913"
        }
      }
    },
    {
      "fullUrl": "urn:uuid:37557084-2d6d-4410-a6a0-b3ece202e913",
      "resource": {
        "resourceType": "Practitioner",
        "id": "37557084-2d6d-4410-a6a0-b3ece202e913",
        "meta": {
          "profile": [
            "http://hl7.eu/fhir/base/StructureDefinition/practitioner-eu"
          ]
        },
        "identifier": [
          {
            "assigner": {
              "display": "HL7 Europe"
            },
            "system": "urn:oid:2.16.840.1.113883.2.51.999",
            "value": "c480dbb3-2b7b-47cb-a7ac-8287c6e5756d"
          }
        ],
        "name": [
          {
            "prefix": [
              "dr"
            ],
            "given": [
              "Ex"
            ],
            "family": "Ample"
          }
        ],
        "address": [
          {
            "line": [
              "Laboratoire Central Européenne",
              "Boulevard du Jardin Botanique 32"
            ],
            "postalCode": "1000",
            "city": "Brussels",
            "country": "Belgium"
          }
        ],
        "text": {
          "status": "generated",
          "div": "<div xmlns=\"http://www.w3.org/1999/xhtml\">Laboratory: Laboratoire Central Européenne, 1000 Brussels, Belgium</div>"
        }
      }
    }
  ],
  "type": "document",
  "timestamp": "2019-08-21T15:34:16Z"
}
