<Bundle xmlns="http://hl7.org/fhir">
   <id value="5a00e090-5b13-43ee-b345-5b8bc92ae316"/>
   <meta>
      <profile value="http://hl7.eu/fhir/laboratory/StructureDefinition/Bundle-eu-lab"/>
   </meta>
   <identifier>
      <system value="urn:oid:2.16.840.1.113883.2.51.999"/>
      <value value="d1797ff8-3dcf-4949-8d40-087570cdbdb1"/>
      <assigner>
         <display value="HL7 Europe"/>
      </assigner>
   </identifier>
   <type value="document"/>
   <timestamp value="2020-12-10T10:57:58Z"/>
   <entry>
      <fullUrl value="urn:uuid:5f234ad2-bc76-494a-9ee7-17ea3fb25ff1"/>
      <resource>
         <Composition>
            <id value="5f234ad2-bc76-494a-9ee7-17ea3fb25ff1"/>
            <meta>
               <profile value="http://hl7.eu/fhir/laboratory/StructureDefinition/Composition-eu-lab"/>
            </meta>
            <identifier>
               <system value="urn:oid:2.16.840.1.113883.2.51.999"/>
               <value value="b313b0d0-f4a0-4c65-9d0a-2101f2cf723e"/>
               <assigner>
                  <display value="HL7 Europe"/>
               </assigner>
            </identifier>
            <status value="final"/>
            <type>
               <coding>
                  <system value="http://loinc.org"/>
                  <code value="11502-2"/>
                  <display value="Laboratory report"/>
               </coding>
               <text value="Laboratory Report"/>
            </type>
            <category>
               <coding>
                  <system value="http://loinc.org"/>
                  <code value="26436-6"/>
                  <display value="Laboratory studies (set)"/>
               </coding>
            </category>
            <subject>
               <reference value="urn:uuid:dd62398c-344e-47eb-83e7-92caf2a5af6d"/>
               <display value="Elias Höfig"/>
            </subject>
            <date value="2020-12-10T10:57:58Z"/>
            <author>
               <reference value="urn:uuid:d45bc5c9-830f-4429-ba2d-be9f919e47b4"/>
            </author>
            <title value="Laboratory Report"/>
            <confidentiality value="N"/>
            <section>
               <title value="Laboratory Report"/>
               <code>
                  <coding>
                     <system value="http://loinc.org"/>
                     <code value="26436-6"/>
                     <display value="Laboratory studies (set)"/>
                  </coding>
                  <text value="Laboratory studies"/>
               </code>
               <section>
                  <title value="Microbiology"/>
                  <code>
                     <coding>
                        <system value="http://loinc.org"/>
                        <code value="$18725-2"/>
                        <display value="Microbiology studies"/>
                     </coding>
                     <text value="Microbiology"/>
                  </code>
                  <text>
                     <status value="generated"/>
                     <div xmlns="http://www.w3.org/1999/xhtml">
                        <h3>Microbiology</h3>
                        <table class="hl7__eu__lab__report">
                           <thead>
                              <tr>
                                 <th>Test</th>
                                 <th>10-DEC-2020</th>
                                 <th>Reference Range</th>
                                 <th>Unit</th>
                              </tr>
                           </thead>
                           <tbody>
                              <tr>
                                 <td>Influenza virus A Ag [Presence] in Upper respiratory specimen by Rapid immunoassay</td>
                                 <td>Not detected</td>
                                 <td/>
                                 <td/>
                              </tr>
                              <tr>
                                 <td>Influenza virus B Ag [Presence] in Upper respiratory specimen by Rapid immunoassay</td>
                                 <td>Not detected</td>
                                 <td/>
                                 <td/>
                              </tr>
                           </tbody>
                        </table>
                     </div>
                  </text>
                  <entry>
                     <reference value="urn:uuid:8e9c6307-4d41-4fd0-8c64-35306e47cfee"/>
                  </entry>
                  <entry>
                     <reference value="urn:uuid:02ff30f5-766f-4cd0-b0e7-005df16bc3b9"/>
                  </entry>
               </section>
            </section>
            <section>
               <title value="Annotation comment"/>
               <code>
                  <coding>
                     <system value="http://loinc.org"/>
                     <code value="48767-8"/>
                     <display value="Annotation comment"/>
                  </coding>
               </code>
               <text>
                  <status value="generated"/>
                  <div xmlns="http://www.w3.org/1999/xhtml">
                     <h3>Annotation</h3>
                     <table class="hl7__eu__lab__report">
                        <tr>
                           <th>Conclusion and Recommendations based on this report and previous findings known to us</th>
                        </tr>
                        <tr>
                           <td>No evidence of Influenza A or B infection detected by rapid immunoassay in the upper respiratory specimen. Results are within normal limits and do not indicate acute influenza infection at the time of testing.</td>
                        </tr>
                     </table>
                  </div>
               </text>
            </section>
         </Composition>
      </resource>
   </entry>
   <entry>
      <fullUrl value="urn:uuid:2bf43451-1bf6-4139-aaed-0c6ff2d6ad2a"/>
      <resource>
         <DiagnosticReport>
            <id value="2bf43451-1bf6-4139-aaed-0c6ff2d6ad2a"/>
            <meta>
               <profile value="http://hl7.eu/fhir/laboratory/StructureDefinition/DiagnosticReport-eu-lab"/>
            </meta>
            <extension url="http://hl7.org/fhir/5.0/StructureDefinition/extension-DiagnosticReport.composition">
               <valueReference>
                  <reference value="urn:uuid:b313b0d0-f4a0-4c65-9d0a-2101f2cf723e"/>
               </valueReference>
            </extension>
            <identifier>
               <system value="urn:oid:2.16.840.1.113883.2.51.999"/>
               <value value="1d36f67c-b82f-4caa-b0e2-75f1abcb90d8"/>
               <assigner>
                  <display value="HL7 Europe"/>
               </assigner>
            </identifier>
            <status value="registered"/>
            <category>
               <coding>
                  <system value="http://loinc.org"/>
                  <code value="26436-6"/>
                  <display value="Laboratory studies (set)"/>
               </coding>
            </category>
            <code>
               <coding>
                  <system value="http://loinc.org"/>
                  <code value="11502-2"/>
                  <display value="Laboratory report"/>
               </coding>
            </code>
            <subject>
               <reference value="urn:uuid:dd62398c-344e-47eb-83e7-92caf2a5af6d"/>
               <display value="Elias Höfig"/>
            </subject>
            <specimen>
               <reference value="urn:uuid:06d3d3e6-b99e-4080-936a-37944ad9d383"/>
            </specimen>
            <result>
               <reference value="urn:uuid:8e9c6307-4d41-4fd0-8c64-35306e47cfee"/>
            </result>
            <result>
               <reference value="urn:uuid:02ff30f5-766f-4cd0-b0e7-005df16bc3b9"/>
            </result>
         </DiagnosticReport>
      </resource>
   </entry>
   <entry>
      <fullUrl value="urn:uuid:dd62398c-344e-47eb-83e7-92caf2a5af6d"/>
      <resource>
         <Patient>
            <id value="dd62398c-344e-47eb-83e7-92caf2a5af6d"/>
            <meta>
               <profile value="http://hl7.eu/fhir/base/StructureDefinition/patient-eu-core"/>
               <security>
                  <system value="http://terminology.hl7.org/CodeSystem/v3-ActReason"/>
                  <code value="HTEST"/>
               </security>
               <security>
                  <system value="http://terminology.hl7.org/CodeSystem/v3-ActReason"/>
                  <code value="TRAIN"/>
               </security>
               <tag>
                  <system value="https://synderai.net/fhir/CodeSystem/tags"/>
                  <code value="synthetic"/>
                  <display value="SYNDERAI Synthetic data"/>
               </tag>
            </meta>
            <text>
               <status value="generated"/>
               <div xmlns="http://www.w3.org/1999/xhtml">
                  <table class="hl7__ips">
                     <tr>
                        <td>Elias Höfig</td>
                        <td>male</td>
                        <td>19-May-1974</td>
                     </tr>
                  </table>
               </div>
            </text>
            <extension url="http://hl7.org/fhir/StructureDefinition/patient-nationality">
               <valueCodeableConcept>
                  <coding>
                     <system value="http://hl7.org/fhir/ValueSet/country"/>
                     <code value="DE"/>
                  </coding>
               </valueCodeableConcept>
            </extension>
            <identifier>
               <type>
                  <coding>
                     <system value="http://terminology.hl7.org/CodeSystem/v2-0203"/>
                     <code value="PT"/>
                  </coding>
               </type>
               <system value="http://ec.europa.eu/identifier/eci"/>
               <value value="7833-401919-3"/>
            </identifier>
            <identifier>
               <type>
                  <coding>
                     <system value="http://terminology.hl7.org/CodeSystem/v2-0203"/>
                     <code value="MR"/>
                  </coding>
               </type>
               <system value="http://local.setting.eu/identifier"/>
               <value value="55b3d71c-a283-2178-4db6-d251ed0e1404"/>
            </identifier>
            <name>
               <family value="Höfig"/>
            </name>
            <name>
               <given value="Elias"/>
            </name>
            <name>
               <text value="Elias Höfig"/>
            </name>
            <telecom>
               <system value="phone"/>
               <value value="+49 (0) 4602 154908"/>
            </telecom>
            <gender value="male"/>
            <birthDate value="1974-05-19"/>
            <address>
               <use value="home"/>
               <type value="physical"/>
               <line value="Pauline-Schwital-Allee 6-2"/>
               <city value="Wolmirstedt"/>
               <postalCode value="39326"/>
               <country value="Germany"/>
            </address>
         </Patient>
      </resource>
   </entry>
   <entry>
      <fullUrl value="urn:uuid:12bdcf0b-d556-481a-b6bc-9b8a577e2d79"/>
      <resource>
         <ServiceRequest>
            <id value="12bdcf0b-d556-481a-b6bc-9b8a577e2d79"/>
            <meta>
               <profile value="http://hl7.eu/fhir/laboratory/StructureDefinition/ServiceRequest-eu-lab"/>
            </meta>
            <identifier>
               <system value="http://example.org"/>
               <value value="e5f38963-c1f5-428a-bac9-87119993c6e8"/>
            </identifier>
            <status value="active"/>
            <intent value="order"/>
            <code>
               <coding>
                  <system value="http://snomed.info/sct"/>
                  <code value="108252007"/>
                  <display value="Laboratory procedure"/>
               </coding>
            </code>
            <subject>
               <reference value="urn:uuid:dd62398c-344e-47eb-83e7-92caf2a5af6d"/>
               <display value="Elias Höfig"/>
            </subject>
            <requester>
               <reference value="urn:uuid:d070145b-c846-4eff-8f2b-8df299d1f2d0"/>
            </requester>
            <specimen>
               <reference value="urn:uuid:06d3d3e6-b99e-4080-936a-37944ad9d383"/>
            </specimen>
         </ServiceRequest>
      </resource>
   </entry>
   <entry>
      <fullUrl value="urn:uuid:d070145b-c846-4eff-8f2b-8df299d1f2d0"/>
      <resource>
         <PractitionerRole>
            <id value="d070145b-c846-4eff-8f2b-8df299d1f2d0"/>
            <meta>
               <profile value="http://hl7.eu/fhir/base/StructureDefinition/practitionerRole-eu"/>
            </meta>
            <text>
               <status value="generated"/>
               <div xmlns="http://www.w3.org/1999/xhtml">Provider Role Id: d070145b-c846-4eff-8f2b-8df299d1f2d0</div>
            </text>
            <organization>
               <reference value="urn:uuid:7124e052-f2cc-4cb7-8199-0484decdb112"/>
            </organization>
         </PractitionerRole>
      </resource>
   </entry>
   <entry>
      <fullUrl value="urn:uuid:7124e052-f2cc-4cb7-8199-0484decdb112"/>
      <resource>
         <Organization>
            <id value="7124e052-f2cc-4cb7-8199-0484decdb112"/>
            <meta>
               <profile value="http://hl7.eu/fhir/base/StructureDefinition/organization-eu"/>
            </meta>
            <text>
               <status value="generated"/>
               <div xmlns="http://www.w3.org/1999/xhtml">Provider Organization: Klinikum Magdeburg</div>
            </text>
            <identifier>
               <system value="urn:oid:2.16.840.1.113883.2.51.999"/>
               <value value="aed34648-fe1b-4388-9049-0902ca749729"/>
               <assigner>
                  <display value="HL7 Europe"/>
               </assigner>
            </identifier>
            <name value="Klinikum Magdeburg"/>
            <address>
               <line value="Birkenallee 34"/>
               <city value="Magdeburg"/>
               <postalCode value="39130"/>
               <country value="Germany"/>
            </address>
         </Organization>
      </resource>
   </entry>
   <entry>
      <fullUrl value="urn:uuid:06d3d3e6-b99e-4080-936a-37944ad9d383"/>
      <resource>
         <Specimen>
            <id value="06d3d3e6-b99e-4080-936a-37944ad9d383"/>
            <meta>
               <profile value="http://hl7.eu/fhir/laboratory/StructureDefinition/Specimen-eu-lab"/>
            </meta>
            <text>
               <status value="generated"/>
               <div xmlns="http://www.w3.org/1999/xhtml">
                  <table class="hl7__eu__lab__report">
                     <tr>
                        <th>Specimen</th>
                        <th>Collection Date</th>
                     </tr>
                     <tr>
                        <td>Upper respiratory specimen (specimen)</td>
                        <td>
                           <span class="nb">10-Dec-2020</span>
                        </td>
                     </tr>
                  </table>
               </div>
            </text>
            <type>
               <coding>
                  <system value="http://snomed.info/sct"/>
                  <code value="258604001"/>
                  <display value="Upper respiratory specimen (specimen)"/>
               </coding>
            </type>
            <collection>
               <collectedDateTime value="2020-12-10"/>
            </collection>
         </Specimen>
      </resource>
   </entry>
   <entry>
      <fullUrl value="urn:uuid:8e9c6307-4d41-4fd0-8c64-35306e47cfee"/>
      <resource>
         <Observation>
            <id value="8e9c6307-4d41-4fd0-8c64-35306e47cfee"/>
            <meta>
               <profile value="http://hl7.eu/fhir/laboratory/StructureDefinition/Observation-resultslab-eu-lab"/>
            </meta>
            <text>
               <status value="generated"/>
               <div xmlns="http://www.w3.org/1999/xhtml">
                  <table class="hl7__eu__lab__report">
                     <tr>
                        <th>Test</th>
                        <th>10-Dec-2020</th>
                        <th>Reference Range</th>
                        <th>Unit</th>
                     </tr>
                     <tr>
                        <td>Influenza virus A Ag [Presence] in Upper respiratory specimen by Rapid immunoassay</td>
                     </tr>
                  </table>
               </div>
            </text>
            <status value="final"/>
            <category>
               <coding>
                  <system value="http://terminology.hl7.org/CodeSystem/observation-category"/>
                  <code value="laboratory"/>
               </coding>
            </category>
            <code>
               <coding>
                  <system value="http://loinc.org"/>
                  <code value="80382-5"/>
                  <display value="Influenza virus A Ag [Presence] in Upper respiratory specimen by Rapid immunoassay"/>
               </coding>
               <text value="Influenza virus A Ag [Presence] in Upper respiratory specimen by Rapid immunoassay"/>
            </code>
            <subject>
               <reference value="urn:uuid:dd62398c-344e-47eb-83e7-92caf2a5af6d"/>
               <display value="Elias Höfig"/>
            </subject>
            <effectiveDateTime value="2020-12-10T09:57:58Z"/>
            <performer>
               <display value="The Central European Lab"/>
            </performer>
            <specimen>
               <reference value="urn:uuid:06d3d3e6-b99e-4080-936a-37944ad9d383"/>
            </specimen>
         </Observation>
      </resource>
   </entry>
   <entry>
      <fullUrl value="urn:uuid:02ff30f5-766f-4cd0-b0e7-005df16bc3b9"/>
      <resource>
         <Observation>
            <id value="02ff30f5-766f-4cd0-b0e7-005df16bc3b9"/>
            <meta>
               <profile value="http://hl7.eu/fhir/laboratory/StructureDefinition/Observation-resultslab-eu-lab"/>
            </meta>
            <text>
               <status value="generated"/>
               <div xmlns="http://www.w3.org/1999/xhtml">
                  <table class="hl7__eu__lab__report">
                     <tr>
                        <th>Test</th>
                        <th>10-Dec-2020</th>
                        <th>Reference Range</th>
                        <th>Unit</th>
                     </tr>
                     <tr>
                        <td>Influenza virus B Ag [Presence] in Upper respiratory specimen by Rapid immunoassay</td>
                     </tr>
                  </table>
               </div>
            </text>
            <status value="final"/>
            <category>
               <coding>
                  <system value="http://terminology.hl7.org/CodeSystem/observation-category"/>
                  <code value="laboratory"/>
               </coding>
            </category>
            <code>
               <coding>
                  <system value="http://loinc.org"/>
                  <code value="80383-3"/>
                  <display value="Influenza virus B Ag [Presence] in Upper respiratory specimen by Rapid immunoassay"/>
               </coding>
               <text value="Influenza virus B Ag [Presence] in Upper respiratory specimen by Rapid immunoassay"/>
            </code>
            <subject>
               <reference value="urn:uuid:dd62398c-344e-47eb-83e7-92caf2a5af6d"/>
               <display value="Elias Höfig"/>
            </subject>
            <effectiveDateTime value="2020-12-10T09:57:58Z"/>
            <performer>
               <display value="The Central European Lab"/>
            </performer>
            <specimen>
               <reference value="urn:uuid:06d3d3e6-b99e-4080-936a-37944ad9d383"/>
            </specimen>
         </Observation>
      </resource>
   </entry>
   <entry>
      <fullUrl value="urn:uuid:e375da4d-1161-49c6-bfa2-cecb4d10eea0"/>
      <resource>
         <Device>
            <id value="e375da4d-1161-49c6-bfa2-cecb4d10eea0"/>
            <text>
               <status value="generated"/>
               <div xmlns="http://www.w3.org/1999/xhtml">SYNDERAI Synthetic Generator v5.0</div>
            </text>
            <status value="active&#34;"/>
            <distinctIdentifier value="synderai-generator-50"/>
            <manufacturer value="SYNDERAI Project"/>
            <deviceName>
               <name value="SYNDERAI Synthetic Generator"/>
               <type value="manufacturer-name"/>
            </deviceName>
            <version>
               <value value="5.0"/>
            </version>
         </Device>
      </resource>
   </entry>
   <entry>
      <fullUrl value="urn:uuid:b5e7cc70-cab6-4f86-ab2e-715f105e71cc"/>
      <resource>
         <Provenance>
            <id value="b5e7cc70-cab6-4f86-ab2e-715f105e71cc"/>
            <text>
               <status value="generated"/>
               <div xmlns="http://www.w3.org/1999/xhtml">Provenance for SYNDERAI Synthetic Example Data Resource</div>
            </text>
            <target>
               <reference value="Patient/dd62398c-344e-47eb-83e7-92caf2a5af6d"/>
            </target>
            <target>
               <reference value="Bundle/5a00e090-5b13-43ee-b345-5b8bc92ae316"/>
            </target>
            <target>
               <reference value="Composition/5f234ad2-bc76-494a-9ee7-17ea3fb25ff1"/>
            </target>
            <target>
               <reference value="PractitionerRole/d45bc5c9-830f-4429-ba2d-be9f919e47b4"/>
            </target>
            <target>
               <reference value="Practitioner/cd925dc0-b1b7-4a17-8248-1495240790e3"/>
            </target>
            <target>
               <reference value="PractitionerRole/d070145b-c846-4eff-8f2b-8df299d1f2d0"/>
            </target>
            <target>
               <reference value="Organization/7124e052-f2cc-4cb7-8199-0484decdb112"/>
            </target>
            <recorded value="2020-12-10T10:57:58Z"/>
            <policy value="https://synderai.net/synderai-synthetic-data-policy"/>
            <reason>
               <text value="Interoperability Testing and Training (non-clinical use)"/>
            </reason>
            <activity>
               <text value="Synthetic Example Data Generation"/>
            </activity>
            <agent>
               <type>
                  <text value="author"/>
               </type>
               <who>
                  <reference value="Device/e375da4d-1161-49c6-bfa2-cecb4d10eea0"/>
               </who>
            </agent>
         </Provenance>
      </resource>
   </entry>
   <entry>
      <fullUrl value="urn:uuid:d45bc5c9-830f-4429-ba2d-be9f919e47b4"/>
      <resource>
         <PractitionerRole>
            <id value="d45bc5c9-830f-4429-ba2d-be9f919e47b4"/>
            <meta>
               <profile value="http://hl7.eu/fhir/base/StructureDefinition/practitionerRole-eu"/>
            </meta>
            <text>
               <status value="generated"/>
               <div xmlns="http://www.w3.org/1999/xhtml">Laboratory Role Id: d45bc5c9-830f-4429-ba2d-be9f919e47b4</div>
            </text>
            <practitioner>
               <reference value="urn:uuid:cd925dc0-b1b7-4a17-8248-1495240790e3"/>
            </practitioner>
         </PractitionerRole>
      </resource>
   </entry>
   <entry>
      <fullUrl value="urn:uuid:cd925dc0-b1b7-4a17-8248-1495240790e3"/>
      <resource>
         <Practitioner>
            <id value="cd925dc0-b1b7-4a17-8248-1495240790e3"/>
            <meta>
               <profile value="http://hl7.eu/fhir/base/StructureDefinition/practitioner-eu"/>
            </meta>
            <text>
               <status value="generated"/>
               <div xmlns="http://www.w3.org/1999/xhtml">Laboratory: Laboratoire Central Européenne, 1000 Brussels, Belgium</div>
            </text>
            <identifier>
               <system value="urn:oid:2.16.840.1.113883.2.51.999"/>
               <value value="81f1e1df-a471-40b2-8dfa-e6c519fe82e0"/>
               <assigner>
                  <display value="HL7 Europe"/>
               </assigner>
            </identifier>
            <name>
               <family value="Ample"/>
               <given value="Ex"/>
               <prefix value="dr"/>
            </name>
            <address>
               <line value="Laboratoire Central Européenne"/>
               <line value="Boulevard du Jardin Botanique 32"/>
               <city value="Brussels"/>
               <postalCode value="1000"/>
               <country value="Belgium"/>
            </address>
         </Practitioner>
      </resource>
   </entry>
</Bundle>