{
  "resourceType": "Bundle",
  "id": "d50eb022-9552-431f-9f5a-438d3dc5d540",
  "meta": {
    "profile": [
      "http://hl7.eu/fhir/laboratory/StructureDefinition/Bundle-eu-lab"
    ]
  },
  "identifier": {
    "assigner": {
      "display": "HL7 Europe"
    },
    "system": "urn:oid:2.16.840.1.113883.2.51.999",
    "value": "4a1bd168-faae-4ad4-a9b4-c1074b12c196"
  },
  "entry": [
    {
      "fullUrl": "urn:uuid:de1233d4-f2e2-43f6-9435-dbc405cba248",
      "resource": {
        "resourceType": "Composition",
        "id": "de1233d4-f2e2-43f6-9435-dbc405cba248",
        "meta": {
          "profile": [
            "http://hl7.eu/fhir/laboratory/StructureDefinition/Composition-eu-lab"
          ]
        },
        "identifier": {
          "assigner": {
            "display": "HL7 Europe"
          },
          "system": "urn:oid:2.16.840.1.113883.2.51.999",
          "value": "15560049-d802-4f29-b080-f51db50737aa"
        },
        "author": [
          {
            "reference": "urn:uuid:090f91d9-ebf8-4301-af28-55d71c4afd47"
          }
        ],
        "category": [
          {
            "coding": [
              {
                "code": "26436-6",
                "system": "http://loinc.org",
                "display": "Laboratory studies (set)"
              }
            ]
          }
        ],
        "type": {
          "coding": [
            {
              "code": "11502-2",
              "system": "http://loinc.org",
              "display": "Laboratory report"
            }
          ],
          "text": "Laboratory Report"
        },
        "section": [
          {
            "code": {
              "coding": [
                {
                  "code": "26436-6",
                  "system": "http://loinc.org",
                  "display": "Laboratory studies (set)"
                }
              ],
              "text": "Laboratory studies"
            },
            "section": [
              {
                "code": {
                  "coding": [
                    {
                      "code": "$18719-5",
                      "system": "http://loinc.org",
                      "display": "Chemistry studies (set)"
                    }
                  ],
                  "text": "Chemistry"
                },
                "entry": [
                  {
                    "reference": "urn:uuid:2f0d5fb9-8062-4e91-8995-ca6bc1cf70e8"
                  },
                  {
                    "reference": "urn:uuid:725c923a-5d66-40bf-bb64-0ab02d57acc2"
                  },
                  {
                    "reference": "urn:uuid:1201a890-c4b6-4722-afe5-b796d932ee65"
                  },
                  {
                    "reference": "urn:uuid:f052c991-d5ff-44ee-a301-9b6856d81f87"
                  },
                  {
                    "reference": "urn:uuid:8d033a00-334e-452d-97d2-7946a2da63a0"
                  },
                  {
                    "reference": "urn:uuid:aae71af8-2713-4002-84e9-fa7590f0b04d"
                  },
                  {
                    "reference": "urn:uuid:00c7b20a-6292-4a49-8322-e15a1b1de634"
                  },
                  {
                    "reference": "urn:uuid:c8738e49-e18c-41cc-9784-605b0f8479f9"
                  },
                  {
                    "reference": "urn:uuid:de4d94cc-a5ab-484f-bc4f-48d5b34d2a89"
                  },
                  {
                    "reference": "urn:uuid:3100b436-c00b-43fb-aa1d-cb5f6330daa2"
                  },
                  {
                    "reference": "urn:uuid:c6ff9d4b-5a00-4788-bd44-0345fcd2cf7d"
                  },
                  {
                    "reference": "urn:uuid:0575cbfb-e58b-41b6-9cdc-7ac6ea283fa2"
                  },
                  {
                    "reference": "urn:uuid:7497d623-b1df-4ef0-a1b2-b56489956cbf"
                  },
                  {
                    "reference": "urn:uuid:5c7fbe96-5f2f-45c8-94ae-f7eb50c38560"
                  },
                  {
                    "reference": "urn:uuid:1938caf6-874d-4bb2-bd41-9196dd69ba50"
                  },
                  {
                    "reference": "urn:uuid:ef6a0694-d68d-49e0-b2cb-48de0ef8ee80"
                  },
                  {
                    "reference": "urn:uuid:355265e9-b347-4693-a50e-dd8cf24d43d3"
                  },
                  {
                    "reference": "urn:uuid:65607c5f-26a3-4b65-95d4-d3283cbdb5d0"
                  }
                ],
                "text": {
                  "status": "generated",
                  "div": "<div xmlns=\"http://www.w3.org/1999/xhtml\"><h3>Chemistry</h3><table class=\"hl7__eu__lab__report\"><thead><tr><th>Test</th><th>18-MAR-2020</th><th>Reference&#xA0;Range</th><th>Unit</th></tr></thead><tbody><tr><td>Glucose [Mass/volume] in Serum or Plasma</td><td>86.9</td><td>70 - 140</td><td>mg/dL</td></tr><tr><td>Urea nitrogen [Mass/volume] in Serum or Plasma</td><td>17.5</td><td>7 - 20</td><td>mg/dL</td></tr><tr><td>Creatinine [Mass/volume] in Serum or Plasma</td><td><strong>2.1 H</strong></td><td>0.9 - 1.3</td><td>mg/dL</td></tr><tr><td>Calcium [Mass/volume] in Serum or Plasma</td><td>9.8</td><td>8.5 - 10.5</td><td>mg/dL</td></tr><tr><td>Sodium [Moles/volume] in Serum or Plasma</td><td>136.7</td><td>135 - 145</td><td>mmol/L</td></tr><tr><td>Potassium [Moles/volume] in Serum or Plasma</td><td>4.3</td><td>3.5 - 5</td><td>mmol/L</td></tr><tr><td>Chloride [Moles/volume] in Serum or Plasma</td><td>107.8</td><td>98 - 108</td><td>mmol/L</td></tr><tr><td>Carbon dioxide, total [Moles/volume] in Serum or Plasma</td><td>28.6</td><td>22 - 29</td><td>mmol/L</td></tr><tr><td>Ketones [Presence] in Urine by Test strip</td><td>Urine ketone test = ++</td><td></td><td></td></tr><tr><td>Hemoglobin A1c/Hemoglobin.total in Blood</td><td><strong>3.2 L</strong></td><td>4.3 - 6.4</td><td>%</td></tr><tr><td>Glucose [Mass/volume] in Blood</td><td>86.9</td><td>70 - 140</td><td>mg/dL</td></tr><tr><td>Urea nitrogen [Mass/volume] in Blood</td><td>17.5</td><td>7 - 20</td><td>mg/dL</td></tr><tr><td>Creatinine [Mass/volume] in Blood</td><td><strong>4.8 H</strong></td><td>0.6 - 1.3</td><td>mg/dL</td></tr><tr><td>Calcium [Mass/volume] in Blood</td><td>9.8</td><td>8.5 - 10.5</td><td>mg/dL</td></tr><tr><td>Sodium [Moles/volume] in Blood</td><td>136.7</td><td>135 - 145</td><td>mmol/L</td></tr><tr><td>Potassium [Moles/volume] in Blood</td><td>4.3</td><td>3.5 - 5.3</td><td>mmol/L</td></tr><tr><td>Chloride [Moles/volume] in Blood</td><td>107.8</td><td>98 - 110</td><td>mmol/L</td></tr><tr><td>Carbon dioxide, total [Moles/volume] in Blood</td><td>28.6</td><td>22 - 29</td><td>mmol/L</td></tr></tbody></table></div>"
                },
                "title": "Chemistry"
              },
              {
                "code": {
                  "coding": [
                    {
                      "code": "$18729-4",
                      "system": "http://loinc.org",
                      "display": "Urinalysis studies (set)"
                    }
                  ],
                  "text": "Urinalysis"
                },
                "entry": [
                  {
                    "reference": "urn:uuid:703c99fe-dab8-4f35-b238-158ac6ad0aec"
                  },
                  {
                    "reference": "urn:uuid:a228a34f-b25f-448a-a8ce-a141be3237b6"
                  },
                  {
                    "reference": "urn:uuid:7e71277c-6cce-4643-97c3-f1f9fcc8604c"
                  },
                  {
                    "reference": "urn:uuid:9a1ebdd8-85de-4739-b94c-999322e4783c"
                  },
                  {
                    "reference": "urn:uuid:a4e86a17-8697-45e8-90d9-96f06621cd49"
                  },
                  {
                    "reference": "urn:uuid:e3bcead6-af1b-40c0-bad6-736f01296b18"
                  },
                  {
                    "reference": "urn:uuid:1dcc76eb-0d25-433e-9448-7a2849ffb921"
                  },
                  {
                    "reference": "urn:uuid:bd822f9c-c4e2-46c4-a50f-610caf76f992"
                  },
                  {
                    "reference": "urn:uuid:322afb63-a23d-4d49-9bb1-ed35a8b5d355"
                  },
                  {
                    "reference": "urn:uuid:63312444-5d2b-4716-9ca6-a4f76268c20c"
                  },
                  {
                    "reference": "urn:uuid:fa5aa36b-4c72-453f-8264-0af4b9821c77"
                  },
                  {
                    "reference": "urn:uuid:a01ddf12-593e-40d7-974f-7c36d101aafe"
                  }
                ],
                "text": {
                  "status": "generated",
                  "div": "<div xmlns=\"http://www.w3.org/1999/xhtml\"><h3>Urinalysis</h3><table class=\"hl7__eu__lab__report\"><thead><tr><th>Test</th><th>18-MAR-2020</th><th>Reference&#xA0;Range</th><th>Unit</th></tr></thead><tbody><tr><td>Glucose [Mass/volume] in Urine by Test strip</td><td><strong>2.4 H</strong></td><td>0 - 0.8</td><td>mg/dL</td></tr><tr><td>Glucose [Presence] in Urine by Test strip</td><td>++</td><td></td><td></td></tr><tr><td>Bilirubin.total [Mass/volume] in Urine by Test strip</td><td><strong>1.3 H</strong></td><td>0.2 - 1</td><td>mg/dL</td></tr><tr><td>Bilirubin.total [Presence] in Urine by Test strip</td><td>Finding of bilirubin in urine</td><td></td><td></td></tr><tr><td>Ketones [Mass/volume] in Urine by Test strip</td><td><strong>10.2 H</strong></td><td>0 - 5</td><td>mg/dL</td></tr><tr><td>Specific gravity of Urine by Test strip</td><td><strong>1.0 L</strong></td><td>1.005 - 1.03</td><td>{nominal}</td></tr><tr><td>pH of Urine by Test strip</td><td>6.3</td><td>4.6 - 7</td><td>pH</td></tr><tr><td>Protein [Mass/volume] in Urine by Test strip</td><td><strong>392.4 H</strong></td><td>0 - 150</td><td>mg/dL</td></tr><tr><td>Protein [Presence] in Urine by Test strip</td><td>Urine protein test = ++</td><td></td><td></td></tr><tr><td>Nitrite [Presence] in Urine by Test strip</td><td>Urine nitrite negative</td><td></td><td></td></tr><tr><td>Hemoglobin [Presence] in Urine by Test strip</td><td>Urine blood test = negative</td><td></td><td></td></tr><tr><td>Leukocyte esterase [Presence] in Urine by Test strip</td><td>Urine leukocyte test negative</td><td></td><td></td></tr></tbody></table></div>"
                },
                "title": "Urinalysis"
              },
              {
                "code": {
                  "coding": [
                    {
                      "code": "$LP7846-1",
                      "system": "http://loinc.org",
                      "display": "Specimen information"
                    }
                  ],
                  "text": "Specimen information"
                },
                "entry": [
                  {
                    "reference": "urn:uuid:2955dbc5-7b18-46fd-8acd-2b60f01ac5a7"
                  },
                  {
                    "reference": "urn:uuid:6ca69c00-be1b-46b4-8474-3f5872af76fb"
                  },
                  {
                    "reference": "urn:uuid:1b075140-79ce-4edc-b8fa-fa3efd8d1a82"
                  },
                  {
                    "reference": "urn:uuid:d53ab8bf-f5a0-4dd6-ba42-fa283ce3a9fd"
                  }
                ],
                "text": {
                  "status": "generated",
                  "div": "<div xmlns=\"http://www.w3.org/1999/xhtml\"><h3>Specimen information</h3><table class=\"hl7__eu__lab__report\"><thead><tr><th>Test</th><th>18-MAR-2020</th><th>Specimen</th><th></th></tr></thead><tbody><tr><td>Appearance of Urine</td><td>Cloudy urine</td><td>Urine</td><td></td></tr><tr><td>Odor of Urine</td><td>Urine smell ammoniacal</td><td>Urine</td><td></td></tr><tr><td>Clarity of Urine</td><td>Translucent</td><td>Urine</td><td></td></tr><tr><td>Color of Urine</td><td>Brown color</td><td>Urine</td><td></td></tr></tbody></table></div>"
                },
                "title": "Specimen information"
              }
            ],
            "title": "Laboratory Report"
          },
          {
            "text": {
              "status": "generated",
              "div": "<div xmlns=\"http://www.w3.org/1999/xhtml\"><h3>Annotation</h3><table class=\"hl7__eu__lab__report\"><tr><th>Conclusion and Recommendations based on this report and previous findings known to us</th></tr><tr><td>The patient shows markedly elevated creatinine, proteinuria, glucosuria, ketonuria, and bilirubinuria, with low urine specific gravity and abnormal urine appearance, suggesting significant renal dysfunction, possibly acute or chronic kidney disease with impaired concentrating ability. The low HbA1c with glucosuria and ketonuria may indicate recent-onset or poorly controlled diabetes or another metabolic disturbance. Further clinical correlation and nephrology evaluation are strongly recommended.</td></tr></table></div>"
            },
            "code": {
              "coding": [
                {
                  "system": "http://loinc.org",
                  "code": "48767-8",
                  "display": "Annotation comment"
                }
              ]
            },
            "title": "Annotation comment"
          }
        ],
        "status": "final",
        "subject": {
          "reference": "urn:uuid:b88df853-e558-4b55-bd8c-f89d9dc5782f",
          "display": "Θεμιστοκλής Λιναρδάκη"
        },
        "date": "2020-03-18T07:16:00Z",
        "title": "Laboratory Report",
        "confidentiality": "N"
      }
    },
    {
      "fullUrl": "urn:uuid:33eed644-cdb6-4772-89f4-796bb470d223",
      "resource": {
        "resourceType": "DiagnosticReport",
        "id": "33eed644-cdb6-4772-89f4-796bb470d223",
        "meta": {
          "profile": [
            "http://hl7.eu/fhir/laboratory/StructureDefinition/DiagnosticReport-eu-lab"
          ]
        },
        "identifier": [
          {
            "assigner": {
              "display": "HL7 Europe"
            },
            "system": "urn:oid:2.16.840.1.113883.2.51.999",
            "value": "6c6b0eab-2bb0-45f0-bb19-5dce53f04256"
          }
        ],
        "extension": [
          {
            "url": "http://hl7.org/fhir/5.0/StructureDefinition/extension-DiagnosticReport.composition",
            "valueReference": {
              "reference": "urn:uuid:15560049-d802-4f29-b080-f51db50737aa"
            }
          }
        ],
        "category": [
          {
            "coding": [
              {
                "code": "26436-6",
                "system": "http://loinc.org",
                "display": "Laboratory studies (set)"
              }
            ]
          }
        ],
        "specimen": [
          {
            "reference": "urn:uuid:9e3e42be-d026-4f6a-a4c5-180fe127129e"
          },
          {
            "reference": "urn:uuid:01c85570-29e8-4c7f-ad12-a3bdce14957e"
          },
          {
            "reference": "urn:uuid:dd64b8d5-f27b-4837-a89b-b50e07af58a2"
          }
        ],
        "result": [
          {
            "reference": "urn:uuid:2f0d5fb9-8062-4e91-8995-ca6bc1cf70e8"
          },
          {
            "reference": "urn:uuid:725c923a-5d66-40bf-bb64-0ab02d57acc2"
          },
          {
            "reference": "urn:uuid:1201a890-c4b6-4722-afe5-b796d932ee65"
          },
          {
            "reference": "urn:uuid:f052c991-d5ff-44ee-a301-9b6856d81f87"
          },
          {
            "reference": "urn:uuid:8d033a00-334e-452d-97d2-7946a2da63a0"
          },
          {
            "reference": "urn:uuid:aae71af8-2713-4002-84e9-fa7590f0b04d"
          },
          {
            "reference": "urn:uuid:00c7b20a-6292-4a49-8322-e15a1b1de634"
          },
          {
            "reference": "urn:uuid:c8738e49-e18c-41cc-9784-605b0f8479f9"
          },
          {
            "reference": "urn:uuid:2955dbc5-7b18-46fd-8acd-2b60f01ac5a7"
          },
          {
            "reference": "urn:uuid:6ca69c00-be1b-46b4-8474-3f5872af76fb"
          },
          {
            "reference": "urn:uuid:1b075140-79ce-4edc-b8fa-fa3efd8d1a82"
          },
          {
            "reference": "urn:uuid:d53ab8bf-f5a0-4dd6-ba42-fa283ce3a9fd"
          },
          {
            "reference": "urn:uuid:703c99fe-dab8-4f35-b238-158ac6ad0aec"
          },
          {
            "reference": "urn:uuid:a228a34f-b25f-448a-a8ce-a141be3237b6"
          },
          {
            "reference": "urn:uuid:7e71277c-6cce-4643-97c3-f1f9fcc8604c"
          },
          {
            "reference": "urn:uuid:9a1ebdd8-85de-4739-b94c-999322e4783c"
          },
          {
            "reference": "urn:uuid:a4e86a17-8697-45e8-90d9-96f06621cd49"
          },
          {
            "reference": "urn:uuid:de4d94cc-a5ab-484f-bc4f-48d5b34d2a89"
          },
          {
            "reference": "urn:uuid:e3bcead6-af1b-40c0-bad6-736f01296b18"
          },
          {
            "reference": "urn:uuid:1dcc76eb-0d25-433e-9448-7a2849ffb921"
          },
          {
            "reference": "urn:uuid:bd822f9c-c4e2-46c4-a50f-610caf76f992"
          },
          {
            "reference": "urn:uuid:322afb63-a23d-4d49-9bb1-ed35a8b5d355"
          },
          {
            "reference": "urn:uuid:63312444-5d2b-4716-9ca6-a4f76268c20c"
          },
          {
            "reference": "urn:uuid:fa5aa36b-4c72-453f-8264-0af4b9821c77"
          },
          {
            "reference": "urn:uuid:a01ddf12-593e-40d7-974f-7c36d101aafe"
          },
          {
            "reference": "urn:uuid:3100b436-c00b-43fb-aa1d-cb5f6330daa2"
          },
          {
            "reference": "urn:uuid:c6ff9d4b-5a00-4788-bd44-0345fcd2cf7d"
          },
          {
            "reference": "urn:uuid:0575cbfb-e58b-41b6-9cdc-7ac6ea283fa2"
          },
          {
            "reference": "urn:uuid:7497d623-b1df-4ef0-a1b2-b56489956cbf"
          },
          {
            "reference": "urn:uuid:5c7fbe96-5f2f-45c8-94ae-f7eb50c38560"
          },
          {
            "reference": "urn:uuid:1938caf6-874d-4bb2-bd41-9196dd69ba50"
          },
          {
            "reference": "urn:uuid:ef6a0694-d68d-49e0-b2cb-48de0ef8ee80"
          },
          {
            "reference": "urn:uuid:355265e9-b347-4693-a50e-dd8cf24d43d3"
          },
          {
            "reference": "urn:uuid:65607c5f-26a3-4b65-95d4-d3283cbdb5d0"
          }
        ],
        "status": "registered",
        "code": {
          "coding": [
            {
              "code": "11502-2",
              "system": "http://loinc.org",
              "display": "Laboratory report"
            }
          ]
        },
        "subject": {
          "reference": "urn:uuid:b88df853-e558-4b55-bd8c-f89d9dc5782f",
          "display": "Θεμιστοκλής Λιναρδάκη"
        }
      }
    },
    {
      "fullUrl": "urn:uuid:b88df853-e558-4b55-bd8c-f89d9dc5782f",
      "resource": {
        "resourceType": "Patient",
        "id": "b88df853-e558-4b55-bd8c-f89d9dc5782f",
        "meta": {
          "security": [
            {
              "system": "http://terminology.hl7.org/CodeSystem/v3-ActReason",
              "code": "HTEST"
            },
            {
              "system": "http://terminology.hl7.org/CodeSystem/v3-ActReason",
              "code": "TRAIN"
            }
          ],
          "tag": [
            {
              "system": "https://synderai.net/fhir/CodeSystem/tags",
              "code": "synthetic",
              "display": "SYNDERAI Synthetic data"
            }
          ],
          "profile": [
            "http://hl7.eu/fhir/base/StructureDefinition/patient-eu-core"
          ]
        },
        "identifier": [
          {
            "type": {
              "coding": [
                {
                  "code": "PT",
                  "system": "http://terminology.hl7.org/CodeSystem/v2-0203"
                }
              ]
            },
            "system": "http://ec.europa.eu/identifier/eci",
            "value": "5962-476889-7"
          },
          {
            "type": {
              "coding": [
                {
                  "code": "MR",
                  "system": "http://terminology.hl7.org/CodeSystem/v2-0203"
                }
              ]
            },
            "system": "http://local.setting.eu/identifier",
            "value": "925e2603-2ef9-6bdf-1330-2ebf526636c4"
          }
        ],
        "name": [
          {
            "family": "Λιναρδάκη"
          },
          {
            "given": [
              "Θεμιστοκλής"
            ]
          },
          {
            "text": "Θεμιστοκλής Λιναρδάκη"
          }
        ],
        "address": [
          {
            "line": [
              "Αμαρύνθου 54-58"
            ],
            "use": "home",
            "type": "physical",
            "postalCode": "262 21",
            "city": "Πάτρα",
            "country": "Greece"
          }
        ],
        "telecom": [
          {
            "system": "phone",
            "value": "+302226364480"
          }
        ],
        "extension": [
          {
            "url": "http://hl7.org/fhir/StructureDefinition/patient-nationality",
            "valueCodeableConcept": {
              "coding": [
                {
                  "code": "GR",
                  "system": "http://hl7.org/fhir/ValueSet/country"
                }
              ]
            }
          }
        ],
        "text": {
          "status": "generated",
          "div": "<div xmlns=\"http://www.w3.org/1999/xhtml\"><table class=\"hl7__ips\"><tr><td>Θεμιστοκλής Λιναρδάκη</td><td>male</td><td>21-Jan-1974</td></tr></table></div>"
        },
        "gender": "male",
        "birthDate": "1974-01-21"
      }
    },
    {
      "fullUrl": "urn:uuid:8271ebb9-19c2-46ec-ab67-348d7f50af1b",
      "resource": {
        "resourceType": "ServiceRequest",
        "id": "8271ebb9-19c2-46ec-ab67-348d7f50af1b",
        "meta": {
          "profile": [
            "http://hl7.eu/fhir/laboratory/StructureDefinition/ServiceRequest-eu-lab"
          ]
        },
        "identifier": [
          {
            "system": "http://example.org",
            "value": "8df1b6ae-0399-4cd1-b329-210d38ce544b"
          }
        ],
        "specimen": [
          {
            "reference": "urn:uuid:9e3e42be-d026-4f6a-a4c5-180fe127129e"
          },
          {
            "reference": "urn:uuid:01c85570-29e8-4c7f-ad12-a3bdce14957e"
          },
          {
            "reference": "urn:uuid:dd64b8d5-f27b-4837-a89b-b50e07af58a2"
          }
        ],
        "reasonCode": [
          {
            "coding": [
              {
                "code": "237602007",
                "system": "http://snomed.info/sct",
                "display": "Metabolic syndrome X"
              }
            ]
          },
          {
            "coding": [
              {
                "code": "433144002",
                "system": "http://snomed.info/sct",
                "display": "Chronic kidney disease stage 3"
              }
            ]
          },
          {
            "coding": [
              {
                "code": "157141000119108",
                "system": "http://snomed.info/sct",
                "display": "Proteinuria due to type 2 diabetes mellitus"
              }
            ]
          },
          {
            "coding": [
              {
                "code": "431856006",
                "system": "http://snomed.info/sct",
                "display": "Chronic kidney disease stage 2"
              }
            ]
          },
          {
            "coding": [
              {
                "code": "90781000119102",
                "system": "http://snomed.info/sct",
                "display": "Microalbuminuria due to type 2 diabetes mellitus"
              }
            ]
          },
          {
            "coding": [
              {
                "code": "127013003",
                "system": "http://snomed.info/sct",
                "display": "Disorder of kidney due to diabetes mellitus"
              }
            ]
          },
          {
            "coding": [
              {
                "code": "431855005",
                "system": "http://snomed.info/sct",
                "display": "Chronic kidney disease stage 1"
              }
            ]
          },
          {
            "coding": [
              {
                "code": "59621000",
                "system": "http://snomed.info/sct",
                "display": "Essential hypertension"
              }
            ]
          },
          {
            "coding": [
              {
                "code": "15777000",
                "system": "http://snomed.info/sct",
                "display": "Prediabetes"
              }
            ]
          },
          {
            "coding": [
              {
                "code": "271737000",
                "system": "http://snomed.info/sct",
                "display": "Anemia"
              }
            ]
          }
        ],
        "status": "active",
        "intent": "order",
        "code": {
          "coding": [
            {
              "code": "108252007",
              "system": "http://snomed.info/sct",
              "display": "Laboratory procedure"
            }
          ]
        },
        "subject": {
          "reference": "urn:uuid:b88df853-e558-4b55-bd8c-f89d9dc5782f",
          "display": "Θεμιστοκλής Λιναρδάκη"
        },
        "requester": {
          "reference": "urn:uuid:7e770e87-f81f-4652-9da6-2d32f3035fd5"
        }
      }
    },
    {
      "fullUrl": "urn:uuid:7e770e87-f81f-4652-9da6-2d32f3035fd5",
      "resource": {
        "resourceType": "PractitionerRole",
        "id": "7e770e87-f81f-4652-9da6-2d32f3035fd5",
        "meta": {
          "profile": [
            "http://hl7.eu/fhir/base/StructureDefinition/practitionerRole-eu"
          ]
        },
        "text": {
          "status": "generated",
          "div": "<div xmlns=\"http://www.w3.org/1999/xhtml\">Provider Role Id: 7e770e87-f81f-4652-9da6-2d32f3035fd5</div>"
        },
        "organization": {
          "reference": "urn:uuid:b9b69e72-5f78-4cd2-a6dd-3c75529b29c2"
        }
      }
    },
    {
      "fullUrl": "urn:uuid:b9b69e72-5f78-4cd2-a6dd-3c75529b29c2",
      "resource": {
        "resourceType": "Organization",
        "id": "b9b69e72-5f78-4cd2-a6dd-3c75529b29c2",
        "meta": {
          "profile": [
            "http://hl7.eu/fhir/base/StructureDefinition/organization-eu"
          ]
        },
        "identifier": [
          {
            "assigner": {
              "display": "HL7 Europe"
            },
            "system": "urn:oid:2.16.840.1.113883.2.51.999",
            "value": "6ff20d93-d5f4-4b5d-8dc9-8ac5f9e3c7f1"
          }
        ],
        "address": [
          {
            "line": [
              "211 Odós Filellinon"
            ],
            "city": "Patras",
            "postalCode": "262 21",
            "country": "Greece"
          }
        ],
        "text": {
          "status": "generated",
          "div": "<div xmlns=\"http://www.w3.org/1999/xhtml\">Provider Organization: Dr. Dimitris Economou</div>"
        },
        "name": "Dr. Dimitris Economou"
      }
    },
    {
      "fullUrl": "urn:uuid:9e3e42be-d026-4f6a-a4c5-180fe127129e",
      "resource": {
        "resourceType": "Specimen",
        "id": "9e3e42be-d026-4f6a-a4c5-180fe127129e",
        "meta": {
          "profile": [
            "http://hl7.eu/fhir/laboratory/StructureDefinition/Specimen-eu-lab"
          ]
        },
        "collection": {
          "collectedDateTime": "2020-03-18"
        },
        "text": {
          "status": "generated",
          "div": "<div xmlns=\"http://www.w3.org/1999/xhtml\"><table class=\"hl7__eu__lab__report\"><tr><th>Specimen</th><th>Collection Date</th></tr><tr><td>Acellular blood (serum or plasma) specimen</td><td><span class=\"nb\">18-Mar-2020</span></td></tr></table></div>"
        },
        "type": {
          "coding": [
            {
              "code": "122592007",
              "system": "http://snomed.info/sct",
              "display": "Acellular blood (serum or plasma) specimen"
            }
          ]
        }
      }
    },
    {
      "fullUrl": "urn:uuid:01c85570-29e8-4c7f-ad12-a3bdce14957e",
      "resource": {
        "resourceType": "Specimen",
        "id": "01c85570-29e8-4c7f-ad12-a3bdce14957e",
        "meta": {
          "profile": [
            "http://hl7.eu/fhir/laboratory/StructureDefinition/Specimen-eu-lab"
          ]
        },
        "collection": {
          "collectedDateTime": "2020-03-18"
        },
        "text": {
          "status": "generated",
          "div": "<div xmlns=\"http://www.w3.org/1999/xhtml\"><table class=\"hl7__eu__lab__report\"><tr><th>Specimen</th><th>Collection Date</th></tr><tr><td>Urine specimen</td><td><span class=\"nb\">18-Mar-2020</span></td></tr></table></div>"
        },
        "type": {
          "coding": [
            {
              "code": "122575003",
              "system": "http://snomed.info/sct",
              "display": "Urine specimen"
            }
          ]
        }
      }
    },
    {
      "fullUrl": "urn:uuid:dd64b8d5-f27b-4837-a89b-b50e07af58a2",
      "resource": {
        "resourceType": "Specimen",
        "id": "dd64b8d5-f27b-4837-a89b-b50e07af58a2",
        "meta": {
          "profile": [
            "http://hl7.eu/fhir/laboratory/StructureDefinition/Specimen-eu-lab"
          ]
        },
        "collection": {
          "collectedDateTime": "2020-03-18"
        },
        "text": {
          "status": "generated",
          "div": "<div xmlns=\"http://www.w3.org/1999/xhtml\"><table class=\"hl7__eu__lab__report\"><tr><th>Specimen</th><th>Collection Date</th></tr><tr><td>Whole blood specimen (specimen)</td><td><span class=\"nb\">18-Mar-2020</span></td></tr></table></div>"
        },
        "type": {
          "coding": [
            {
              "code": "258580003",
              "system": "http://snomed.info/sct",
              "display": "Whole blood specimen (specimen)"
            }
          ]
        }
      }
    },
    {
      "fullUrl": "urn:uuid:2f0d5fb9-8062-4e91-8995-ca6bc1cf70e8",
      "resource": {
        "resourceType": "Observation",
        "id": "2f0d5fb9-8062-4e91-8995-ca6bc1cf70e8",
        "meta": {
          "profile": [
            "http://hl7.eu/fhir/laboratory/StructureDefinition/Observation-resultslab-eu-lab"
          ]
        },
        "performer": [
          {
            "display": "The Central European Lab"
          }
        ],
        "category": [
          {
            "coding": [
              {
                "system": "http://terminology.hl7.org/CodeSystem/observation-category",
                "code": "laboratory"
              }
            ]
          }
        ],
        "code": {
          "coding": [
            {
              "code": "2345-7",
              "system": "http://loinc.org",
              "display": "Glucose [Mass/volume] in Serum or Plasma"
            }
          ],
          "text": "Glucose [Mass/volume] in Serum or Plasma"
        },
        "valueQuantity": {
          "system": "http://unitsofmeasure.org",
          "value": 86.9,
          "unit": "mg/dL",
          "code": "mg/dL"
        },
        "referenceRange": [
          {
            "low": {
              "value": 70,
              "code": "mg/dL",
              "system": "http://unitsofmeasure.org"
            }
          },
          {
            "high": {
              "value": 140,
              "code": "mg/dL",
              "system": "http://unitsofmeasure.org"
            }
          }
        ],
        "text": {
          "status": "generated",
          "div": "<div xmlns=\"http://www.w3.org/1999/xhtml\"><table class=\"hl7__eu__lab__report\"><tr><th>Test</th><th>18-Mar-2020</th><th>Reference&#xA0;Range</th><th>Unit</th></tr><tr><td>Glucose [Mass/volume] in Serum or Plasma</td><td>86.9</td><td>70 - 140</td><td></td><td>mg/dL</td></tr></table></div>"
        },
        "status": "final",
        "subject": {
          "reference": "urn:uuid:b88df853-e558-4b55-bd8c-f89d9dc5782f",
          "display": "Θεμιστοκλής Λιναρδάκη"
        },
        "effectiveDateTime": "2020-03-18T06:16:00Z",
        "specimen": {
          "reference": "urn:uuid:9e3e42be-d026-4f6a-a4c5-180fe127129e"
        }
      }
    },
    {
      "fullUrl": "urn:uuid:725c923a-5d66-40bf-bb64-0ab02d57acc2",
      "resource": {
        "resourceType": "Observation",
        "id": "725c923a-5d66-40bf-bb64-0ab02d57acc2",
        "meta": {
          "profile": [
            "http://hl7.eu/fhir/laboratory/StructureDefinition/Observation-resultslab-eu-lab"
          ]
        },
        "performer": [
          {
            "display": "The Central European Lab"
          }
        ],
        "category": [
          {
            "coding": [
              {
                "system": "http://terminology.hl7.org/CodeSystem/observation-category",
                "code": "laboratory"
              }
            ]
          }
        ],
        "code": {
          "coding": [
            {
              "code": "3094-0",
              "system": "http://loinc.org",
              "display": "Urea nitrogen [Mass/volume] in Serum or Plasma"
            }
          ],
          "text": "Urea nitrogen [Mass/volume] in Serum or Plasma"
        },
        "valueQuantity": {
          "system": "http://unitsofmeasure.org",
          "value": 17.5,
          "unit": "mg/dL",
          "code": "mg/dL"
        },
        "referenceRange": [
          {
            "low": {
              "value": 7,
              "code": "mg/dL",
              "system": "http://unitsofmeasure.org"
            }
          },
          {
            "high": {
              "value": 20,
              "code": "mg/dL",
              "system": "http://unitsofmeasure.org"
            }
          }
        ],
        "text": {
          "status": "generated",
          "div": "<div xmlns=\"http://www.w3.org/1999/xhtml\"><table class=\"hl7__eu__lab__report\"><tr><th>Test</th><th>18-Mar-2020</th><th>Reference&#xA0;Range</th><th>Unit</th></tr><tr><td>Urea nitrogen [Mass/volume] in Serum or Plasma</td><td>17.5</td><td>7 - 20</td><td></td><td>mg/dL</td></tr></table></div>"
        },
        "status": "final",
        "subject": {
          "reference": "urn:uuid:b88df853-e558-4b55-bd8c-f89d9dc5782f",
          "display": "Θεμιστοκλής Λιναρδάκη"
        },
        "effectiveDateTime": "2020-03-18T06:16:00Z",
        "specimen": {
          "reference": "urn:uuid:9e3e42be-d026-4f6a-a4c5-180fe127129e"
        }
      }
    },
    {
      "fullUrl": "urn:uuid:1201a890-c4b6-4722-afe5-b796d932ee65",
      "resource": {
        "resourceType": "Observation",
        "id": "1201a890-c4b6-4722-afe5-b796d932ee65",
        "meta": {
          "profile": [
            "http://hl7.eu/fhir/laboratory/StructureDefinition/Observation-resultslab-eu-lab"
          ]
        },
        "performer": [
          {
            "display": "The Central European Lab"
          }
        ],
        "category": [
          {
            "coding": [
              {
                "system": "http://terminology.hl7.org/CodeSystem/observation-category",
                "code": "laboratory"
              }
            ]
          }
        ],
        "code": {
          "coding": [
            {
              "code": "2160-0",
              "system": "http://loinc.org",
              "display": "Creatinine [Mass/volume] in Serum or Plasma"
            }
          ],
          "text": "Creatinine [Mass/volume] in Serum or Plasma"
        },
        "valueQuantity": {
          "system": "http://unitsofmeasure.org",
          "value": 2.1,
          "unit": "mg/dL",
          "code": "mg/dL"
        },
        "referenceRange": [
          {
            "low": {
              "value": 0.9,
              "code": "mg/dL",
              "system": "http://unitsofmeasure.org"
            }
          },
          {
            "high": {
              "value": 1.3,
              "code": "mg/dL",
              "system": "http://unitsofmeasure.org"
            }
          }
        ],
        "interpretation": [
          {
            "coding": [
              {
                "code": "H",
                "system": "http://terminology.hl7.org/CodeSystem/v3-ObservationInterpretation",
                "display": "High"
              }
            ]
          }
        ],
        "text": {
          "status": "generated",
          "div": "<div xmlns=\"http://www.w3.org/1999/xhtml\"><table class=\"hl7__eu__lab__report\"><tr><th>Test</th><th>18-Mar-2020</th><th>Reference&#xA0;Range</th><th>Unit</th></tr><tr><td>Creatinine [Mass/volume] in Serum or Plasma</td><td>2.1</td><td>0.9 - 1.3</td><td>H</td><td>mg/dL</td></tr></table></div>"
        },
        "status": "final",
        "subject": {
          "reference": "urn:uuid:b88df853-e558-4b55-bd8c-f89d9dc5782f",
          "display": "Θεμιστοκλής Λιναρδάκη"
        },
        "effectiveDateTime": "2020-03-18T06:16:00Z",
        "specimen": {
          "reference": "urn:uuid:9e3e42be-d026-4f6a-a4c5-180fe127129e"
        }
      }
    },
    {
      "fullUrl": "urn:uuid:f052c991-d5ff-44ee-a301-9b6856d81f87",
      "resource": {
        "resourceType": "Observation",
        "id": "f052c991-d5ff-44ee-a301-9b6856d81f87",
        "meta": {
          "profile": [
            "http://hl7.eu/fhir/laboratory/StructureDefinition/Observation-resultslab-eu-lab"
          ]
        },
        "performer": [
          {
            "display": "The Central European Lab"
          }
        ],
        "category": [
          {
            "coding": [
              {
                "system": "http://terminology.hl7.org/CodeSystem/observation-category",
                "code": "laboratory"
              }
            ]
          }
        ],
        "code": {
          "coding": [
            {
              "code": "17861-6",
              "system": "http://loinc.org",
              "display": "Calcium [Mass/volume] in Serum or Plasma"
            }
          ],
          "text": "Calcium [Mass/volume] in Serum or Plasma"
        },
        "valueQuantity": {
          "system": "http://unitsofmeasure.org",
          "value": 9.8,
          "unit": "mg/dL",
          "code": "mg/dL"
        },
        "referenceRange": [
          {
            "low": {
              "value": 8.5,
              "code": "mg/dL",
              "system": "http://unitsofmeasure.org"
            }
          },
          {
            "high": {
              "value": 10.5,
              "code": "mg/dL",
              "system": "http://unitsofmeasure.org"
            }
          }
        ],
        "text": {
          "status": "generated",
          "div": "<div xmlns=\"http://www.w3.org/1999/xhtml\"><table class=\"hl7__eu__lab__report\"><tr><th>Test</th><th>18-Mar-2020</th><th>Reference&#xA0;Range</th><th>Unit</th></tr><tr><td>Calcium [Mass/volume] in Serum or Plasma</td><td>9.8</td><td>8.5 - 10.5</td><td></td><td>mg/dL</td></tr></table></div>"
        },
        "status": "final",
        "subject": {
          "reference": "urn:uuid:b88df853-e558-4b55-bd8c-f89d9dc5782f",
          "display": "Θεμιστοκλής Λιναρδάκη"
        },
        "effectiveDateTime": "2020-03-18T06:16:00Z",
        "specimen": {
          "reference": "urn:uuid:9e3e42be-d026-4f6a-a4c5-180fe127129e"
        }
      }
    },
    {
      "fullUrl": "urn:uuid:8d033a00-334e-452d-97d2-7946a2da63a0",
      "resource": {
        "resourceType": "Observation",
        "id": "8d033a00-334e-452d-97d2-7946a2da63a0",
        "meta": {
          "profile": [
            "http://hl7.eu/fhir/laboratory/StructureDefinition/Observation-resultslab-eu-lab"
          ]
        },
        "performer": [
          {
            "display": "The Central European Lab"
          }
        ],
        "category": [
          {
            "coding": [
              {
                "system": "http://terminology.hl7.org/CodeSystem/observation-category",
                "code": "laboratory"
              }
            ]
          }
        ],
        "code": {
          "coding": [
            {
              "code": "2951-2",
              "system": "http://loinc.org",
              "display": "Sodium [Moles/volume] in Serum or Plasma"
            }
          ],
          "text": "Sodium [Moles/volume] in Serum or Plasma"
        },
        "valueQuantity": {
          "system": "http://unitsofmeasure.org",
          "value": 136.7,
          "unit": "mmol/L",
          "code": "mmol/L"
        },
        "referenceRange": [
          {
            "low": {
              "value": 135,
              "code": "mmol/L",
              "system": "http://unitsofmeasure.org"
            }
          },
          {
            "high": {
              "value": 145,
              "code": "mmol/L",
              "system": "http://unitsofmeasure.org"
            }
          }
        ],
        "text": {
          "status": "generated",
          "div": "<div xmlns=\"http://www.w3.org/1999/xhtml\"><table class=\"hl7__eu__lab__report\"><tr><th>Test</th><th>18-Mar-2020</th><th>Reference&#xA0;Range</th><th>Unit</th></tr><tr><td>Sodium [Moles/volume] in Serum or Plasma</td><td>136.7</td><td>135 - 145</td><td></td><td>mmol/L</td></tr></table></div>"
        },
        "status": "final",
        "subject": {
          "reference": "urn:uuid:b88df853-e558-4b55-bd8c-f89d9dc5782f",
          "display": "Θεμιστοκλής Λιναρδάκη"
        },
        "effectiveDateTime": "2020-03-18T06:16:00Z",
        "specimen": {
          "reference": "urn:uuid:9e3e42be-d026-4f6a-a4c5-180fe127129e"
        }
      }
    },
    {
      "fullUrl": "urn:uuid:aae71af8-2713-4002-84e9-fa7590f0b04d",
      "resource": {
        "resourceType": "Observation",
        "id": "aae71af8-2713-4002-84e9-fa7590f0b04d",
        "meta": {
          "profile": [
            "http://hl7.eu/fhir/laboratory/StructureDefinition/Observation-resultslab-eu-lab"
          ]
        },
        "performer": [
          {
            "display": "The Central European Lab"
          }
        ],
        "category": [
          {
            "coding": [
              {
                "system": "http://terminology.hl7.org/CodeSystem/observation-category",
                "code": "laboratory"
              }
            ]
          }
        ],
        "code": {
          "coding": [
            {
              "code": "2823-3",
              "system": "http://loinc.org",
              "display": "Potassium [Moles/volume] in Serum or Plasma"
            }
          ],
          "text": "Potassium [Moles/volume] in Serum or Plasma"
        },
        "valueQuantity": {
          "system": "http://unitsofmeasure.org",
          "value": 4.3,
          "unit": "mmol/L",
          "code": "mmol/L"
        },
        "referenceRange": [
          {
            "low": {
              "value": 3.5,
              "code": "mmol/L",
              "system": "http://unitsofmeasure.org"
            }
          },
          {
            "high": {
              "value": 5,
              "code": "mmol/L",
              "system": "http://unitsofmeasure.org"
            }
          }
        ],
        "text": {
          "status": "generated",
          "div": "<div xmlns=\"http://www.w3.org/1999/xhtml\"><table class=\"hl7__eu__lab__report\"><tr><th>Test</th><th>18-Mar-2020</th><th>Reference&#xA0;Range</th><th>Unit</th></tr><tr><td>Potassium [Moles/volume] in Serum or Plasma</td><td>4.3</td><td>3.5 - 5</td><td></td><td>mmol/L</td></tr></table></div>"
        },
        "status": "final",
        "subject": {
          "reference": "urn:uuid:b88df853-e558-4b55-bd8c-f89d9dc5782f",
          "display": "Θεμιστοκλής Λιναρδάκη"
        },
        "effectiveDateTime": "2020-03-18T06:16:00Z",
        "specimen": {
          "reference": "urn:uuid:9e3e42be-d026-4f6a-a4c5-180fe127129e"
        }
      }
    },
    {
      "fullUrl": "urn:uuid:00c7b20a-6292-4a49-8322-e15a1b1de634",
      "resource": {
        "resourceType": "Observation",
        "id": "00c7b20a-6292-4a49-8322-e15a1b1de634",
        "meta": {
          "profile": [
            "http://hl7.eu/fhir/laboratory/StructureDefinition/Observation-resultslab-eu-lab"
          ]
        },
        "performer": [
          {
            "display": "The Central European Lab"
          }
        ],
        "category": [
          {
            "coding": [
              {
                "system": "http://terminology.hl7.org/CodeSystem/observation-category",
                "code": "laboratory"
              }
            ]
          }
        ],
        "code": {
          "coding": [
            {
              "code": "2075-0",
              "system": "http://loinc.org",
              "display": "Chloride [Moles/volume] in Serum or Plasma"
            }
          ],
          "text": "Chloride [Moles/volume] in Serum or Plasma"
        },
        "valueQuantity": {
          "system": "http://unitsofmeasure.org",
          "value": 107.8,
          "unit": "mmol/L",
          "code": "mmol/L"
        },
        "referenceRange": [
          {
            "low": {
              "value": 98,
              "code": "mmol/L",
              "system": "http://unitsofmeasure.org"
            }
          },
          {
            "high": {
              "value": 108,
              "code": "mmol/L",
              "system": "http://unitsofmeasure.org"
            }
          }
        ],
        "text": {
          "status": "generated",
          "div": "<div xmlns=\"http://www.w3.org/1999/xhtml\"><table class=\"hl7__eu__lab__report\"><tr><th>Test</th><th>18-Mar-2020</th><th>Reference&#xA0;Range</th><th>Unit</th></tr><tr><td>Chloride [Moles/volume] in Serum or Plasma</td><td>107.8</td><td>98 - 108</td><td></td><td>mmol/L</td></tr></table></div>"
        },
        "status": "final",
        "subject": {
          "reference": "urn:uuid:b88df853-e558-4b55-bd8c-f89d9dc5782f",
          "display": "Θεμιστοκλής Λιναρδάκη"
        },
        "effectiveDateTime": "2020-03-18T06:16:00Z",
        "specimen": {
          "reference": "urn:uuid:9e3e42be-d026-4f6a-a4c5-180fe127129e"
        }
      }
    },
    {
      "fullUrl": "urn:uuid:c8738e49-e18c-41cc-9784-605b0f8479f9",
      "resource": {
        "resourceType": "Observation",
        "id": "c8738e49-e18c-41cc-9784-605b0f8479f9",
        "meta": {
          "profile": [
            "http://hl7.eu/fhir/laboratory/StructureDefinition/Observation-resultslab-eu-lab"
          ]
        },
        "performer": [
          {
            "display": "The Central European Lab"
          }
        ],
        "category": [
          {
            "coding": [
              {
                "system": "http://terminology.hl7.org/CodeSystem/observation-category",
                "code": "laboratory"
              }
            ]
          }
        ],
        "code": {
          "coding": [
            {
              "code": "2028-9",
              "system": "http://loinc.org",
              "display": "Carbon dioxide, total [Moles/volume] in Serum or Plasma"
            }
          ],
          "text": "Carbon dioxide, total [Moles/volume] in Serum or Plasma"
        },
        "valueQuantity": {
          "system": "http://unitsofmeasure.org",
          "value": 28.6,
          "unit": "mmol/L",
          "code": "mmol/L"
        },
        "referenceRange": [
          {
            "low": {
              "value": 22,
              "code": "mmol/L",
              "system": "http://unitsofmeasure.org"
            }
          },
          {
            "high": {
              "value": 29,
              "code": "mmol/L",
              "system": "http://unitsofmeasure.org"
            }
          }
        ],
        "text": {
          "status": "generated",
          "div": "<div xmlns=\"http://www.w3.org/1999/xhtml\"><table class=\"hl7__eu__lab__report\"><tr><th>Test</th><th>18-Mar-2020</th><th>Reference&#xA0;Range</th><th>Unit</th></tr><tr><td>Carbon dioxide, total [Moles/volume] in Serum or Plasma</td><td>28.6</td><td>22 - 29</td><td></td><td>mmol/L</td></tr></table></div>"
        },
        "status": "final",
        "subject": {
          "reference": "urn:uuid:b88df853-e558-4b55-bd8c-f89d9dc5782f",
          "display": "Θεμιστοκλής Λιναρδάκη"
        },
        "effectiveDateTime": "2020-03-18T06:16:00Z",
        "specimen": {
          "reference": "urn:uuid:9e3e42be-d026-4f6a-a4c5-180fe127129e"
        }
      }
    },
    {
      "fullUrl": "urn:uuid:2955dbc5-7b18-46fd-8acd-2b60f01ac5a7",
      "resource": {
        "resourceType": "Observation",
        "id": "2955dbc5-7b18-46fd-8acd-2b60f01ac5a7",
        "meta": {
          "profile": [
            "http://hl7.eu/fhir/laboratory/StructureDefinition/Observation-resultslab-eu-lab"
          ]
        },
        "performer": [
          {
            "display": "The Central European Lab"
          }
        ],
        "category": [
          {
            "coding": [
              {
                "system": "http://terminology.hl7.org/CodeSystem/observation-category",
                "code": "laboratory"
              }
            ]
          }
        ],
        "code": {
          "coding": [
            {
              "code": "5767-9",
              "system": "http://loinc.org",
              "display": "Appearance of Urine"
            }
          ],
          "text": "Appearance of Urine"
        },
        "text": {
          "status": "generated",
          "div": "<div xmlns=\"http://www.w3.org/1999/xhtml\"><table class=\"hl7__eu__lab__report\"><tr><th>Test</th><th>18-Mar-2020</th><th>Reference&#xA0;Range</th><th>Unit</th></tr><tr><td>Appearance of Urine</td></tr></table></div>"
        },
        "status": "final",
        "subject": {
          "reference": "urn:uuid:b88df853-e558-4b55-bd8c-f89d9dc5782f",
          "display": "Θεμιστοκλής Λιναρδάκη"
        },
        "effectiveDateTime": "2020-03-18T06:16:00Z",
        "specimen": {
          "reference": "urn:uuid:01c85570-29e8-4c7f-ad12-a3bdce14957e"
        }
      }
    },
    {
      "fullUrl": "urn:uuid:6ca69c00-be1b-46b4-8474-3f5872af76fb",
      "resource": {
        "resourceType": "Observation",
        "id": "6ca69c00-be1b-46b4-8474-3f5872af76fb",
        "meta": {
          "profile": [
            "http://hl7.eu/fhir/laboratory/StructureDefinition/Observation-resultslab-eu-lab"
          ]
        },
        "performer": [
          {
            "display": "The Central European Lab"
          }
        ],
        "category": [
          {
            "coding": [
              {
                "system": "http://terminology.hl7.org/CodeSystem/observation-category",
                "code": "laboratory"
              }
            ]
          }
        ],
        "code": {
          "coding": [
            {
              "code": "34533-0",
              "system": "http://loinc.org",
              "display": "Odor of Urine"
            }
          ],
          "text": "Odor of Urine"
        },
        "text": {
          "status": "generated",
          "div": "<div xmlns=\"http://www.w3.org/1999/xhtml\"><table class=\"hl7__eu__lab__report\"><tr><th>Test</th><th>18-Mar-2020</th><th>Reference&#xA0;Range</th><th>Unit</th></tr><tr><td>Odor of Urine</td></tr></table></div>"
        },
        "status": "final",
        "subject": {
          "reference": "urn:uuid:b88df853-e558-4b55-bd8c-f89d9dc5782f",
          "display": "Θεμιστοκλής Λιναρδάκη"
        },
        "effectiveDateTime": "2020-03-18T06:16:00Z",
        "specimen": {
          "reference": "urn:uuid:01c85570-29e8-4c7f-ad12-a3bdce14957e"
        }
      }
    },
    {
      "fullUrl": "urn:uuid:1b075140-79ce-4edc-b8fa-fa3efd8d1a82",
      "resource": {
        "resourceType": "Observation",
        "id": "1b075140-79ce-4edc-b8fa-fa3efd8d1a82",
        "meta": {
          "profile": [
            "http://hl7.eu/fhir/laboratory/StructureDefinition/Observation-resultslab-eu-lab"
          ]
        },
        "performer": [
          {
            "display": "The Central European Lab"
          }
        ],
        "category": [
          {
            "coding": [
              {
                "system": "http://terminology.hl7.org/CodeSystem/observation-category",
                "code": "laboratory"
              }
            ]
          }
        ],
        "code": {
          "coding": [
            {
              "code": "32167-9",
              "system": "http://loinc.org",
              "display": "Clarity of Urine"
            }
          ],
          "text": "Clarity of Urine"
        },
        "text": {
          "status": "generated",
          "div": "<div xmlns=\"http://www.w3.org/1999/xhtml\"><table class=\"hl7__eu__lab__report\"><tr><th>Test</th><th>18-Mar-2020</th><th>Reference&#xA0;Range</th><th>Unit</th></tr><tr><td>Clarity of Urine</td></tr></table></div>"
        },
        "status": "final",
        "subject": {
          "reference": "urn:uuid:b88df853-e558-4b55-bd8c-f89d9dc5782f",
          "display": "Θεμιστοκλής Λιναρδάκη"
        },
        "effectiveDateTime": "2020-03-18T06:16:00Z",
        "specimen": {
          "reference": "urn:uuid:01c85570-29e8-4c7f-ad12-a3bdce14957e"
        }
      }
    },
    {
      "fullUrl": "urn:uuid:d53ab8bf-f5a0-4dd6-ba42-fa283ce3a9fd",
      "resource": {
        "resourceType": "Observation",
        "id": "d53ab8bf-f5a0-4dd6-ba42-fa283ce3a9fd",
        "meta": {
          "profile": [
            "http://hl7.eu/fhir/laboratory/StructureDefinition/Observation-resultslab-eu-lab"
          ]
        },
        "performer": [
          {
            "display": "The Central European Lab"
          }
        ],
        "category": [
          {
            "coding": [
              {
                "system": "http://terminology.hl7.org/CodeSystem/observation-category",
                "code": "laboratory"
              }
            ]
          }
        ],
        "code": {
          "coding": [
            {
              "code": "5778-6",
              "system": "http://loinc.org",
              "display": "Color of Urine"
            }
          ],
          "text": "Color of Urine"
        },
        "text": {
          "status": "generated",
          "div": "<div xmlns=\"http://www.w3.org/1999/xhtml\"><table class=\"hl7__eu__lab__report\"><tr><th>Test</th><th>18-Mar-2020</th><th>Reference&#xA0;Range</th><th>Unit</th></tr><tr><td>Color of Urine</td></tr></table></div>"
        },
        "status": "final",
        "subject": {
          "reference": "urn:uuid:b88df853-e558-4b55-bd8c-f89d9dc5782f",
          "display": "Θεμιστοκλής Λιναρδάκη"
        },
        "effectiveDateTime": "2020-03-18T06:16:00Z",
        "specimen": {
          "reference": "urn:uuid:01c85570-29e8-4c7f-ad12-a3bdce14957e"
        }
      }
    },
    {
      "fullUrl": "urn:uuid:703c99fe-dab8-4f35-b238-158ac6ad0aec",
      "resource": {
        "resourceType": "Observation",
        "id": "703c99fe-dab8-4f35-b238-158ac6ad0aec",
        "meta": {
          "profile": [
            "http://hl7.eu/fhir/laboratory/StructureDefinition/Observation-resultslab-eu-lab"
          ]
        },
        "performer": [
          {
            "display": "The Central European Lab"
          }
        ],
        "category": [
          {
            "coding": [
              {
                "system": "http://terminology.hl7.org/CodeSystem/observation-category",
                "code": "laboratory"
              }
            ]
          }
        ],
        "code": {
          "coding": [
            {
              "code": "5792-7",
              "system": "http://loinc.org",
              "display": "Glucose [Mass/volume] in Urine by Test strip"
            }
          ],
          "text": "Glucose [Mass/volume] in Urine by Test strip"
        },
        "valueQuantity": {
          "system": "http://unitsofmeasure.org",
          "value": 2.4,
          "unit": "mg/dL",
          "code": "mg/dL"
        },
        "referenceRange": [
          {
            "low": {
              "value": 0,
              "code": "mg/dL",
              "system": "http://unitsofmeasure.org"
            }
          },
          {
            "high": {
              "value": 0.8,
              "code": "mg/dL",
              "system": "http://unitsofmeasure.org"
            }
          }
        ],
        "interpretation": [
          {
            "coding": [
              {
                "code": "H",
                "system": "http://terminology.hl7.org/CodeSystem/v3-ObservationInterpretation",
                "display": "High"
              }
            ]
          }
        ],
        "text": {
          "status": "generated",
          "div": "<div xmlns=\"http://www.w3.org/1999/xhtml\"><table class=\"hl7__eu__lab__report\"><tr><th>Test</th><th>18-Mar-2020</th><th>Reference&#xA0;Range</th><th>Unit</th></tr><tr><td>Glucose [Mass/volume] in Urine by Test strip</td><td>2.4</td><td>0 - 0.8</td><td>H</td><td>mg/dL</td></tr></table></div>"
        },
        "status": "final",
        "subject": {
          "reference": "urn:uuid:b88df853-e558-4b55-bd8c-f89d9dc5782f",
          "display": "Θεμιστοκλής Λιναρδάκη"
        },
        "effectiveDateTime": "2020-03-18T06:16:00Z",
        "specimen": {
          "reference": "urn:uuid:01c85570-29e8-4c7f-ad12-a3bdce14957e"
        }
      }
    },
    {
      "fullUrl": "urn:uuid:a228a34f-b25f-448a-a8ce-a141be3237b6",
      "resource": {
        "resourceType": "Observation",
        "id": "a228a34f-b25f-448a-a8ce-a141be3237b6",
        "meta": {
          "profile": [
            "http://hl7.eu/fhir/laboratory/StructureDefinition/Observation-resultslab-eu-lab"
          ]
        },
        "performer": [
          {
            "display": "The Central European Lab"
          }
        ],
        "category": [
          {
            "coding": [
              {
                "system": "http://terminology.hl7.org/CodeSystem/observation-category",
                "code": "laboratory"
              }
            ]
          }
        ],
        "code": {
          "coding": [
            {
              "code": "25428-4",
              "system": "http://loinc.org",
              "display": "Glucose [Presence] in Urine by Test strip"
            }
          ],
          "text": "Glucose [Presence] in Urine by Test strip"
        },
        "text": {
          "status": "generated",
          "div": "<div xmlns=\"http://www.w3.org/1999/xhtml\"><table class=\"hl7__eu__lab__report\"><tr><th>Test</th><th>18-Mar-2020</th><th>Reference&#xA0;Range</th><th>Unit</th></tr><tr><td>Glucose [Presence] in Urine by Test strip</td></tr></table></div>"
        },
        "status": "final",
        "subject": {
          "reference": "urn:uuid:b88df853-e558-4b55-bd8c-f89d9dc5782f",
          "display": "Θεμιστοκλής Λιναρδάκη"
        },
        "effectiveDateTime": "2020-03-18T06:16:00Z",
        "specimen": {
          "reference": "urn:uuid:01c85570-29e8-4c7f-ad12-a3bdce14957e"
        }
      }
    },
    {
      "fullUrl": "urn:uuid:7e71277c-6cce-4643-97c3-f1f9fcc8604c",
      "resource": {
        "resourceType": "Observation",
        "id": "7e71277c-6cce-4643-97c3-f1f9fcc8604c",
        "meta": {
          "profile": [
            "http://hl7.eu/fhir/laboratory/StructureDefinition/Observation-resultslab-eu-lab"
          ]
        },
        "performer": [
          {
            "display": "The Central European Lab"
          }
        ],
        "category": [
          {
            "coding": [
              {
                "system": "http://terminology.hl7.org/CodeSystem/observation-category",
                "code": "laboratory"
              }
            ]
          }
        ],
        "code": {
          "coding": [
            {
              "code": "20505-4",
              "system": "http://loinc.org",
              "display": "Bilirubin.total [Mass/volume] in Urine by Test strip"
            }
          ],
          "text": "Bilirubin.total [Mass/volume] in Urine by Test strip"
        },
        "valueQuantity": {
          "system": "http://unitsofmeasure.org",
          "value": 1.3,
          "unit": "mg/dL",
          "code": "mg/dL"
        },
        "referenceRange": [
          {
            "low": {
              "value": 0.2,
              "code": "mg/dL",
              "system": "http://unitsofmeasure.org"
            }
          },
          {
            "high": {
              "value": 1,
              "code": "mg/dL",
              "system": "http://unitsofmeasure.org"
            }
          }
        ],
        "interpretation": [
          {
            "coding": [
              {
                "code": "H",
                "system": "http://terminology.hl7.org/CodeSystem/v3-ObservationInterpretation",
                "display": "High"
              }
            ]
          }
        ],
        "text": {
          "status": "generated",
          "div": "<div xmlns=\"http://www.w3.org/1999/xhtml\"><table class=\"hl7__eu__lab__report\"><tr><th>Test</th><th>18-Mar-2020</th><th>Reference&#xA0;Range</th><th>Unit</th></tr><tr><td>Bilirubin.total [Mass/volume] in Urine by Test strip</td><td>1.3</td><td>0.2 - 1</td><td>H</td><td>mg/dL</td></tr></table></div>"
        },
        "status": "final",
        "subject": {
          "reference": "urn:uuid:b88df853-e558-4b55-bd8c-f89d9dc5782f",
          "display": "Θεμιστοκλής Λιναρδάκη"
        },
        "effectiveDateTime": "2020-03-18T06:16:00Z",
        "specimen": {
          "reference": "urn:uuid:01c85570-29e8-4c7f-ad12-a3bdce14957e"
        }
      }
    },
    {
      "fullUrl": "urn:uuid:9a1ebdd8-85de-4739-b94c-999322e4783c",
      "resource": {
        "resourceType": "Observation",
        "id": "9a1ebdd8-85de-4739-b94c-999322e4783c",
        "meta": {
          "profile": [
            "http://hl7.eu/fhir/laboratory/StructureDefinition/Observation-resultslab-eu-lab"
          ]
        },
        "performer": [
          {
            "display": "The Central European Lab"
          }
        ],
        "category": [
          {
            "coding": [
              {
                "system": "http://terminology.hl7.org/CodeSystem/observation-category",
                "code": "laboratory"
              }
            ]
          }
        ],
        "code": {
          "coding": [
            {
              "code": "5770-3",
              "system": "http://loinc.org",
              "display": "Bilirubin.total [Presence] in Urine by Test strip"
            }
          ],
          "text": "Bilirubin.total [Presence] in Urine by Test strip"
        },
        "text": {
          "status": "generated",
          "div": "<div xmlns=\"http://www.w3.org/1999/xhtml\"><table class=\"hl7__eu__lab__report\"><tr><th>Test</th><th>18-Mar-2020</th><th>Reference&#xA0;Range</th><th>Unit</th></tr><tr><td>Bilirubin.total [Presence] in Urine by Test strip</td></tr></table></div>"
        },
        "status": "final",
        "subject": {
          "reference": "urn:uuid:b88df853-e558-4b55-bd8c-f89d9dc5782f",
          "display": "Θεμιστοκλής Λιναρδάκη"
        },
        "effectiveDateTime": "2020-03-18T06:16:00Z",
        "specimen": {
          "reference": "urn:uuid:01c85570-29e8-4c7f-ad12-a3bdce14957e"
        }
      }
    },
    {
      "fullUrl": "urn:uuid:a4e86a17-8697-45e8-90d9-96f06621cd49",
      "resource": {
        "resourceType": "Observation",
        "id": "a4e86a17-8697-45e8-90d9-96f06621cd49",
        "meta": {
          "profile": [
            "http://hl7.eu/fhir/laboratory/StructureDefinition/Observation-resultslab-eu-lab"
          ]
        },
        "performer": [
          {
            "display": "The Central European Lab"
          }
        ],
        "category": [
          {
            "coding": [
              {
                "system": "http://terminology.hl7.org/CodeSystem/observation-category",
                "code": "laboratory"
              }
            ]
          }
        ],
        "code": {
          "coding": [
            {
              "code": "5797-6",
              "system": "http://loinc.org",
              "display": "Ketones [Mass/volume] in Urine by Test strip"
            }
          ],
          "text": "Ketones [Mass/volume] in Urine by Test strip"
        },
        "valueQuantity": {
          "system": "http://unitsofmeasure.org",
          "value": 10.2,
          "unit": "mg/dL",
          "code": "mg/dL"
        },
        "referenceRange": [
          {
            "low": {
              "value": 0,
              "code": "mg/dL",
              "system": "http://unitsofmeasure.org"
            }
          },
          {
            "high": {
              "value": 5,
              "code": "mg/dL",
              "system": "http://unitsofmeasure.org"
            }
          }
        ],
        "interpretation": [
          {
            "coding": [
              {
                "code": "H",
                "system": "http://terminology.hl7.org/CodeSystem/v3-ObservationInterpretation",
                "display": "High"
              }
            ]
          }
        ],
        "text": {
          "status": "generated",
          "div": "<div xmlns=\"http://www.w3.org/1999/xhtml\"><table class=\"hl7__eu__lab__report\"><tr><th>Test</th><th>18-Mar-2020</th><th>Reference&#xA0;Range</th><th>Unit</th></tr><tr><td>Ketones [Mass/volume] in Urine by Test strip</td><td>10.2</td><td>0 - 5</td><td>H</td><td>mg/dL</td></tr></table></div>"
        },
        "status": "final",
        "subject": {
          "reference": "urn:uuid:b88df853-e558-4b55-bd8c-f89d9dc5782f",
          "display": "Θεμιστοκλής Λιναρδάκη"
        },
        "effectiveDateTime": "2020-03-18T06:16:00Z",
        "specimen": {
          "reference": "urn:uuid:01c85570-29e8-4c7f-ad12-a3bdce14957e"
        }
      }
    },
    {
      "fullUrl": "urn:uuid:de4d94cc-a5ab-484f-bc4f-48d5b34d2a89",
      "resource": {
        "resourceType": "Observation",
        "id": "de4d94cc-a5ab-484f-bc4f-48d5b34d2a89",
        "meta": {
          "profile": [
            "http://hl7.eu/fhir/laboratory/StructureDefinition/Observation-resultslab-eu-lab"
          ]
        },
        "performer": [
          {
            "display": "The Central European Lab"
          }
        ],
        "category": [
          {
            "coding": [
              {
                "system": "http://terminology.hl7.org/CodeSystem/observation-category",
                "code": "laboratory"
              }
            ]
          }
        ],
        "code": {
          "coding": [
            {
              "code": "2514-8",
              "system": "http://loinc.org",
              "display": "Ketones [Presence] in Urine by Test strip"
            }
          ],
          "text": "Ketones [Presence] in Urine by Test strip"
        },
        "text": {
          "status": "generated",
          "div": "<div xmlns=\"http://www.w3.org/1999/xhtml\"><table class=\"hl7__eu__lab__report\"><tr><th>Test</th><th>18-Mar-2020</th><th>Reference&#xA0;Range</th><th>Unit</th></tr><tr><td>Ketones [Presence] in Urine by Test strip</td></tr></table></div>"
        },
        "status": "final",
        "subject": {
          "reference": "urn:uuid:b88df853-e558-4b55-bd8c-f89d9dc5782f",
          "display": "Θεμιστοκλής Λιναρδάκη"
        },
        "effectiveDateTime": "2020-03-18T06:16:00Z",
        "specimen": {
          "reference": "urn:uuid:01c85570-29e8-4c7f-ad12-a3bdce14957e"
        }
      }
    },
    {
      "fullUrl": "urn:uuid:e3bcead6-af1b-40c0-bad6-736f01296b18",
      "resource": {
        "resourceType": "Observation",
        "id": "e3bcead6-af1b-40c0-bad6-736f01296b18",
        "meta": {
          "profile": [
            "http://hl7.eu/fhir/laboratory/StructureDefinition/Observation-resultslab-eu-lab"
          ]
        },
        "performer": [
          {
            "display": "The Central European Lab"
          }
        ],
        "category": [
          {
            "coding": [
              {
                "system": "http://terminology.hl7.org/CodeSystem/observation-category",
                "code": "laboratory"
              }
            ]
          }
        ],
        "code": {
          "coding": [
            {
              "code": "5811-5",
              "system": "http://loinc.org",
              "display": "Specific gravity of Urine by Test strip"
            }
          ],
          "text": "Specific gravity of Urine by Test strip"
        },
        "valueQuantity": {
          "system": "http://unitsofmeasure.org",
          "value": 1,
          "unit": "{nominal}",
          "code": "{nominal}"
        },
        "referenceRange": [
          {
            "low": {
              "value": 1.005,
              "code": "g/mL",
              "system": "http://unitsofmeasure.org"
            }
          },
          {
            "high": {
              "value": 1.03,
              "code": "g/mL",
              "system": "http://unitsofmeasure.org"
            }
          }
        ],
        "interpretation": [
          {
            "coding": [
              {
                "code": "L",
                "system": "http://terminology.hl7.org/CodeSystem/v3-ObservationInterpretation",
                "display": "Low"
              }
            ]
          }
        ],
        "text": {
          "status": "generated",
          "div": "<div xmlns=\"http://www.w3.org/1999/xhtml\"><table class=\"hl7__eu__lab__report\"><tr><th>Test</th><th>18-Mar-2020</th><th>Reference&#xA0;Range</th><th>Unit</th></tr><tr><td>Specific gravity of Urine by Test strip</td><td>1.0</td><td>1.005 - 1.03</td><td>L</td><td>{nominal}</td></tr></table></div>"
        },
        "status": "final",
        "subject": {
          "reference": "urn:uuid:b88df853-e558-4b55-bd8c-f89d9dc5782f",
          "display": "Θεμιστοκλής Λιναρδάκη"
        },
        "effectiveDateTime": "2020-03-18T06:16:00Z",
        "specimen": {
          "reference": "urn:uuid:01c85570-29e8-4c7f-ad12-a3bdce14957e"
        }
      }
    },
    {
      "fullUrl": "urn:uuid:1dcc76eb-0d25-433e-9448-7a2849ffb921",
      "resource": {
        "resourceType": "Observation",
        "id": "1dcc76eb-0d25-433e-9448-7a2849ffb921",
        "meta": {
          "profile": [
            "http://hl7.eu/fhir/laboratory/StructureDefinition/Observation-resultslab-eu-lab"
          ]
        },
        "performer": [
          {
            "display": "The Central European Lab"
          }
        ],
        "category": [
          {
            "coding": [
              {
                "system": "http://terminology.hl7.org/CodeSystem/observation-category",
                "code": "laboratory"
              }
            ]
          }
        ],
        "code": {
          "coding": [
            {
              "code": "5803-2",
              "system": "http://loinc.org",
              "display": "pH of Urine by Test strip"
            }
          ],
          "text": "pH of Urine by Test strip"
        },
        "valueQuantity": {
          "system": "http://unitsofmeasure.org",
          "value": 6.3,
          "unit": "pH",
          "code": "pH"
        },
        "referenceRange": [
          {
            "low": {
              "value": 4.6,
              "code": "pH",
              "system": "http://unitsofmeasure.org"
            }
          },
          {
            "high": {
              "value": 7,
              "code": "pH",
              "system": "http://unitsofmeasure.org"
            }
          }
        ],
        "text": {
          "status": "generated",
          "div": "<div xmlns=\"http://www.w3.org/1999/xhtml\"><table class=\"hl7__eu__lab__report\"><tr><th>Test</th><th>18-Mar-2020</th><th>Reference&#xA0;Range</th><th>Unit</th></tr><tr><td>pH of Urine by Test strip</td><td>6.3</td><td>4.6 - 7</td><td></td><td>pH</td></tr></table></div>"
        },
        "status": "final",
        "subject": {
          "reference": "urn:uuid:b88df853-e558-4b55-bd8c-f89d9dc5782f",
          "display": "Θεμιστοκλής Λιναρδάκη"
        },
        "effectiveDateTime": "2020-03-18T06:16:00Z",
        "specimen": {
          "reference": "urn:uuid:01c85570-29e8-4c7f-ad12-a3bdce14957e"
        }
      }
    },
    {
      "fullUrl": "urn:uuid:bd822f9c-c4e2-46c4-a50f-610caf76f992",
      "resource": {
        "resourceType": "Observation",
        "id": "bd822f9c-c4e2-46c4-a50f-610caf76f992",
        "meta": {
          "profile": [
            "http://hl7.eu/fhir/laboratory/StructureDefinition/Observation-resultslab-eu-lab"
          ]
        },
        "performer": [
          {
            "display": "The Central European Lab"
          }
        ],
        "category": [
          {
            "coding": [
              {
                "system": "http://terminology.hl7.org/CodeSystem/observation-category",
                "code": "laboratory"
              }
            ]
          }
        ],
        "code": {
          "coding": [
            {
              "code": "5804-0",
              "system": "http://loinc.org",
              "display": "Protein [Mass/volume] in Urine by Test strip"
            }
          ],
          "text": "Protein [Mass/volume] in Urine by Test strip"
        },
        "valueQuantity": {
          "system": "http://unitsofmeasure.org",
          "value": 392.4,
          "unit": "mg/dL",
          "code": "mg/dL"
        },
        "referenceRange": [
          {
            "low": {
              "value": 0,
              "code": "mg/dL",
              "system": "http://unitsofmeasure.org"
            }
          },
          {
            "high": {
              "value": 150,
              "code": "mg/dL",
              "system": "http://unitsofmeasure.org"
            }
          }
        ],
        "interpretation": [
          {
            "coding": [
              {
                "code": "H",
                "system": "http://terminology.hl7.org/CodeSystem/v3-ObservationInterpretation",
                "display": "High"
              }
            ]
          }
        ],
        "text": {
          "status": "generated",
          "div": "<div xmlns=\"http://www.w3.org/1999/xhtml\"><table class=\"hl7__eu__lab__report\"><tr><th>Test</th><th>18-Mar-2020</th><th>Reference&#xA0;Range</th><th>Unit</th></tr><tr><td>Protein [Mass/volume] in Urine by Test strip</td><td>392.4</td><td>0 - 150</td><td>H</td><td>mg/dL</td></tr></table></div>"
        },
        "status": "final",
        "subject": {
          "reference": "urn:uuid:b88df853-e558-4b55-bd8c-f89d9dc5782f",
          "display": "Θεμιστοκλής Λιναρδάκη"
        },
        "effectiveDateTime": "2020-03-18T06:16:00Z",
        "specimen": {
          "reference": "urn:uuid:01c85570-29e8-4c7f-ad12-a3bdce14957e"
        }
      }
    },
    {
      "fullUrl": "urn:uuid:322afb63-a23d-4d49-9bb1-ed35a8b5d355",
      "resource": {
        "resourceType": "Observation",
        "id": "322afb63-a23d-4d49-9bb1-ed35a8b5d355",
        "meta": {
          "profile": [
            "http://hl7.eu/fhir/laboratory/StructureDefinition/Observation-resultslab-eu-lab"
          ]
        },
        "performer": [
          {
            "display": "The Central European Lab"
          }
        ],
        "category": [
          {
            "coding": [
              {
                "system": "http://terminology.hl7.org/CodeSystem/observation-category",
                "code": "laboratory"
              }
            ]
          }
        ],
        "code": {
          "coding": [
            {
              "code": "20454-5",
              "system": "http://loinc.org",
              "display": "Protein [Presence] in Urine by Test strip"
            }
          ],
          "text": "Protein [Presence] in Urine by Test strip"
        },
        "text": {
          "status": "generated",
          "div": "<div xmlns=\"http://www.w3.org/1999/xhtml\"><table class=\"hl7__eu__lab__report\"><tr><th>Test</th><th>18-Mar-2020</th><th>Reference&#xA0;Range</th><th>Unit</th></tr><tr><td>Protein [Presence] in Urine by Test strip</td></tr></table></div>"
        },
        "status": "final",
        "subject": {
          "reference": "urn:uuid:b88df853-e558-4b55-bd8c-f89d9dc5782f",
          "display": "Θεμιστοκλής Λιναρδάκη"
        },
        "effectiveDateTime": "2020-03-18T06:16:00Z",
        "specimen": {
          "reference": "urn:uuid:01c85570-29e8-4c7f-ad12-a3bdce14957e"
        }
      }
    },
    {
      "fullUrl": "urn:uuid:63312444-5d2b-4716-9ca6-a4f76268c20c",
      "resource": {
        "resourceType": "Observation",
        "id": "63312444-5d2b-4716-9ca6-a4f76268c20c",
        "meta": {
          "profile": [
            "http://hl7.eu/fhir/laboratory/StructureDefinition/Observation-resultslab-eu-lab"
          ]
        },
        "performer": [
          {
            "display": "The Central European Lab"
          }
        ],
        "category": [
          {
            "coding": [
              {
                "system": "http://terminology.hl7.org/CodeSystem/observation-category",
                "code": "laboratory"
              }
            ]
          }
        ],
        "code": {
          "coding": [
            {
              "code": "5802-4",
              "system": "http://loinc.org",
              "display": "Nitrite [Presence] in Urine by Test strip"
            }
          ],
          "text": "Nitrite [Presence] in Urine by Test strip"
        },
        "text": {
          "status": "generated",
          "div": "<div xmlns=\"http://www.w3.org/1999/xhtml\"><table class=\"hl7__eu__lab__report\"><tr><th>Test</th><th>18-Mar-2020</th><th>Reference&#xA0;Range</th><th>Unit</th></tr><tr><td>Nitrite [Presence] in Urine by Test strip</td></tr></table></div>"
        },
        "status": "final",
        "subject": {
          "reference": "urn:uuid:b88df853-e558-4b55-bd8c-f89d9dc5782f",
          "display": "Θεμιστοκλής Λιναρδάκη"
        },
        "effectiveDateTime": "2020-03-18T06:16:00Z",
        "specimen": {
          "reference": "urn:uuid:01c85570-29e8-4c7f-ad12-a3bdce14957e"
        }
      }
    },
    {
      "fullUrl": "urn:uuid:fa5aa36b-4c72-453f-8264-0af4b9821c77",
      "resource": {
        "resourceType": "Observation",
        "id": "fa5aa36b-4c72-453f-8264-0af4b9821c77",
        "meta": {
          "profile": [
            "http://hl7.eu/fhir/laboratory/StructureDefinition/Observation-resultslab-eu-lab"
          ]
        },
        "performer": [
          {
            "display": "The Central European Lab"
          }
        ],
        "category": [
          {
            "coding": [
              {
                "system": "http://terminology.hl7.org/CodeSystem/observation-category",
                "code": "laboratory"
              }
            ]
          }
        ],
        "code": {
          "coding": [
            {
              "code": "5794-3",
              "system": "http://loinc.org",
              "display": "Hemoglobin [Presence] in Urine by Test strip"
            }
          ],
          "text": "Hemoglobin [Presence] in Urine by Test strip"
        },
        "text": {
          "status": "generated",
          "div": "<div xmlns=\"http://www.w3.org/1999/xhtml\"><table class=\"hl7__eu__lab__report\"><tr><th>Test</th><th>18-Mar-2020</th><th>Reference&#xA0;Range</th><th>Unit</th></tr><tr><td>Hemoglobin [Presence] in Urine by Test strip</td></tr></table></div>"
        },
        "status": "final",
        "subject": {
          "reference": "urn:uuid:b88df853-e558-4b55-bd8c-f89d9dc5782f",
          "display": "Θεμιστοκλής Λιναρδάκη"
        },
        "effectiveDateTime": "2020-03-18T06:16:00Z",
        "specimen": {
          "reference": "urn:uuid:01c85570-29e8-4c7f-ad12-a3bdce14957e"
        }
      }
    },
    {
      "fullUrl": "urn:uuid:a01ddf12-593e-40d7-974f-7c36d101aafe",
      "resource": {
        "resourceType": "Observation",
        "id": "a01ddf12-593e-40d7-974f-7c36d101aafe",
        "meta": {
          "profile": [
            "http://hl7.eu/fhir/laboratory/StructureDefinition/Observation-resultslab-eu-lab"
          ]
        },
        "performer": [
          {
            "display": "The Central European Lab"
          }
        ],
        "category": [
          {
            "coding": [
              {
                "system": "http://terminology.hl7.org/CodeSystem/observation-category",
                "code": "laboratory"
              }
            ]
          }
        ],
        "code": {
          "coding": [
            {
              "code": "5799-2",
              "system": "http://loinc.org",
              "display": "Leukocyte esterase [Presence] in Urine by Test strip"
            }
          ],
          "text": "Leukocyte esterase [Presence] in Urine by Test strip"
        },
        "text": {
          "status": "generated",
          "div": "<div xmlns=\"http://www.w3.org/1999/xhtml\"><table class=\"hl7__eu__lab__report\"><tr><th>Test</th><th>18-Mar-2020</th><th>Reference&#xA0;Range</th><th>Unit</th></tr><tr><td>Leukocyte esterase [Presence] in Urine by Test strip</td></tr></table></div>"
        },
        "status": "final",
        "subject": {
          "reference": "urn:uuid:b88df853-e558-4b55-bd8c-f89d9dc5782f",
          "display": "Θεμιστοκλής Λιναρδάκη"
        },
        "effectiveDateTime": "2020-03-18T06:16:00Z",
        "specimen": {
          "reference": "urn:uuid:01c85570-29e8-4c7f-ad12-a3bdce14957e"
        }
      }
    },
    {
      "fullUrl": "urn:uuid:3100b436-c00b-43fb-aa1d-cb5f6330daa2",
      "resource": {
        "resourceType": "Observation",
        "id": "3100b436-c00b-43fb-aa1d-cb5f6330daa2",
        "meta": {
          "profile": [
            "http://hl7.eu/fhir/laboratory/StructureDefinition/Observation-resultslab-eu-lab"
          ]
        },
        "performer": [
          {
            "display": "The Central European Lab"
          }
        ],
        "category": [
          {
            "coding": [
              {
                "system": "http://terminology.hl7.org/CodeSystem/observation-category",
                "code": "laboratory"
              }
            ]
          }
        ],
        "code": {
          "coding": [
            {
              "code": "4548-4",
              "system": "http://loinc.org",
              "display": "Hemoglobin A1c/Hemoglobin.total in Blood"
            }
          ],
          "text": "Hemoglobin A1c/Hemoglobin.total in Blood"
        },
        "valueQuantity": {
          "system": "http://unitsofmeasure.org",
          "value": 3.2,
          "unit": "%",
          "code": "%"
        },
        "referenceRange": [
          {
            "low": {
              "value": 4.3,
              "code": "%",
              "system": "http://unitsofmeasure.org"
            }
          },
          {
            "high": {
              "value": 6.4,
              "code": "%",
              "system": "http://unitsofmeasure.org"
            }
          }
        ],
        "interpretation": [
          {
            "coding": [
              {
                "code": "L",
                "system": "http://terminology.hl7.org/CodeSystem/v3-ObservationInterpretation",
                "display": "Low"
              }
            ]
          }
        ],
        "text": {
          "status": "generated",
          "div": "<div xmlns=\"http://www.w3.org/1999/xhtml\"><table class=\"hl7__eu__lab__report\"><tr><th>Test</th><th>18-Mar-2020</th><th>Reference&#xA0;Range</th><th>Unit</th></tr><tr><td>Hemoglobin A1c/Hemoglobin.total in Blood</td><td>3.2</td><td>4.3 - 6.4</td><td>L</td><td>%</td></tr></table></div>"
        },
        "status": "final",
        "subject": {
          "reference": "urn:uuid:b88df853-e558-4b55-bd8c-f89d9dc5782f",
          "display": "Θεμιστοκλής Λιναρδάκη"
        },
        "effectiveDateTime": "2020-03-18T06:16:00Z",
        "specimen": {
          "reference": "urn:uuid:dd64b8d5-f27b-4837-a89b-b50e07af58a2"
        }
      }
    },
    {
      "fullUrl": "urn:uuid:c6ff9d4b-5a00-4788-bd44-0345fcd2cf7d",
      "resource": {
        "resourceType": "Observation",
        "id": "c6ff9d4b-5a00-4788-bd44-0345fcd2cf7d",
        "meta": {
          "profile": [
            "http://hl7.eu/fhir/laboratory/StructureDefinition/Observation-resultslab-eu-lab"
          ]
        },
        "performer": [
          {
            "display": "The Central European Lab"
          }
        ],
        "category": [
          {
            "coding": [
              {
                "system": "http://terminology.hl7.org/CodeSystem/observation-category",
                "code": "laboratory"
              }
            ]
          }
        ],
        "code": {
          "coding": [
            {
              "code": "2339-0",
              "system": "http://loinc.org",
              "display": "Glucose [Mass/volume] in Blood"
            }
          ],
          "text": "Glucose [Mass/volume] in Blood"
        },
        "valueQuantity": {
          "system": "http://unitsofmeasure.org",
          "value": 86.9,
          "unit": "mg/dL",
          "code": "mg/dL"
        },
        "referenceRange": [
          {
            "low": {
              "value": 70,
              "code": "mg/dL",
              "system": "http://unitsofmeasure.org"
            }
          },
          {
            "high": {
              "value": 140,
              "code": "mg/dL",
              "system": "http://unitsofmeasure.org"
            }
          }
        ],
        "text": {
          "status": "generated",
          "div": "<div xmlns=\"http://www.w3.org/1999/xhtml\"><table class=\"hl7__eu__lab__report\"><tr><th>Test</th><th>18-Mar-2020</th><th>Reference&#xA0;Range</th><th>Unit</th></tr><tr><td>Glucose [Mass/volume] in Blood</td><td>86.9</td><td>70 - 140</td><td></td><td>mg/dL</td></tr></table></div>"
        },
        "status": "final",
        "subject": {
          "reference": "urn:uuid:b88df853-e558-4b55-bd8c-f89d9dc5782f",
          "display": "Θεμιστοκλής Λιναρδάκη"
        },
        "effectiveDateTime": "2020-03-18T06:16:00Z",
        "specimen": {
          "reference": "urn:uuid:dd64b8d5-f27b-4837-a89b-b50e07af58a2"
        }
      }
    },
    {
      "fullUrl": "urn:uuid:0575cbfb-e58b-41b6-9cdc-7ac6ea283fa2",
      "resource": {
        "resourceType": "Observation",
        "id": "0575cbfb-e58b-41b6-9cdc-7ac6ea283fa2",
        "meta": {
          "profile": [
            "http://hl7.eu/fhir/laboratory/StructureDefinition/Observation-resultslab-eu-lab"
          ]
        },
        "performer": [
          {
            "display": "The Central European Lab"
          }
        ],
        "category": [
          {
            "coding": [
              {
                "system": "http://terminology.hl7.org/CodeSystem/observation-category",
                "code": "laboratory"
              }
            ]
          }
        ],
        "code": {
          "coding": [
            {
              "code": "6299-2",
              "system": "http://loinc.org",
              "display": "Urea nitrogen [Mass/volume] in Blood"
            }
          ],
          "text": "Urea nitrogen [Mass/volume] in Blood"
        },
        "valueQuantity": {
          "system": "http://unitsofmeasure.org",
          "value": 17.5,
          "unit": "mg/dL",
          "code": "mg/dL"
        },
        "referenceRange": [
          {
            "low": {
              "value": 7,
              "code": "mg/dL",
              "system": "http://unitsofmeasure.org"
            }
          },
          {
            "high": {
              "value": 20,
              "code": "mg/dL",
              "system": "http://unitsofmeasure.org"
            }
          }
        ],
        "text": {
          "status": "generated",
          "div": "<div xmlns=\"http://www.w3.org/1999/xhtml\"><table class=\"hl7__eu__lab__report\"><tr><th>Test</th><th>18-Mar-2020</th><th>Reference&#xA0;Range</th><th>Unit</th></tr><tr><td>Urea nitrogen [Mass/volume] in Blood</td><td>17.5</td><td>7 - 20</td><td></td><td>mg/dL</td></tr></table></div>"
        },
        "status": "final",
        "subject": {
          "reference": "urn:uuid:b88df853-e558-4b55-bd8c-f89d9dc5782f",
          "display": "Θεμιστοκλής Λιναρδάκη"
        },
        "effectiveDateTime": "2020-03-18T06:16:00Z",
        "specimen": {
          "reference": "urn:uuid:dd64b8d5-f27b-4837-a89b-b50e07af58a2"
        }
      }
    },
    {
      "fullUrl": "urn:uuid:7497d623-b1df-4ef0-a1b2-b56489956cbf",
      "resource": {
        "resourceType": "Observation",
        "id": "7497d623-b1df-4ef0-a1b2-b56489956cbf",
        "meta": {
          "profile": [
            "http://hl7.eu/fhir/laboratory/StructureDefinition/Observation-resultslab-eu-lab"
          ]
        },
        "performer": [
          {
            "display": "The Central European Lab"
          }
        ],
        "category": [
          {
            "coding": [
              {
                "system": "http://terminology.hl7.org/CodeSystem/observation-category",
                "code": "laboratory"
              }
            ]
          }
        ],
        "code": {
          "coding": [
            {
              "code": "38483-4",
              "system": "http://loinc.org",
              "display": "Creatinine [Mass/volume] in Blood"
            }
          ],
          "text": "Creatinine [Mass/volume] in Blood"
        },
        "valueQuantity": {
          "system": "http://unitsofmeasure.org",
          "value": 4.8,
          "unit": "mg/dL",
          "code": "mg/dL"
        },
        "referenceRange": [
          {
            "low": {
              "value": 0.6,
              "code": "mg/dL",
              "system": "http://unitsofmeasure.org"
            }
          },
          {
            "high": {
              "value": 1.3,
              "code": "mg/dL",
              "system": "http://unitsofmeasure.org"
            }
          }
        ],
        "interpretation": [
          {
            "coding": [
              {
                "code": "H",
                "system": "http://terminology.hl7.org/CodeSystem/v3-ObservationInterpretation",
                "display": "High"
              }
            ]
          }
        ],
        "text": {
          "status": "generated",
          "div": "<div xmlns=\"http://www.w3.org/1999/xhtml\"><table class=\"hl7__eu__lab__report\"><tr><th>Test</th><th>18-Mar-2020</th><th>Reference&#xA0;Range</th><th>Unit</th></tr><tr><td>Creatinine [Mass/volume] in Blood</td><td>4.8</td><td>0.6 - 1.3</td><td>H</td><td>mg/dL</td></tr></table></div>"
        },
        "status": "final",
        "subject": {
          "reference": "urn:uuid:b88df853-e558-4b55-bd8c-f89d9dc5782f",
          "display": "Θεμιστοκλής Λιναρδάκη"
        },
        "effectiveDateTime": "2020-03-18T06:16:00Z",
        "specimen": {
          "reference": "urn:uuid:dd64b8d5-f27b-4837-a89b-b50e07af58a2"
        }
      }
    },
    {
      "fullUrl": "urn:uuid:5c7fbe96-5f2f-45c8-94ae-f7eb50c38560",
      "resource": {
        "resourceType": "Observation",
        "id": "5c7fbe96-5f2f-45c8-94ae-f7eb50c38560",
        "meta": {
          "profile": [
            "http://hl7.eu/fhir/laboratory/StructureDefinition/Observation-resultslab-eu-lab"
          ]
        },
        "performer": [
          {
            "display": "The Central European Lab"
          }
        ],
        "category": [
          {
            "coding": [
              {
                "system": "http://terminology.hl7.org/CodeSystem/observation-category",
                "code": "laboratory"
              }
            ]
          }
        ],
        "code": {
          "coding": [
            {
              "code": "49765-1",
              "system": "http://loinc.org",
              "display": "Calcium [Mass/volume] in Blood"
            }
          ],
          "text": "Calcium [Mass/volume] in Blood"
        },
        "valueQuantity": {
          "system": "http://unitsofmeasure.org",
          "value": 9.8,
          "unit": "mg/dL",
          "code": "mg/dL"
        },
        "referenceRange": [
          {
            "low": {
              "value": 8.5,
              "code": "mg/dL",
              "system": "http://unitsofmeasure.org"
            }
          },
          {
            "high": {
              "value": 10.5,
              "code": "mg/dL",
              "system": "http://unitsofmeasure.org"
            }
          }
        ],
        "text": {
          "status": "generated",
          "div": "<div xmlns=\"http://www.w3.org/1999/xhtml\"><table class=\"hl7__eu__lab__report\"><tr><th>Test</th><th>18-Mar-2020</th><th>Reference&#xA0;Range</th><th>Unit</th></tr><tr><td>Calcium [Mass/volume] in Blood</td><td>9.8</td><td>8.5 - 10.5</td><td></td><td>mg/dL</td></tr></table></div>"
        },
        "status": "final",
        "subject": {
          "reference": "urn:uuid:b88df853-e558-4b55-bd8c-f89d9dc5782f",
          "display": "Θεμιστοκλής Λιναρδάκη"
        },
        "effectiveDateTime": "2020-03-18T06:16:00Z",
        "specimen": {
          "reference": "urn:uuid:dd64b8d5-f27b-4837-a89b-b50e07af58a2"
        }
      }
    },
    {
      "fullUrl": "urn:uuid:1938caf6-874d-4bb2-bd41-9196dd69ba50",
      "resource": {
        "resourceType": "Observation",
        "id": "1938caf6-874d-4bb2-bd41-9196dd69ba50",
        "meta": {
          "profile": [
            "http://hl7.eu/fhir/laboratory/StructureDefinition/Observation-resultslab-eu-lab"
          ]
        },
        "performer": [
          {
            "display": "The Central European Lab"
          }
        ],
        "category": [
          {
            "coding": [
              {
                "system": "http://terminology.hl7.org/CodeSystem/observation-category",
                "code": "laboratory"
              }
            ]
          }
        ],
        "code": {
          "coding": [
            {
              "code": "2947-0",
              "system": "http://loinc.org",
              "display": "Sodium [Moles/volume] in Blood"
            }
          ],
          "text": "Sodium [Moles/volume] in Blood"
        },
        "valueQuantity": {
          "system": "http://unitsofmeasure.org",
          "value": 136.7,
          "unit": "mmol/L",
          "code": "mmol/L"
        },
        "referenceRange": [
          {
            "low": {
              "value": 135,
              "code": "mmol/L",
              "system": "http://unitsofmeasure.org"
            }
          },
          {
            "high": {
              "value": 145,
              "code": "mmol/L",
              "system": "http://unitsofmeasure.org"
            }
          }
        ],
        "text": {
          "status": "generated",
          "div": "<div xmlns=\"http://www.w3.org/1999/xhtml\"><table class=\"hl7__eu__lab__report\"><tr><th>Test</th><th>18-Mar-2020</th><th>Reference&#xA0;Range</th><th>Unit</th></tr><tr><td>Sodium [Moles/volume] in Blood</td><td>136.7</td><td>135 - 145</td><td></td><td>mmol/L</td></tr></table></div>"
        },
        "status": "final",
        "subject": {
          "reference": "urn:uuid:b88df853-e558-4b55-bd8c-f89d9dc5782f",
          "display": "Θεμιστοκλής Λιναρδάκη"
        },
        "effectiveDateTime": "2020-03-18T06:16:00Z",
        "specimen": {
          "reference": "urn:uuid:dd64b8d5-f27b-4837-a89b-b50e07af58a2"
        }
      }
    },
    {
      "fullUrl": "urn:uuid:ef6a0694-d68d-49e0-b2cb-48de0ef8ee80",
      "resource": {
        "resourceType": "Observation",
        "id": "ef6a0694-d68d-49e0-b2cb-48de0ef8ee80",
        "meta": {
          "profile": [
            "http://hl7.eu/fhir/laboratory/StructureDefinition/Observation-resultslab-eu-lab"
          ]
        },
        "performer": [
          {
            "display": "The Central European Lab"
          }
        ],
        "category": [
          {
            "coding": [
              {
                "system": "http://terminology.hl7.org/CodeSystem/observation-category",
                "code": "laboratory"
              }
            ]
          }
        ],
        "code": {
          "coding": [
            {
              "code": "6298-4",
              "system": "http://loinc.org",
              "display": "Potassium [Moles/volume] in Blood"
            }
          ],
          "text": "Potassium [Moles/volume] in Blood"
        },
        "valueQuantity": {
          "system": "http://unitsofmeasure.org",
          "value": 4.3,
          "unit": "mmol/L",
          "code": "mmol/L"
        },
        "referenceRange": [
          {
            "low": {
              "value": 3.5,
              "code": "mmol/L",
              "system": "http://unitsofmeasure.org"
            }
          },
          {
            "high": {
              "value": 5.3,
              "code": "mmol/L",
              "system": "http://unitsofmeasure.org"
            }
          }
        ],
        "text": {
          "status": "generated",
          "div": "<div xmlns=\"http://www.w3.org/1999/xhtml\"><table class=\"hl7__eu__lab__report\"><tr><th>Test</th><th>18-Mar-2020</th><th>Reference&#xA0;Range</th><th>Unit</th></tr><tr><td>Potassium [Moles/volume] in Blood</td><td>4.3</td><td>3.5 - 5.3</td><td></td><td>mmol/L</td></tr></table></div>"
        },
        "status": "final",
        "subject": {
          "reference": "urn:uuid:b88df853-e558-4b55-bd8c-f89d9dc5782f",
          "display": "Θεμιστοκλής Λιναρδάκη"
        },
        "effectiveDateTime": "2020-03-18T06:16:00Z",
        "specimen": {
          "reference": "urn:uuid:dd64b8d5-f27b-4837-a89b-b50e07af58a2"
        }
      }
    },
    {
      "fullUrl": "urn:uuid:355265e9-b347-4693-a50e-dd8cf24d43d3",
      "resource": {
        "resourceType": "Observation",
        "id": "355265e9-b347-4693-a50e-dd8cf24d43d3",
        "meta": {
          "profile": [
            "http://hl7.eu/fhir/laboratory/StructureDefinition/Observation-resultslab-eu-lab"
          ]
        },
        "performer": [
          {
            "display": "The Central European Lab"
          }
        ],
        "category": [
          {
            "coding": [
              {
                "system": "http://terminology.hl7.org/CodeSystem/observation-category",
                "code": "laboratory"
              }
            ]
          }
        ],
        "code": {
          "coding": [
            {
              "code": "2069-3",
              "system": "http://loinc.org",
              "display": "Chloride [Moles/volume] in Blood"
            }
          ],
          "text": "Chloride [Moles/volume] in Blood"
        },
        "valueQuantity": {
          "system": "http://unitsofmeasure.org",
          "value": 107.8,
          "unit": "mmol/L",
          "code": "mmol/L"
        },
        "referenceRange": [
          {
            "low": {
              "value": 98,
              "code": "mmol/L",
              "system": "http://unitsofmeasure.org"
            }
          },
          {
            "high": {
              "value": 110,
              "code": "mmol/L",
              "system": "http://unitsofmeasure.org"
            }
          }
        ],
        "text": {
          "status": "generated",
          "div": "<div xmlns=\"http://www.w3.org/1999/xhtml\"><table class=\"hl7__eu__lab__report\"><tr><th>Test</th><th>18-Mar-2020</th><th>Reference&#xA0;Range</th><th>Unit</th></tr><tr><td>Chloride [Moles/volume] in Blood</td><td>107.8</td><td>98 - 110</td><td></td><td>mmol/L</td></tr></table></div>"
        },
        "status": "final",
        "subject": {
          "reference": "urn:uuid:b88df853-e558-4b55-bd8c-f89d9dc5782f",
          "display": "Θεμιστοκλής Λιναρδάκη"
        },
        "effectiveDateTime": "2020-03-18T06:16:00Z",
        "specimen": {
          "reference": "urn:uuid:dd64b8d5-f27b-4837-a89b-b50e07af58a2"
        }
      }
    },
    {
      "fullUrl": "urn:uuid:65607c5f-26a3-4b65-95d4-d3283cbdb5d0",
      "resource": {
        "resourceType": "Observation",
        "id": "65607c5f-26a3-4b65-95d4-d3283cbdb5d0",
        "meta": {
          "profile": [
            "http://hl7.eu/fhir/laboratory/StructureDefinition/Observation-resultslab-eu-lab"
          ]
        },
        "performer": [
          {
            "display": "The Central European Lab"
          }
        ],
        "category": [
          {
            "coding": [
              {
                "system": "http://terminology.hl7.org/CodeSystem/observation-category",
                "code": "laboratory"
              }
            ]
          }
        ],
        "code": {
          "coding": [
            {
              "code": "20565-8",
              "system": "http://loinc.org",
              "display": "Carbon dioxide, total [Moles/volume] in Blood"
            }
          ],
          "text": "Carbon dioxide, total [Moles/volume] in Blood"
        },
        "valueQuantity": {
          "system": "http://unitsofmeasure.org",
          "value": 28.6,
          "unit": "mmol/L",
          "code": "mmol/L"
        },
        "referenceRange": [
          {
            "low": {
              "value": 22,
              "code": "mmol/L",
              "system": "http://unitsofmeasure.org"
            }
          },
          {
            "high": {
              "value": 29,
              "code": "mmol/L",
              "system": "http://unitsofmeasure.org"
            }
          }
        ],
        "text": {
          "status": "generated",
          "div": "<div xmlns=\"http://www.w3.org/1999/xhtml\"><table class=\"hl7__eu__lab__report\"><tr><th>Test</th><th>18-Mar-2020</th><th>Reference&#xA0;Range</th><th>Unit</th></tr><tr><td>Carbon dioxide, total [Moles/volume] in Blood</td><td>28.6</td><td>22 - 29</td><td></td><td>mmol/L</td></tr></table></div>"
        },
        "status": "final",
        "subject": {
          "reference": "urn:uuid:b88df853-e558-4b55-bd8c-f89d9dc5782f",
          "display": "Θεμιστοκλής Λιναρδάκη"
        },
        "effectiveDateTime": "2020-03-18T06:16:00Z",
        "specimen": {
          "reference": "urn:uuid:dd64b8d5-f27b-4837-a89b-b50e07af58a2"
        }
      }
    },
    {
      "fullUrl": "urn:uuid:08ee0042-4620-4da1-9d75-f48ef9b10e14",
      "resource": {
        "resourceType": "Device",
        "id": "08ee0042-4620-4da1-9d75-f48ef9b10e14",
        "deviceName": [
          {
            "name": "SYNDERAI Synthetic Generator",
            "type": "manufacturer-name"
          }
        ],
        "version": [
          {
            "value": "5.0"
          }
        ],
        "text": {
          "status": "generated",
          "div": "<div xmlns=\"http://www.w3.org/1999/xhtml\">SYNDERAI Synthetic Generator v5.0</div>"
        },
        "status": "active\"",
        "distinctIdentifier": "synderai-generator-50",
        "manufacturer": "SYNDERAI Project"
      }
    },
    {
      "fullUrl": "urn:uuid:3d846133-9012-49bf-87e3-025f8757c184",
      "resource": {
        "resourceType": "Provenance",
        "id": "3d846133-9012-49bf-87e3-025f8757c184",
        "target": [
          {
            "reference": "Patient/b88df853-e558-4b55-bd8c-f89d9dc5782f"
          },
          {
            "reference": "Bundle/d50eb022-9552-431f-9f5a-438d3dc5d540"
          },
          {
            "reference": "Composition/de1233d4-f2e2-43f6-9435-dbc405cba248"
          },
          {
            "reference": "PractitionerRole/090f91d9-ebf8-4301-af28-55d71c4afd47"
          },
          {
            "reference": "Practitioner/eeb07a51-95aa-4825-b356-867d3f970769"
          },
          {
            "reference": "PractitionerRole/7e770e87-f81f-4652-9da6-2d32f3035fd5"
          },
          {
            "reference": "Organization/b9b69e72-5f78-4cd2-a6dd-3c75529b29c2"
          }
        ],
        "activity": {
          "text": "Synthetic Example Data Generation"
        },
        "policy": [
          "https://synderai.net/synderai-synthetic-data-policy"
        ],
        "agent": [
          {
            "type": {
              "text": "author"
            },
            "who": {
              "reference": "Device/08ee0042-4620-4da1-9d75-f48ef9b10e14"
            }
          }
        ],
        "reason": [
          {
            "text": "Interoperability Testing and Training (non-clinical use)"
          }
        ],
        "text": {
          "status": "generated",
          "div": "<div xmlns=\"http://www.w3.org/1999/xhtml\">Provenance for SYNDERAI Synthetic Example Data Resource</div>"
        },
        "recorded": "2020-03-18T07:16:00Z"
      }
    },
    {
      "fullUrl": "urn:uuid:090f91d9-ebf8-4301-af28-55d71c4afd47",
      "resource": {
        "resourceType": "PractitionerRole",
        "id": "090f91d9-ebf8-4301-af28-55d71c4afd47",
        "meta": {
          "profile": [
            "http://hl7.eu/fhir/base/StructureDefinition/practitionerRole-eu"
          ]
        },
        "text": {
          "status": "generated",
          "div": "<div xmlns=\"http://www.w3.org/1999/xhtml\">Laboratory Role Id: 090f91d9-ebf8-4301-af28-55d71c4afd47</div>"
        },
        "practitioner": {
          "reference": "urn:uuid:eeb07a51-95aa-4825-b356-867d3f970769"
        }
      }
    },
    {
      "fullUrl": "urn:uuid:eeb07a51-95aa-4825-b356-867d3f970769",
      "resource": {
        "resourceType": "Practitioner",
        "id": "eeb07a51-95aa-4825-b356-867d3f970769",
        "meta": {
          "profile": [
            "http://hl7.eu/fhir/base/StructureDefinition/practitioner-eu"
          ]
        },
        "identifier": [
          {
            "assigner": {
              "display": "HL7 Europe"
            },
            "system": "urn:oid:2.16.840.1.113883.2.51.999",
            "value": "c5327b17-e1c3-4291-952b-47e20e7ccc87"
          }
        ],
        "name": [
          {
            "prefix": [
              "dr"
            ],
            "given": [
              "Ex"
            ],
            "family": "Ample"
          }
        ],
        "address": [
          {
            "line": [
              "Laboratoire Central Européenne",
              "Boulevard du Jardin Botanique 32"
            ],
            "postalCode": "1000",
            "city": "Brussels",
            "country": "Belgium"
          }
        ],
        "text": {
          "status": "generated",
          "div": "<div xmlns=\"http://www.w3.org/1999/xhtml\">Laboratory: Laboratoire Central Européenne, 1000 Brussels, Belgium</div>"
        }
      }
    }
  ],
  "type": "document",
  "timestamp": "2020-03-18T07:16:00Z"
}
