{
  "resourceType": "Bundle",
  "id": "aaea69aa-1721-4e7b-af34-95348ec52f08",
  "meta": {
    "profile": [
      "http://hl7.eu/fhir/laboratory/StructureDefinition/Bundle-eu-lab"
    ]
  },
  "identifier": {
    "assigner": {
      "display": "HL7 Europe"
    },
    "system": "urn:oid:2.16.840.1.113883.2.51.999",
    "value": "7a690e36-8e4a-4170-aade-9cbeeeb67d63"
  },
  "entry": [
    {
      "fullUrl": "urn:uuid:c18b2ad4-bec2-4fe9-9e37-59b5353a34b4",
      "resource": {
        "resourceType": "Composition",
        "id": "c18b2ad4-bec2-4fe9-9e37-59b5353a34b4",
        "meta": {
          "profile": [
            "http://hl7.eu/fhir/laboratory/StructureDefinition/Composition-eu-lab"
          ]
        },
        "identifier": {
          "assigner": {
            "display": "HL7 Europe"
          },
          "system": "urn:oid:2.16.840.1.113883.2.51.999",
          "value": "bb0e3b9c-c0f9-4115-ad30-fefd2536257a"
        },
        "author": [
          {
            "reference": "urn:uuid:ecb281b6-0e49-4534-a084-a3a1af124258"
          }
        ],
        "category": [
          {
            "coding": [
              {
                "code": "26436-6",
                "system": "http://loinc.org",
                "display": "Laboratory studies (set)"
              }
            ]
          }
        ],
        "type": {
          "coding": [
            {
              "code": "11502-2",
              "system": "http://loinc.org",
              "display": "Laboratory report"
            }
          ],
          "text": "Laboratory Report"
        },
        "section": [
          {
            "code": {
              "coding": [
                {
                  "code": "26436-6",
                  "system": "http://loinc.org",
                  "display": "Laboratory studies (set)"
                }
              ],
              "text": "Laboratory studies"
            },
            "section": [
              {
                "code": {
                  "coding": [
                    {
                      "code": "$18719-5",
                      "system": "http://loinc.org",
                      "display": "Chemistry studies (set)"
                    }
                  ],
                  "text": "Chemistry"
                },
                "entry": [
                  {
                    "reference": "urn:uuid:6b8718fb-68a0-420c-b1a5-04984577950b"
                  },
                  {
                    "reference": "urn:uuid:3dbe7e30-caff-46cf-a8cf-728295b3e12d"
                  },
                  {
                    "reference": "urn:uuid:7fd30316-d676-49e4-b8c7-8760a7402a43"
                  },
                  {
                    "reference": "urn:uuid:9a43be06-64aa-4153-9e11-4b4cd9891225"
                  },
                  {
                    "reference": "urn:uuid:8f190eca-22cf-42f3-a969-3c98dd60d4e0"
                  },
                  {
                    "reference": "urn:uuid:a0c4f69e-00d8-4e45-9150-942c0671ed3b"
                  },
                  {
                    "reference": "urn:uuid:e6b765dc-6fed-4fd3-8260-30fb231f4992"
                  },
                  {
                    "reference": "urn:uuid:41a83375-9b4d-4ad7-a102-68e7b213e013"
                  },
                  {
                    "reference": "urn:uuid:f0862135-4536-4469-9cb5-4432db8db2a7"
                  },
                  {
                    "reference": "urn:uuid:2640b959-9896-4634-8b8d-f49461d960e2"
                  }
                ],
                "text": {
                  "status": "generated",
                  "div": "<div xmlns=\"http://www.w3.org/1999/xhtml\"><h3>Chemistry</h3><table class=\"hl7__eu__lab__report\"><thead><tr><th>Test</th><th>20-MAY-2021</th><th>Reference&#xA0;Range</th><th>Unit</th></tr></thead><tbody><tr><td>Glucose [Mass/volume] in Serum or Plasma</td><td>95.1</td><td>70 - 140</td><td>mg/dL</td></tr><tr><td>Urea nitrogen [Mass/volume] in Serum or Plasma</td><td>9.8</td><td>7 - 25</td><td>mg/dL</td></tr><tr><td>Creatinine [Mass/volume] in Serum or Plasma</td><td><strong>2.0 H</strong></td><td>0.9 - 1.3</td><td>mg/dL</td></tr><tr><td>Calcium [Mass/volume] in Serum or Plasma</td><td>8.6</td><td>8.5 - 10.5</td><td>mg/dL</td></tr><tr><td>Sodium [Moles/volume] in Serum or Plasma</td><td>138.2</td><td>135 - 145</td><td>mmol/L</td></tr><tr><td>Potassium [Moles/volume] in Serum or Plasma</td><td>5.2</td><td>3.5 - 5.3</td><td>mmol/L</td></tr><tr><td>Chloride [Moles/volume] in Serum or Plasma</td><td>105.1</td><td>98 - 107</td><td>mmol/L</td></tr><tr><td>Carbon dioxide, total [Moles/volume] in Serum or Plasma</td><td>22.4</td><td>22 - 29</td><td>mmol/L</td></tr><tr><td>Ketones [Presence] in Urine by Test strip</td><td>Urine ketone test = +</td><td></td><td></td></tr><tr><td>Hemoglobin A1c/Hemoglobin.total in Blood</td><td><strong>3.0 L</strong></td><td>4.5 - 6.4</td><td>%</td></tr></tbody></table></div>"
                },
                "title": "Chemistry"
              },
              {
                "code": {
                  "coding": [
                    {
                      "code": "$18729-4",
                      "system": "http://loinc.org",
                      "display": "Urinalysis studies (set)"
                    }
                  ],
                  "text": "Urinalysis"
                },
                "entry": [
                  {
                    "reference": "urn:uuid:0e126dfa-e45a-4639-9567-d72c02c52046"
                  },
                  {
                    "reference": "urn:uuid:4ed4ac1d-f759-4340-b5f7-8a306d3571c7"
                  },
                  {
                    "reference": "urn:uuid:65647be6-aa96-424b-b26c-824a7d9d579f"
                  },
                  {
                    "reference": "urn:uuid:449d2917-04f3-4983-8f5a-936cd800cde6"
                  },
                  {
                    "reference": "urn:uuid:5f440a39-58e8-4af2-bbcc-88a983387fbb"
                  },
                  {
                    "reference": "urn:uuid:1c905c0a-7c16-4357-809b-bec7fa1cdb3e"
                  },
                  {
                    "reference": "urn:uuid:cbf5cf1f-61fe-4eb2-b114-8227a9127edb"
                  },
                  {
                    "reference": "urn:uuid:73762423-2b85-4139-b0f6-b473195123e3"
                  },
                  {
                    "reference": "urn:uuid:bc4d6229-e67a-443d-a431-5bcdfba9666f"
                  },
                  {
                    "reference": "urn:uuid:05d4cc0b-4bac-4965-a8bb-2cc29134ccc7"
                  },
                  {
                    "reference": "urn:uuid:a4e84c9d-c39c-4363-a703-57fb4311448e"
                  },
                  {
                    "reference": "urn:uuid:1b9e4e9b-8fc4-4133-a0c6-9c9fb0346eda"
                  }
                ],
                "text": {
                  "status": "generated",
                  "div": "<div xmlns=\"http://www.w3.org/1999/xhtml\"><h3>Urinalysis</h3><table class=\"hl7__eu__lab__report\"><thead><tr><th>Test</th><th>20-MAY-2021</th><th>Reference&#xA0;Range</th><th>Unit</th></tr></thead><tbody><tr><td>Glucose [Mass/volume] in Urine by Test strip</td><td><strong>1.1 H</strong></td><td>0.8 - 0</td><td>mg/dL</td></tr><tr><td>Glucose [Presence] in Urine by Test strip</td><td>++</td><td></td><td></td></tr><tr><td>Bilirubin.total [Mass/volume] in Urine by Test strip</td><td>0.4</td><td>0.2 - 1.5</td><td>mg/dL</td></tr><tr><td>Bilirubin.total [Presence] in Urine by Test strip</td><td>Finding of bilirubin in urine</td><td></td><td></td></tr><tr><td>Ketones [Mass/volume] in Urine by Test strip</td><td><strong>5.1 H</strong></td><td>0 - 4</td><td>mg/dL</td></tr><tr><td>Specific gravity of Urine by Test strip</td><td><strong>1.0 L</strong></td><td>1.01 - 1.03</td><td>{nominal}</td></tr><tr><td>pH of Urine by Test strip</td><td>6.5</td><td>4.5 - 7.5</td><td>pH</td></tr><tr><td>Protein [Mass/volume] in Urine by Test strip</td><td><strong>222.0 H</strong></td><td>0 - 150</td><td>mg/dL</td></tr><tr><td>Protein [Presence] in Urine by Test strip</td><td>Urine protein test = ++</td><td></td><td></td></tr><tr><td>Nitrite [Presence] in Urine by Test strip</td><td>Urine nitrite negative</td><td></td><td></td></tr><tr><td>Hemoglobin [Presence] in Urine by Test strip</td><td>Urine blood test = negative</td><td></td><td></td></tr><tr><td>Leukocyte esterase [Presence] in Urine by Test strip</td><td>Urine leukocyte test negative</td><td></td><td></td></tr></tbody></table></div>"
                },
                "title": "Urinalysis"
              },
              {
                "code": {
                  "coding": [
                    {
                      "code": "$LP7846-1",
                      "system": "http://loinc.org",
                      "display": "Specimen information"
                    }
                  ],
                  "text": "Specimen information"
                },
                "entry": [
                  {
                    "reference": "urn:uuid:6eed32ea-69cc-4af0-a12a-650b75ad55b7"
                  },
                  {
                    "reference": "urn:uuid:d2f4e4f6-6804-4a86-b509-7b8291d6051c"
                  },
                  {
                    "reference": "urn:uuid:0f9bbcca-6c33-4391-af5a-6d9cab3a3e42"
                  },
                  {
                    "reference": "urn:uuid:3e980233-81a3-4d78-8746-2d5dfe725305"
                  }
                ],
                "text": {
                  "status": "generated",
                  "div": "<div xmlns=\"http://www.w3.org/1999/xhtml\"><h3>Specimen information</h3><table class=\"hl7__eu__lab__report\"><thead><tr><th>Test</th><th>20-MAY-2021</th><th>Specimen</th><th></th></tr></thead><tbody><tr><td>Appearance of Urine</td><td>Cloudy urine</td><td>Urine</td><td></td></tr><tr><td>Odor of Urine</td><td>Urine smell ammoniacal</td><td>Urine</td><td></td></tr><tr><td>Clarity of Urine</td><td>Translucent</td><td>Urine</td><td></td></tr><tr><td>Color of Urine</td><td>Brown color</td><td>Urine</td><td></td></tr></tbody></table></div>"
                },
                "title": "Specimen information"
              }
            ],
            "title": "Laboratory Report"
          },
          {
            "text": {
              "status": "generated",
              "div": "<div xmlns=\"http://www.w3.org/1999/xhtml\"><h3>Annotation</h3><table class=\"hl7__eu__lab__report\"><tr><th>Conclusion and Recommendations based on this report and previous findings known to us</th></tr><tr><td>The patient shows elevated serum creatinine, suggesting impaired renal function. Urinalysis reveals proteinuria, glucosuria, ketonuria, low specific gravity, and abnormal urine appearance (cloudy, brown, ammoniacal), indicating possible renal tubular dysfunction or acute kidney injury. Blood glucose and urea are within normal limits, but HbA1c is low, possibly due to anemia or recent changes in glycemic control. No evidence of urinary infection. Recommend further evaluation of renal function and possible underlying metabolic or systemic causes.</td></tr></table></div>"
            },
            "code": {
              "coding": [
                {
                  "system": "http://loinc.org",
                  "code": "48767-8",
                  "display": "Annotation comment"
                }
              ]
            },
            "title": "Annotation comment"
          }
        ],
        "status": "final",
        "subject": {
          "reference": "urn:uuid:76a736c1-0a8f-423d-8e12-231f7b01c13f",
          "display": "Pelayo Casal"
        },
        "date": "2021-05-20T07:38:59Z",
        "title": "Laboratory Report",
        "confidentiality": "N"
      }
    },
    {
      "fullUrl": "urn:uuid:90fd1c9e-ec10-4913-85c8-a9d099db4245",
      "resource": {
        "resourceType": "DiagnosticReport",
        "id": "90fd1c9e-ec10-4913-85c8-a9d099db4245",
        "meta": {
          "profile": [
            "http://hl7.eu/fhir/laboratory/StructureDefinition/DiagnosticReport-eu-lab"
          ]
        },
        "identifier": [
          {
            "assigner": {
              "display": "HL7 Europe"
            },
            "system": "urn:oid:2.16.840.1.113883.2.51.999",
            "value": "c3b021be-bb7f-4a1c-981a-897acebe2930"
          }
        ],
        "extension": [
          {
            "url": "http://hl7.org/fhir/5.0/StructureDefinition/extension-DiagnosticReport.composition",
            "valueReference": {
              "reference": "urn:uuid:bb0e3b9c-c0f9-4115-ad30-fefd2536257a"
            }
          }
        ],
        "category": [
          {
            "coding": [
              {
                "code": "26436-6",
                "system": "http://loinc.org",
                "display": "Laboratory studies (set)"
              }
            ]
          }
        ],
        "specimen": [
          {
            "reference": "urn:uuid:8ad3c2bc-de98-42d9-b5aa-4a78a7915278"
          },
          {
            "reference": "urn:uuid:570a6b30-deef-4369-b76e-b9c512ab37af"
          },
          {
            "reference": "urn:uuid:eeb5b586-d784-46e5-a296-1f745b4abd0d"
          }
        ],
        "result": [
          {
            "reference": "urn:uuid:6b8718fb-68a0-420c-b1a5-04984577950b"
          },
          {
            "reference": "urn:uuid:3dbe7e30-caff-46cf-a8cf-728295b3e12d"
          },
          {
            "reference": "urn:uuid:7fd30316-d676-49e4-b8c7-8760a7402a43"
          },
          {
            "reference": "urn:uuid:9a43be06-64aa-4153-9e11-4b4cd9891225"
          },
          {
            "reference": "urn:uuid:8f190eca-22cf-42f3-a969-3c98dd60d4e0"
          },
          {
            "reference": "urn:uuid:a0c4f69e-00d8-4e45-9150-942c0671ed3b"
          },
          {
            "reference": "urn:uuid:e6b765dc-6fed-4fd3-8260-30fb231f4992"
          },
          {
            "reference": "urn:uuid:41a83375-9b4d-4ad7-a102-68e7b213e013"
          },
          {
            "reference": "urn:uuid:6eed32ea-69cc-4af0-a12a-650b75ad55b7"
          },
          {
            "reference": "urn:uuid:d2f4e4f6-6804-4a86-b509-7b8291d6051c"
          },
          {
            "reference": "urn:uuid:0f9bbcca-6c33-4391-af5a-6d9cab3a3e42"
          },
          {
            "reference": "urn:uuid:3e980233-81a3-4d78-8746-2d5dfe725305"
          },
          {
            "reference": "urn:uuid:0e126dfa-e45a-4639-9567-d72c02c52046"
          },
          {
            "reference": "urn:uuid:4ed4ac1d-f759-4340-b5f7-8a306d3571c7"
          },
          {
            "reference": "urn:uuid:65647be6-aa96-424b-b26c-824a7d9d579f"
          },
          {
            "reference": "urn:uuid:449d2917-04f3-4983-8f5a-936cd800cde6"
          },
          {
            "reference": "urn:uuid:5f440a39-58e8-4af2-bbcc-88a983387fbb"
          },
          {
            "reference": "urn:uuid:f0862135-4536-4469-9cb5-4432db8db2a7"
          },
          {
            "reference": "urn:uuid:1c905c0a-7c16-4357-809b-bec7fa1cdb3e"
          },
          {
            "reference": "urn:uuid:cbf5cf1f-61fe-4eb2-b114-8227a9127edb"
          },
          {
            "reference": "urn:uuid:73762423-2b85-4139-b0f6-b473195123e3"
          },
          {
            "reference": "urn:uuid:bc4d6229-e67a-443d-a431-5bcdfba9666f"
          },
          {
            "reference": "urn:uuid:05d4cc0b-4bac-4965-a8bb-2cc29134ccc7"
          },
          {
            "reference": "urn:uuid:a4e84c9d-c39c-4363-a703-57fb4311448e"
          },
          {
            "reference": "urn:uuid:1b9e4e9b-8fc4-4133-a0c6-9c9fb0346eda"
          },
          {
            "reference": "urn:uuid:2640b959-9896-4634-8b8d-f49461d960e2"
          }
        ],
        "status": "registered",
        "code": {
          "coding": [
            {
              "code": "11502-2",
              "system": "http://loinc.org",
              "display": "Laboratory report"
            }
          ]
        },
        "subject": {
          "reference": "urn:uuid:76a736c1-0a8f-423d-8e12-231f7b01c13f",
          "display": "Pelayo Casal"
        }
      }
    },
    {
      "fullUrl": "urn:uuid:76a736c1-0a8f-423d-8e12-231f7b01c13f",
      "resource": {
        "resourceType": "Patient",
        "id": "76a736c1-0a8f-423d-8e12-231f7b01c13f",
        "meta": {
          "security": [
            {
              "system": "http://terminology.hl7.org/CodeSystem/v3-ActReason",
              "code": "HTEST"
            },
            {
              "system": "http://terminology.hl7.org/CodeSystem/v3-ActReason",
              "code": "TRAIN"
            }
          ],
          "tag": [
            {
              "system": "https://synderai.net/fhir/CodeSystem/tags",
              "code": "synthetic",
              "display": "SYNDERAI Synthetic data"
            }
          ],
          "profile": [
            "http://hl7.eu/fhir/base/StructureDefinition/patient-eu-core"
          ]
        },
        "identifier": [
          {
            "type": {
              "coding": [
                {
                  "code": "PT",
                  "system": "http://terminology.hl7.org/CodeSystem/v2-0203"
                }
              ]
            },
            "system": "http://ec.europa.eu/identifier/eci",
            "value": "7707-510028-7"
          },
          {
            "type": {
              "coding": [
                {
                  "code": "MR",
                  "system": "http://terminology.hl7.org/CodeSystem/v2-0203"
                }
              ]
            },
            "system": "http://local.setting.eu/identifier",
            "value": "d88e82c6-df33-82d2-8538-f8b57da06491"
          }
        ],
        "name": [
          {
            "family": "Casal"
          },
          {
            "given": [
              "Pelayo"
            ]
          },
          {
            "text": "Pelayo Casal"
          }
        ],
        "address": [
          {
            "line": [
              "Callejón de Ignacio Pedrosa 67 Apt. 68 "
            ],
            "use": "home",
            "type": "physical",
            "postalCode": "35001",
            "city": "Las Palmas",
            "country": "Spain"
          }
        ],
        "telecom": [
          {
            "system": "phone",
            "value": "+34 875724898"
          }
        ],
        "extension": [
          {
            "url": "http://hl7.org/fhir/StructureDefinition/patient-nationality",
            "valueCodeableConcept": {
              "coding": [
                {
                  "code": "ES",
                  "system": "http://hl7.org/fhir/ValueSet/country"
                }
              ]
            }
          }
        ],
        "text": {
          "status": "generated",
          "div": "<div xmlns=\"http://www.w3.org/1999/xhtml\"><table class=\"hl7__ips\"><tr><td>Pelayo Casal</td><td>male</td><td>19-Apr-1940</td></tr></table></div>"
        },
        "gender": "male",
        "birthDate": "1940-04-19"
      }
    },
    {
      "fullUrl": "urn:uuid:6145679a-33d7-483d-b1f1-492173b84edd",
      "resource": {
        "resourceType": "ServiceRequest",
        "id": "6145679a-33d7-483d-b1f1-492173b84edd",
        "meta": {
          "profile": [
            "http://hl7.eu/fhir/laboratory/StructureDefinition/ServiceRequest-eu-lab"
          ]
        },
        "identifier": [
          {
            "system": "http://example.org",
            "value": "4e9f127a-9a74-44fd-b068-3171a7b5c53b"
          }
        ],
        "specimen": [
          {
            "reference": "urn:uuid:8ad3c2bc-de98-42d9-b5aa-4a78a7915278"
          },
          {
            "reference": "urn:uuid:570a6b30-deef-4369-b76e-b9c512ab37af"
          },
          {
            "reference": "urn:uuid:eeb5b586-d784-46e5-a296-1f745b4abd0d"
          }
        ],
        "reasonCode": [
          {
            "coding": [
              {
                "code": "431856006",
                "system": "http://snomed.info/sct",
                "display": "Chronic kidney disease stage 2"
              }
            ]
          },
          {
            "coding": [
              {
                "code": "90781000119102",
                "system": "http://snomed.info/sct",
                "display": "Microalbuminuria due to type 2 diabetes mellitus"
              }
            ]
          },
          {
            "coding": [
              {
                "code": "127013003",
                "system": "http://snomed.info/sct",
                "display": "Disorder of kidney due to diabetes mellitus"
              }
            ]
          },
          {
            "coding": [
              {
                "code": "431855005",
                "system": "http://snomed.info/sct",
                "display": "Chronic kidney disease stage 1"
              }
            ]
          },
          {
            "coding": [
              {
                "code": "64859006",
                "system": "http://snomed.info/sct",
                "display": "Osteoporosis"
              }
            ]
          },
          {
            "coding": [
              {
                "code": "414545008",
                "system": "http://snomed.info/sct",
                "display": "Ischemic heart disease"
              }
            ]
          },
          {
            "coding": [
              {
                "code": "237602007",
                "system": "http://snomed.info/sct",
                "display": "Metabolic syndrome X"
              }
            ]
          },
          {
            "coding": [
              {
                "code": "59621000",
                "system": "http://snomed.info/sct",
                "display": "Essential hypertension"
              }
            ]
          },
          {
            "coding": [
              {
                "code": "271737000",
                "system": "http://snomed.info/sct",
                "display": "Anemia"
              }
            ]
          },
          {
            "coding": [
              {
                "code": "15777000",
                "system": "http://snomed.info/sct",
                "display": "Prediabetes"
              }
            ]
          }
        ],
        "status": "active",
        "intent": "order",
        "code": {
          "coding": [
            {
              "code": "108252007",
              "system": "http://snomed.info/sct",
              "display": "Laboratory procedure"
            }
          ]
        },
        "subject": {
          "reference": "urn:uuid:76a736c1-0a8f-423d-8e12-231f7b01c13f",
          "display": "Pelayo Casal"
        },
        "requester": {
          "reference": "urn:uuid:5e671b7c-4edd-4570-a8c0-740e9a8def99"
        }
      }
    },
    {
      "fullUrl": "urn:uuid:5e671b7c-4edd-4570-a8c0-740e9a8def99",
      "resource": {
        "resourceType": "PractitionerRole",
        "id": "5e671b7c-4edd-4570-a8c0-740e9a8def99",
        "meta": {
          "profile": [
            "http://hl7.eu/fhir/base/StructureDefinition/practitionerRole-eu"
          ]
        },
        "text": {
          "status": "generated",
          "div": "<div xmlns=\"http://www.w3.org/1999/xhtml\">Provider Role Id: 5e671b7c-4edd-4570-a8c0-740e9a8def99</div>"
        },
        "organization": {
          "reference": "urn:uuid:ae817eeb-eb35-44cd-8f8a-34d54c3419ee"
        }
      }
    },
    {
      "fullUrl": "urn:uuid:ae817eeb-eb35-44cd-8f8a-34d54c3419ee",
      "resource": {
        "resourceType": "Organization",
        "id": "ae817eeb-eb35-44cd-8f8a-34d54c3419ee",
        "meta": {
          "profile": [
            "http://hl7.eu/fhir/base/StructureDefinition/organization-eu"
          ]
        },
        "identifier": [
          {
            "assigner": {
              "display": "HL7 Europe"
            },
            "system": "urn:oid:2.16.840.1.113883.2.51.999",
            "value": "514ba625-189a-44eb-8e15-f08aa51deaf6"
          }
        ],
        "address": [
          {
            "country": "Spain"
          }
        ],
        "text": {
          "status": "generated",
          "div": "<div xmlns=\"http://www.w3.org/1999/xhtml\">Provider Organization: Centro de Salud de Guanarteme</div>"
        },
        "name": "Centro de Salud de Guanarteme"
      }
    },
    {
      "fullUrl": "urn:uuid:8ad3c2bc-de98-42d9-b5aa-4a78a7915278",
      "resource": {
        "resourceType": "Specimen",
        "id": "8ad3c2bc-de98-42d9-b5aa-4a78a7915278",
        "meta": {
          "profile": [
            "http://hl7.eu/fhir/laboratory/StructureDefinition/Specimen-eu-lab"
          ]
        },
        "collection": {
          "collectedDateTime": "2021-05-20"
        },
        "text": {
          "status": "generated",
          "div": "<div xmlns=\"http://www.w3.org/1999/xhtml\"><table class=\"hl7__eu__lab__report\"><tr><th>Specimen</th><th>Collection Date</th></tr><tr><td>Acellular blood (serum or plasma) specimen</td><td><span class=\"nb\">20-May-2021</span></td></tr></table></div>"
        },
        "type": {
          "coding": [
            {
              "code": "122592007",
              "system": "http://snomed.info/sct",
              "display": "Acellular blood (serum or plasma) specimen"
            }
          ]
        }
      }
    },
    {
      "fullUrl": "urn:uuid:570a6b30-deef-4369-b76e-b9c512ab37af",
      "resource": {
        "resourceType": "Specimen",
        "id": "570a6b30-deef-4369-b76e-b9c512ab37af",
        "meta": {
          "profile": [
            "http://hl7.eu/fhir/laboratory/StructureDefinition/Specimen-eu-lab"
          ]
        },
        "collection": {
          "collectedDateTime": "2021-05-20"
        },
        "text": {
          "status": "generated",
          "div": "<div xmlns=\"http://www.w3.org/1999/xhtml\"><table class=\"hl7__eu__lab__report\"><tr><th>Specimen</th><th>Collection Date</th></tr><tr><td>Urine specimen</td><td><span class=\"nb\">20-May-2021</span></td></tr></table></div>"
        },
        "type": {
          "coding": [
            {
              "code": "122575003",
              "system": "http://snomed.info/sct",
              "display": "Urine specimen"
            }
          ]
        }
      }
    },
    {
      "fullUrl": "urn:uuid:eeb5b586-d784-46e5-a296-1f745b4abd0d",
      "resource": {
        "resourceType": "Specimen",
        "id": "eeb5b586-d784-46e5-a296-1f745b4abd0d",
        "meta": {
          "profile": [
            "http://hl7.eu/fhir/laboratory/StructureDefinition/Specimen-eu-lab"
          ]
        },
        "collection": {
          "collectedDateTime": "2021-05-20"
        },
        "text": {
          "status": "generated",
          "div": "<div xmlns=\"http://www.w3.org/1999/xhtml\"><table class=\"hl7__eu__lab__report\"><tr><th>Specimen</th><th>Collection Date</th></tr><tr><td>Whole blood specimen (specimen)</td><td><span class=\"nb\">20-May-2021</span></td></tr></table></div>"
        },
        "type": {
          "coding": [
            {
              "code": "258580003",
              "system": "http://snomed.info/sct",
              "display": "Whole blood specimen (specimen)"
            }
          ]
        }
      }
    },
    {
      "fullUrl": "urn:uuid:6b8718fb-68a0-420c-b1a5-04984577950b",
      "resource": {
        "resourceType": "Observation",
        "id": "6b8718fb-68a0-420c-b1a5-04984577950b",
        "meta": {
          "profile": [
            "http://hl7.eu/fhir/laboratory/StructureDefinition/Observation-resultslab-eu-lab"
          ]
        },
        "performer": [
          {
            "display": "The Central European Lab"
          }
        ],
        "category": [
          {
            "coding": [
              {
                "system": "http://terminology.hl7.org/CodeSystem/observation-category",
                "code": "laboratory"
              }
            ]
          }
        ],
        "code": {
          "coding": [
            {
              "code": "2345-7",
              "system": "http://loinc.org",
              "display": "Glucose [Mass/volume] in Serum or Plasma"
            }
          ],
          "text": "Glucose [Mass/volume] in Serum or Plasma"
        },
        "valueQuantity": {
          "system": "http://unitsofmeasure.org",
          "value": 95.1,
          "unit": "mg/dL",
          "code": "mg/dL"
        },
        "referenceRange": [
          {
            "low": {
              "value": 70,
              "code": "mg/dL",
              "system": "http://unitsofmeasure.org"
            }
          },
          {
            "high": {
              "value": 140,
              "code": "mg/dL",
              "system": "http://unitsofmeasure.org"
            }
          }
        ],
        "text": {
          "status": "generated",
          "div": "<div xmlns=\"http://www.w3.org/1999/xhtml\"><table class=\"hl7__eu__lab__report\"><tr><th>Test</th><th>20-May-2021</th><th>Reference&#xA0;Range</th><th>Unit</th></tr><tr><td>Glucose [Mass/volume] in Serum or Plasma</td><td>95.1</td><td>70 - 140</td><td></td><td>mg/dL</td></tr></table></div>"
        },
        "status": "final",
        "subject": {
          "reference": "urn:uuid:76a736c1-0a8f-423d-8e12-231f7b01c13f",
          "display": "Pelayo Casal"
        },
        "effectiveDateTime": "2021-05-20T05:38:59Z",
        "specimen": {
          "reference": "urn:uuid:8ad3c2bc-de98-42d9-b5aa-4a78a7915278"
        }
      }
    },
    {
      "fullUrl": "urn:uuid:3dbe7e30-caff-46cf-a8cf-728295b3e12d",
      "resource": {
        "resourceType": "Observation",
        "id": "3dbe7e30-caff-46cf-a8cf-728295b3e12d",
        "meta": {
          "profile": [
            "http://hl7.eu/fhir/laboratory/StructureDefinition/Observation-resultslab-eu-lab"
          ]
        },
        "performer": [
          {
            "display": "The Central European Lab"
          }
        ],
        "category": [
          {
            "coding": [
              {
                "system": "http://terminology.hl7.org/CodeSystem/observation-category",
                "code": "laboratory"
              }
            ]
          }
        ],
        "code": {
          "coding": [
            {
              "code": "3094-0",
              "system": "http://loinc.org",
              "display": "Urea nitrogen [Mass/volume] in Serum or Plasma"
            }
          ],
          "text": "Urea nitrogen [Mass/volume] in Serum or Plasma"
        },
        "valueQuantity": {
          "system": "http://unitsofmeasure.org",
          "value": 9.8,
          "unit": "mg/dL",
          "code": "mg/dL"
        },
        "referenceRange": [
          {
            "low": {
              "value": 7,
              "code": "mg/dL",
              "system": "http://unitsofmeasure.org"
            }
          },
          {
            "high": {
              "value": 25,
              "code": "mg/dL",
              "system": "http://unitsofmeasure.org"
            }
          }
        ],
        "text": {
          "status": "generated",
          "div": "<div xmlns=\"http://www.w3.org/1999/xhtml\"><table class=\"hl7__eu__lab__report\"><tr><th>Test</th><th>20-May-2021</th><th>Reference&#xA0;Range</th><th>Unit</th></tr><tr><td>Urea nitrogen [Mass/volume] in Serum or Plasma</td><td>9.8</td><td>7 - 25</td><td></td><td>mg/dL</td></tr></table></div>"
        },
        "status": "final",
        "subject": {
          "reference": "urn:uuid:76a736c1-0a8f-423d-8e12-231f7b01c13f",
          "display": "Pelayo Casal"
        },
        "effectiveDateTime": "2021-05-20T05:38:59Z",
        "specimen": {
          "reference": "urn:uuid:8ad3c2bc-de98-42d9-b5aa-4a78a7915278"
        }
      }
    },
    {
      "fullUrl": "urn:uuid:7fd30316-d676-49e4-b8c7-8760a7402a43",
      "resource": {
        "resourceType": "Observation",
        "id": "7fd30316-d676-49e4-b8c7-8760a7402a43",
        "meta": {
          "profile": [
            "http://hl7.eu/fhir/laboratory/StructureDefinition/Observation-resultslab-eu-lab"
          ]
        },
        "performer": [
          {
            "display": "The Central European Lab"
          }
        ],
        "category": [
          {
            "coding": [
              {
                "system": "http://terminology.hl7.org/CodeSystem/observation-category",
                "code": "laboratory"
              }
            ]
          }
        ],
        "code": {
          "coding": [
            {
              "code": "2160-0",
              "system": "http://loinc.org",
              "display": "Creatinine [Mass/volume] in Serum or Plasma"
            }
          ],
          "text": "Creatinine [Mass/volume] in Serum or Plasma"
        },
        "valueQuantity": {
          "system": "http://unitsofmeasure.org",
          "value": 2,
          "unit": "mg/dL",
          "code": "mg/dL"
        },
        "referenceRange": [
          {
            "low": {
              "value": 0.9,
              "code": "mg/dL",
              "system": "http://unitsofmeasure.org"
            }
          },
          {
            "high": {
              "value": 1.3,
              "code": "mg/dL",
              "system": "http://unitsofmeasure.org"
            }
          }
        ],
        "interpretation": [
          {
            "coding": [
              {
                "code": "H",
                "system": "http://terminology.hl7.org/CodeSystem/v3-ObservationInterpretation",
                "display": "High"
              }
            ]
          }
        ],
        "text": {
          "status": "generated",
          "div": "<div xmlns=\"http://www.w3.org/1999/xhtml\"><table class=\"hl7__eu__lab__report\"><tr><th>Test</th><th>20-May-2021</th><th>Reference&#xA0;Range</th><th>Unit</th></tr><tr><td>Creatinine [Mass/volume] in Serum or Plasma</td><td>2.0</td><td>0.9 - 1.3</td><td>H</td><td>mg/dL</td></tr></table></div>"
        },
        "status": "final",
        "subject": {
          "reference": "urn:uuid:76a736c1-0a8f-423d-8e12-231f7b01c13f",
          "display": "Pelayo Casal"
        },
        "effectiveDateTime": "2021-05-20T05:38:59Z",
        "specimen": {
          "reference": "urn:uuid:8ad3c2bc-de98-42d9-b5aa-4a78a7915278"
        }
      }
    },
    {
      "fullUrl": "urn:uuid:9a43be06-64aa-4153-9e11-4b4cd9891225",
      "resource": {
        "resourceType": "Observation",
        "id": "9a43be06-64aa-4153-9e11-4b4cd9891225",
        "meta": {
          "profile": [
            "http://hl7.eu/fhir/laboratory/StructureDefinition/Observation-resultslab-eu-lab"
          ]
        },
        "performer": [
          {
            "display": "The Central European Lab"
          }
        ],
        "category": [
          {
            "coding": [
              {
                "system": "http://terminology.hl7.org/CodeSystem/observation-category",
                "code": "laboratory"
              }
            ]
          }
        ],
        "code": {
          "coding": [
            {
              "code": "17861-6",
              "system": "http://loinc.org",
              "display": "Calcium [Mass/volume] in Serum or Plasma"
            }
          ],
          "text": "Calcium [Mass/volume] in Serum or Plasma"
        },
        "valueQuantity": {
          "system": "http://unitsofmeasure.org",
          "value": 8.6,
          "unit": "mg/dL",
          "code": "mg/dL"
        },
        "referenceRange": [
          {
            "low": {
              "value": 8.5,
              "code": "mg/dL",
              "system": "http://unitsofmeasure.org"
            }
          },
          {
            "high": {
              "value": 10.5,
              "code": "mg/dL",
              "system": "http://unitsofmeasure.org"
            }
          }
        ],
        "text": {
          "status": "generated",
          "div": "<div xmlns=\"http://www.w3.org/1999/xhtml\"><table class=\"hl7__eu__lab__report\"><tr><th>Test</th><th>20-May-2021</th><th>Reference&#xA0;Range</th><th>Unit</th></tr><tr><td>Calcium [Mass/volume] in Serum or Plasma</td><td>8.6</td><td>8.5 - 10.5</td><td></td><td>mg/dL</td></tr></table></div>"
        },
        "status": "final",
        "subject": {
          "reference": "urn:uuid:76a736c1-0a8f-423d-8e12-231f7b01c13f",
          "display": "Pelayo Casal"
        },
        "effectiveDateTime": "2021-05-20T05:38:59Z",
        "specimen": {
          "reference": "urn:uuid:8ad3c2bc-de98-42d9-b5aa-4a78a7915278"
        }
      }
    },
    {
      "fullUrl": "urn:uuid:8f190eca-22cf-42f3-a969-3c98dd60d4e0",
      "resource": {
        "resourceType": "Observation",
        "id": "8f190eca-22cf-42f3-a969-3c98dd60d4e0",
        "meta": {
          "profile": [
            "http://hl7.eu/fhir/laboratory/StructureDefinition/Observation-resultslab-eu-lab"
          ]
        },
        "performer": [
          {
            "display": "The Central European Lab"
          }
        ],
        "category": [
          {
            "coding": [
              {
                "system": "http://terminology.hl7.org/CodeSystem/observation-category",
                "code": "laboratory"
              }
            ]
          }
        ],
        "code": {
          "coding": [
            {
              "code": "2951-2",
              "system": "http://loinc.org",
              "display": "Sodium [Moles/volume] in Serum or Plasma"
            }
          ],
          "text": "Sodium [Moles/volume] in Serum or Plasma"
        },
        "valueQuantity": {
          "system": "http://unitsofmeasure.org",
          "value": 138.2,
          "unit": "mmol/L",
          "code": "mmol/L"
        },
        "referenceRange": [
          {
            "low": {
              "value": 135,
              "code": "mmol/L",
              "system": "http://unitsofmeasure.org"
            }
          },
          {
            "high": {
              "value": 145,
              "code": "mmol/L",
              "system": "http://unitsofmeasure.org"
            }
          }
        ],
        "text": {
          "status": "generated",
          "div": "<div xmlns=\"http://www.w3.org/1999/xhtml\"><table class=\"hl7__eu__lab__report\"><tr><th>Test</th><th>20-May-2021</th><th>Reference&#xA0;Range</th><th>Unit</th></tr><tr><td>Sodium [Moles/volume] in Serum or Plasma</td><td>138.2</td><td>135 - 145</td><td></td><td>mmol/L</td></tr></table></div>"
        },
        "status": "final",
        "subject": {
          "reference": "urn:uuid:76a736c1-0a8f-423d-8e12-231f7b01c13f",
          "display": "Pelayo Casal"
        },
        "effectiveDateTime": "2021-05-20T05:38:59Z",
        "specimen": {
          "reference": "urn:uuid:8ad3c2bc-de98-42d9-b5aa-4a78a7915278"
        }
      }
    },
    {
      "fullUrl": "urn:uuid:a0c4f69e-00d8-4e45-9150-942c0671ed3b",
      "resource": {
        "resourceType": "Observation",
        "id": "a0c4f69e-00d8-4e45-9150-942c0671ed3b",
        "meta": {
          "profile": [
            "http://hl7.eu/fhir/laboratory/StructureDefinition/Observation-resultslab-eu-lab"
          ]
        },
        "performer": [
          {
            "display": "The Central European Lab"
          }
        ],
        "category": [
          {
            "coding": [
              {
                "system": "http://terminology.hl7.org/CodeSystem/observation-category",
                "code": "laboratory"
              }
            ]
          }
        ],
        "code": {
          "coding": [
            {
              "code": "2823-3",
              "system": "http://loinc.org",
              "display": "Potassium [Moles/volume] in Serum or Plasma"
            }
          ],
          "text": "Potassium [Moles/volume] in Serum or Plasma"
        },
        "valueQuantity": {
          "system": "http://unitsofmeasure.org",
          "value": 5.2,
          "unit": "mmol/L",
          "code": "mmol/L"
        },
        "referenceRange": [
          {
            "low": {
              "value": 3.5,
              "code": "mmol/L",
              "system": "http://unitsofmeasure.org"
            }
          },
          {
            "high": {
              "value": 5.3,
              "code": "mmol/L",
              "system": "http://unitsofmeasure.org"
            }
          }
        ],
        "text": {
          "status": "generated",
          "div": "<div xmlns=\"http://www.w3.org/1999/xhtml\"><table class=\"hl7__eu__lab__report\"><tr><th>Test</th><th>20-May-2021</th><th>Reference&#xA0;Range</th><th>Unit</th></tr><tr><td>Potassium [Moles/volume] in Serum or Plasma</td><td>5.2</td><td>3.5 - 5.3</td><td></td><td>mmol/L</td></tr></table></div>"
        },
        "status": "final",
        "subject": {
          "reference": "urn:uuid:76a736c1-0a8f-423d-8e12-231f7b01c13f",
          "display": "Pelayo Casal"
        },
        "effectiveDateTime": "2021-05-20T05:38:59Z",
        "specimen": {
          "reference": "urn:uuid:8ad3c2bc-de98-42d9-b5aa-4a78a7915278"
        }
      }
    },
    {
      "fullUrl": "urn:uuid:e6b765dc-6fed-4fd3-8260-30fb231f4992",
      "resource": {
        "resourceType": "Observation",
        "id": "e6b765dc-6fed-4fd3-8260-30fb231f4992",
        "meta": {
          "profile": [
            "http://hl7.eu/fhir/laboratory/StructureDefinition/Observation-resultslab-eu-lab"
          ]
        },
        "performer": [
          {
            "display": "The Central European Lab"
          }
        ],
        "category": [
          {
            "coding": [
              {
                "system": "http://terminology.hl7.org/CodeSystem/observation-category",
                "code": "laboratory"
              }
            ]
          }
        ],
        "code": {
          "coding": [
            {
              "code": "2075-0",
              "system": "http://loinc.org",
              "display": "Chloride [Moles/volume] in Serum or Plasma"
            }
          ],
          "text": "Chloride [Moles/volume] in Serum or Plasma"
        },
        "valueQuantity": {
          "system": "http://unitsofmeasure.org",
          "value": 105.1,
          "unit": "mmol/L",
          "code": "mmol/L"
        },
        "referenceRange": [
          {
            "low": {
              "value": 98,
              "code": "mmol/L",
              "system": "http://unitsofmeasure.org"
            }
          },
          {
            "high": {
              "value": 107,
              "code": "mmol/L",
              "system": "http://unitsofmeasure.org"
            }
          }
        ],
        "text": {
          "status": "generated",
          "div": "<div xmlns=\"http://www.w3.org/1999/xhtml\"><table class=\"hl7__eu__lab__report\"><tr><th>Test</th><th>20-May-2021</th><th>Reference&#xA0;Range</th><th>Unit</th></tr><tr><td>Chloride [Moles/volume] in Serum or Plasma</td><td>105.1</td><td>98 - 107</td><td></td><td>mmol/L</td></tr></table></div>"
        },
        "status": "final",
        "subject": {
          "reference": "urn:uuid:76a736c1-0a8f-423d-8e12-231f7b01c13f",
          "display": "Pelayo Casal"
        },
        "effectiveDateTime": "2021-05-20T05:38:59Z",
        "specimen": {
          "reference": "urn:uuid:8ad3c2bc-de98-42d9-b5aa-4a78a7915278"
        }
      }
    },
    {
      "fullUrl": "urn:uuid:41a83375-9b4d-4ad7-a102-68e7b213e013",
      "resource": {
        "resourceType": "Observation",
        "id": "41a83375-9b4d-4ad7-a102-68e7b213e013",
        "meta": {
          "profile": [
            "http://hl7.eu/fhir/laboratory/StructureDefinition/Observation-resultslab-eu-lab"
          ]
        },
        "performer": [
          {
            "display": "The Central European Lab"
          }
        ],
        "category": [
          {
            "coding": [
              {
                "system": "http://terminology.hl7.org/CodeSystem/observation-category",
                "code": "laboratory"
              }
            ]
          }
        ],
        "code": {
          "coding": [
            {
              "code": "2028-9",
              "system": "http://loinc.org",
              "display": "Carbon dioxide, total [Moles/volume] in Serum or Plasma"
            }
          ],
          "text": "Carbon dioxide, total [Moles/volume] in Serum or Plasma"
        },
        "valueQuantity": {
          "system": "http://unitsofmeasure.org",
          "value": 22.4,
          "unit": "mmol/L",
          "code": "mmol/L"
        },
        "referenceRange": [
          {
            "low": {
              "value": 22,
              "code": "mmol/L",
              "system": "http://unitsofmeasure.org"
            }
          },
          {
            "high": {
              "value": 29,
              "code": "mmol/L",
              "system": "http://unitsofmeasure.org"
            }
          }
        ],
        "text": {
          "status": "generated",
          "div": "<div xmlns=\"http://www.w3.org/1999/xhtml\"><table class=\"hl7__eu__lab__report\"><tr><th>Test</th><th>20-May-2021</th><th>Reference&#xA0;Range</th><th>Unit</th></tr><tr><td>Carbon dioxide, total [Moles/volume] in Serum or Plasma</td><td>22.4</td><td>22 - 29</td><td></td><td>mmol/L</td></tr></table></div>"
        },
        "status": "final",
        "subject": {
          "reference": "urn:uuid:76a736c1-0a8f-423d-8e12-231f7b01c13f",
          "display": "Pelayo Casal"
        },
        "effectiveDateTime": "2021-05-20T05:38:59Z",
        "specimen": {
          "reference": "urn:uuid:8ad3c2bc-de98-42d9-b5aa-4a78a7915278"
        }
      }
    },
    {
      "fullUrl": "urn:uuid:6eed32ea-69cc-4af0-a12a-650b75ad55b7",
      "resource": {
        "resourceType": "Observation",
        "id": "6eed32ea-69cc-4af0-a12a-650b75ad55b7",
        "meta": {
          "profile": [
            "http://hl7.eu/fhir/laboratory/StructureDefinition/Observation-resultslab-eu-lab"
          ]
        },
        "performer": [
          {
            "display": "The Central European Lab"
          }
        ],
        "category": [
          {
            "coding": [
              {
                "system": "http://terminology.hl7.org/CodeSystem/observation-category",
                "code": "laboratory"
              }
            ]
          }
        ],
        "code": {
          "coding": [
            {
              "code": "5767-9",
              "system": "http://loinc.org",
              "display": "Appearance of Urine"
            }
          ],
          "text": "Appearance of Urine"
        },
        "text": {
          "status": "generated",
          "div": "<div xmlns=\"http://www.w3.org/1999/xhtml\"><table class=\"hl7__eu__lab__report\"><tr><th>Test</th><th>20-May-2021</th><th>Reference&#xA0;Range</th><th>Unit</th></tr><tr><td>Appearance of Urine</td></tr></table></div>"
        },
        "status": "final",
        "subject": {
          "reference": "urn:uuid:76a736c1-0a8f-423d-8e12-231f7b01c13f",
          "display": "Pelayo Casal"
        },
        "effectiveDateTime": "2021-05-20T05:38:59Z",
        "specimen": {
          "reference": "urn:uuid:570a6b30-deef-4369-b76e-b9c512ab37af"
        }
      }
    },
    {
      "fullUrl": "urn:uuid:d2f4e4f6-6804-4a86-b509-7b8291d6051c",
      "resource": {
        "resourceType": "Observation",
        "id": "d2f4e4f6-6804-4a86-b509-7b8291d6051c",
        "meta": {
          "profile": [
            "http://hl7.eu/fhir/laboratory/StructureDefinition/Observation-resultslab-eu-lab"
          ]
        },
        "performer": [
          {
            "display": "The Central European Lab"
          }
        ],
        "category": [
          {
            "coding": [
              {
                "system": "http://terminology.hl7.org/CodeSystem/observation-category",
                "code": "laboratory"
              }
            ]
          }
        ],
        "code": {
          "coding": [
            {
              "code": "34533-0",
              "system": "http://loinc.org",
              "display": "Odor of Urine"
            }
          ],
          "text": "Odor of Urine"
        },
        "text": {
          "status": "generated",
          "div": "<div xmlns=\"http://www.w3.org/1999/xhtml\"><table class=\"hl7__eu__lab__report\"><tr><th>Test</th><th>20-May-2021</th><th>Reference&#xA0;Range</th><th>Unit</th></tr><tr><td>Odor of Urine</td></tr></table></div>"
        },
        "status": "final",
        "subject": {
          "reference": "urn:uuid:76a736c1-0a8f-423d-8e12-231f7b01c13f",
          "display": "Pelayo Casal"
        },
        "effectiveDateTime": "2021-05-20T05:38:59Z",
        "specimen": {
          "reference": "urn:uuid:570a6b30-deef-4369-b76e-b9c512ab37af"
        }
      }
    },
    {
      "fullUrl": "urn:uuid:0f9bbcca-6c33-4391-af5a-6d9cab3a3e42",
      "resource": {
        "resourceType": "Observation",
        "id": "0f9bbcca-6c33-4391-af5a-6d9cab3a3e42",
        "meta": {
          "profile": [
            "http://hl7.eu/fhir/laboratory/StructureDefinition/Observation-resultslab-eu-lab"
          ]
        },
        "performer": [
          {
            "display": "The Central European Lab"
          }
        ],
        "category": [
          {
            "coding": [
              {
                "system": "http://terminology.hl7.org/CodeSystem/observation-category",
                "code": "laboratory"
              }
            ]
          }
        ],
        "code": {
          "coding": [
            {
              "code": "32167-9",
              "system": "http://loinc.org",
              "display": "Clarity of Urine"
            }
          ],
          "text": "Clarity of Urine"
        },
        "text": {
          "status": "generated",
          "div": "<div xmlns=\"http://www.w3.org/1999/xhtml\"><table class=\"hl7__eu__lab__report\"><tr><th>Test</th><th>20-May-2021</th><th>Reference&#xA0;Range</th><th>Unit</th></tr><tr><td>Clarity of Urine</td></tr></table></div>"
        },
        "status": "final",
        "subject": {
          "reference": "urn:uuid:76a736c1-0a8f-423d-8e12-231f7b01c13f",
          "display": "Pelayo Casal"
        },
        "effectiveDateTime": "2021-05-20T05:38:59Z",
        "specimen": {
          "reference": "urn:uuid:570a6b30-deef-4369-b76e-b9c512ab37af"
        }
      }
    },
    {
      "fullUrl": "urn:uuid:3e980233-81a3-4d78-8746-2d5dfe725305",
      "resource": {
        "resourceType": "Observation",
        "id": "3e980233-81a3-4d78-8746-2d5dfe725305",
        "meta": {
          "profile": [
            "http://hl7.eu/fhir/laboratory/StructureDefinition/Observation-resultslab-eu-lab"
          ]
        },
        "performer": [
          {
            "display": "The Central European Lab"
          }
        ],
        "category": [
          {
            "coding": [
              {
                "system": "http://terminology.hl7.org/CodeSystem/observation-category",
                "code": "laboratory"
              }
            ]
          }
        ],
        "code": {
          "coding": [
            {
              "code": "5778-6",
              "system": "http://loinc.org",
              "display": "Color of Urine"
            }
          ],
          "text": "Color of Urine"
        },
        "text": {
          "status": "generated",
          "div": "<div xmlns=\"http://www.w3.org/1999/xhtml\"><table class=\"hl7__eu__lab__report\"><tr><th>Test</th><th>20-May-2021</th><th>Reference&#xA0;Range</th><th>Unit</th></tr><tr><td>Color of Urine</td></tr></table></div>"
        },
        "status": "final",
        "subject": {
          "reference": "urn:uuid:76a736c1-0a8f-423d-8e12-231f7b01c13f",
          "display": "Pelayo Casal"
        },
        "effectiveDateTime": "2021-05-20T05:38:59Z",
        "specimen": {
          "reference": "urn:uuid:570a6b30-deef-4369-b76e-b9c512ab37af"
        }
      }
    },
    {
      "fullUrl": "urn:uuid:0e126dfa-e45a-4639-9567-d72c02c52046",
      "resource": {
        "resourceType": "Observation",
        "id": "0e126dfa-e45a-4639-9567-d72c02c52046",
        "meta": {
          "profile": [
            "http://hl7.eu/fhir/laboratory/StructureDefinition/Observation-resultslab-eu-lab"
          ]
        },
        "performer": [
          {
            "display": "The Central European Lab"
          }
        ],
        "category": [
          {
            "coding": [
              {
                "system": "http://terminology.hl7.org/CodeSystem/observation-category",
                "code": "laboratory"
              }
            ]
          }
        ],
        "code": {
          "coding": [
            {
              "code": "5792-7",
              "system": "http://loinc.org",
              "display": "Glucose [Mass/volume] in Urine by Test strip"
            }
          ],
          "text": "Glucose [Mass/volume] in Urine by Test strip"
        },
        "valueQuantity": {
          "system": "http://unitsofmeasure.org",
          "value": 1.1,
          "unit": "mg/dL",
          "code": "mg/dL"
        },
        "referenceRange": [
          {
            "low": {
              "value": 0.8,
              "code": "mg/dL",
              "system": "http://unitsofmeasure.org"
            }
          },
          {
            "high": {
              "value": 0,
              "code": "mg/dL",
              "system": "http://unitsofmeasure.org"
            }
          }
        ],
        "interpretation": [
          {
            "coding": [
              {
                "code": "H",
                "system": "http://terminology.hl7.org/CodeSystem/v3-ObservationInterpretation",
                "display": "High"
              }
            ]
          }
        ],
        "text": {
          "status": "generated",
          "div": "<div xmlns=\"http://www.w3.org/1999/xhtml\"><table class=\"hl7__eu__lab__report\"><tr><th>Test</th><th>20-May-2021</th><th>Reference&#xA0;Range</th><th>Unit</th></tr><tr><td>Glucose [Mass/volume] in Urine by Test strip</td><td>1.1</td><td>0.8 - 0</td><td>H</td><td>mg/dL</td></tr></table></div>"
        },
        "status": "final",
        "subject": {
          "reference": "urn:uuid:76a736c1-0a8f-423d-8e12-231f7b01c13f",
          "display": "Pelayo Casal"
        },
        "effectiveDateTime": "2021-05-20T05:38:59Z",
        "specimen": {
          "reference": "urn:uuid:570a6b30-deef-4369-b76e-b9c512ab37af"
        }
      }
    },
    {
      "fullUrl": "urn:uuid:4ed4ac1d-f759-4340-b5f7-8a306d3571c7",
      "resource": {
        "resourceType": "Observation",
        "id": "4ed4ac1d-f759-4340-b5f7-8a306d3571c7",
        "meta": {
          "profile": [
            "http://hl7.eu/fhir/laboratory/StructureDefinition/Observation-resultslab-eu-lab"
          ]
        },
        "performer": [
          {
            "display": "The Central European Lab"
          }
        ],
        "category": [
          {
            "coding": [
              {
                "system": "http://terminology.hl7.org/CodeSystem/observation-category",
                "code": "laboratory"
              }
            ]
          }
        ],
        "code": {
          "coding": [
            {
              "code": "25428-4",
              "system": "http://loinc.org",
              "display": "Glucose [Presence] in Urine by Test strip"
            }
          ],
          "text": "Glucose [Presence] in Urine by Test strip"
        },
        "text": {
          "status": "generated",
          "div": "<div xmlns=\"http://www.w3.org/1999/xhtml\"><table class=\"hl7__eu__lab__report\"><tr><th>Test</th><th>20-May-2021</th><th>Reference&#xA0;Range</th><th>Unit</th></tr><tr><td>Glucose [Presence] in Urine by Test strip</td></tr></table></div>"
        },
        "status": "final",
        "subject": {
          "reference": "urn:uuid:76a736c1-0a8f-423d-8e12-231f7b01c13f",
          "display": "Pelayo Casal"
        },
        "effectiveDateTime": "2021-05-20T05:38:59Z",
        "specimen": {
          "reference": "urn:uuid:570a6b30-deef-4369-b76e-b9c512ab37af"
        }
      }
    },
    {
      "fullUrl": "urn:uuid:65647be6-aa96-424b-b26c-824a7d9d579f",
      "resource": {
        "resourceType": "Observation",
        "id": "65647be6-aa96-424b-b26c-824a7d9d579f",
        "meta": {
          "profile": [
            "http://hl7.eu/fhir/laboratory/StructureDefinition/Observation-resultslab-eu-lab"
          ]
        },
        "performer": [
          {
            "display": "The Central European Lab"
          }
        ],
        "category": [
          {
            "coding": [
              {
                "system": "http://terminology.hl7.org/CodeSystem/observation-category",
                "code": "laboratory"
              }
            ]
          }
        ],
        "code": {
          "coding": [
            {
              "code": "20505-4",
              "system": "http://loinc.org",
              "display": "Bilirubin.total [Mass/volume] in Urine by Test strip"
            }
          ],
          "text": "Bilirubin.total [Mass/volume] in Urine by Test strip"
        },
        "valueQuantity": {
          "system": "http://unitsofmeasure.org",
          "value": 0.4,
          "unit": "mg/dL",
          "code": "mg/dL"
        },
        "referenceRange": [
          {
            "low": {
              "value": 0.2,
              "code": "mg/dL",
              "system": "http://unitsofmeasure.org"
            }
          },
          {
            "high": {
              "value": 1.5,
              "code": "mg/dL",
              "system": "http://unitsofmeasure.org"
            }
          }
        ],
        "text": {
          "status": "generated",
          "div": "<div xmlns=\"http://www.w3.org/1999/xhtml\"><table class=\"hl7__eu__lab__report\"><tr><th>Test</th><th>20-May-2021</th><th>Reference&#xA0;Range</th><th>Unit</th></tr><tr><td>Bilirubin.total [Mass/volume] in Urine by Test strip</td><td>0.4</td><td>0.2 - 1.5</td><td></td><td>mg/dL</td></tr></table></div>"
        },
        "status": "final",
        "subject": {
          "reference": "urn:uuid:76a736c1-0a8f-423d-8e12-231f7b01c13f",
          "display": "Pelayo Casal"
        },
        "effectiveDateTime": "2021-05-20T05:38:59Z",
        "specimen": {
          "reference": "urn:uuid:570a6b30-deef-4369-b76e-b9c512ab37af"
        }
      }
    },
    {
      "fullUrl": "urn:uuid:449d2917-04f3-4983-8f5a-936cd800cde6",
      "resource": {
        "resourceType": "Observation",
        "id": "449d2917-04f3-4983-8f5a-936cd800cde6",
        "meta": {
          "profile": [
            "http://hl7.eu/fhir/laboratory/StructureDefinition/Observation-resultslab-eu-lab"
          ]
        },
        "performer": [
          {
            "display": "The Central European Lab"
          }
        ],
        "category": [
          {
            "coding": [
              {
                "system": "http://terminology.hl7.org/CodeSystem/observation-category",
                "code": "laboratory"
              }
            ]
          }
        ],
        "code": {
          "coding": [
            {
              "code": "5770-3",
              "system": "http://loinc.org",
              "display": "Bilirubin.total [Presence] in Urine by Test strip"
            }
          ],
          "text": "Bilirubin.total [Presence] in Urine by Test strip"
        },
        "text": {
          "status": "generated",
          "div": "<div xmlns=\"http://www.w3.org/1999/xhtml\"><table class=\"hl7__eu__lab__report\"><tr><th>Test</th><th>20-May-2021</th><th>Reference&#xA0;Range</th><th>Unit</th></tr><tr><td>Bilirubin.total [Presence] in Urine by Test strip</td></tr></table></div>"
        },
        "status": "final",
        "subject": {
          "reference": "urn:uuid:76a736c1-0a8f-423d-8e12-231f7b01c13f",
          "display": "Pelayo Casal"
        },
        "effectiveDateTime": "2021-05-20T05:38:59Z",
        "specimen": {
          "reference": "urn:uuid:570a6b30-deef-4369-b76e-b9c512ab37af"
        }
      }
    },
    {
      "fullUrl": "urn:uuid:5f440a39-58e8-4af2-bbcc-88a983387fbb",
      "resource": {
        "resourceType": "Observation",
        "id": "5f440a39-58e8-4af2-bbcc-88a983387fbb",
        "meta": {
          "profile": [
            "http://hl7.eu/fhir/laboratory/StructureDefinition/Observation-resultslab-eu-lab"
          ]
        },
        "performer": [
          {
            "display": "The Central European Lab"
          }
        ],
        "category": [
          {
            "coding": [
              {
                "system": "http://terminology.hl7.org/CodeSystem/observation-category",
                "code": "laboratory"
              }
            ]
          }
        ],
        "code": {
          "coding": [
            {
              "code": "5797-6",
              "system": "http://loinc.org",
              "display": "Ketones [Mass/volume] in Urine by Test strip"
            }
          ],
          "text": "Ketones [Mass/volume] in Urine by Test strip"
        },
        "valueQuantity": {
          "system": "http://unitsofmeasure.org",
          "value": 5.1,
          "unit": "mg/dL",
          "code": "mg/dL"
        },
        "referenceRange": [
          {
            "low": {
              "value": 0,
              "code": "mg/dL",
              "system": "http://unitsofmeasure.org"
            }
          },
          {
            "high": {
              "value": 4,
              "code": "mg/dL",
              "system": "http://unitsofmeasure.org"
            }
          }
        ],
        "interpretation": [
          {
            "coding": [
              {
                "code": "H",
                "system": "http://terminology.hl7.org/CodeSystem/v3-ObservationInterpretation",
                "display": "High"
              }
            ]
          }
        ],
        "text": {
          "status": "generated",
          "div": "<div xmlns=\"http://www.w3.org/1999/xhtml\"><table class=\"hl7__eu__lab__report\"><tr><th>Test</th><th>20-May-2021</th><th>Reference&#xA0;Range</th><th>Unit</th></tr><tr><td>Ketones [Mass/volume] in Urine by Test strip</td><td>5.1</td><td>0 - 4</td><td>H</td><td>mg/dL</td></tr></table></div>"
        },
        "status": "final",
        "subject": {
          "reference": "urn:uuid:76a736c1-0a8f-423d-8e12-231f7b01c13f",
          "display": "Pelayo Casal"
        },
        "effectiveDateTime": "2021-05-20T05:38:59Z",
        "specimen": {
          "reference": "urn:uuid:570a6b30-deef-4369-b76e-b9c512ab37af"
        }
      }
    },
    {
      "fullUrl": "urn:uuid:f0862135-4536-4469-9cb5-4432db8db2a7",
      "resource": {
        "resourceType": "Observation",
        "id": "f0862135-4536-4469-9cb5-4432db8db2a7",
        "meta": {
          "profile": [
            "http://hl7.eu/fhir/laboratory/StructureDefinition/Observation-resultslab-eu-lab"
          ]
        },
        "performer": [
          {
            "display": "The Central European Lab"
          }
        ],
        "category": [
          {
            "coding": [
              {
                "system": "http://terminology.hl7.org/CodeSystem/observation-category",
                "code": "laboratory"
              }
            ]
          }
        ],
        "code": {
          "coding": [
            {
              "code": "2514-8",
              "system": "http://loinc.org",
              "display": "Ketones [Presence] in Urine by Test strip"
            }
          ],
          "text": "Ketones [Presence] in Urine by Test strip"
        },
        "text": {
          "status": "generated",
          "div": "<div xmlns=\"http://www.w3.org/1999/xhtml\"><table class=\"hl7__eu__lab__report\"><tr><th>Test</th><th>20-May-2021</th><th>Reference&#xA0;Range</th><th>Unit</th></tr><tr><td>Ketones [Presence] in Urine by Test strip</td></tr></table></div>"
        },
        "status": "final",
        "subject": {
          "reference": "urn:uuid:76a736c1-0a8f-423d-8e12-231f7b01c13f",
          "display": "Pelayo Casal"
        },
        "effectiveDateTime": "2021-05-20T05:38:59Z",
        "specimen": {
          "reference": "urn:uuid:570a6b30-deef-4369-b76e-b9c512ab37af"
        }
      }
    },
    {
      "fullUrl": "urn:uuid:1c905c0a-7c16-4357-809b-bec7fa1cdb3e",
      "resource": {
        "resourceType": "Observation",
        "id": "1c905c0a-7c16-4357-809b-bec7fa1cdb3e",
        "meta": {
          "profile": [
            "http://hl7.eu/fhir/laboratory/StructureDefinition/Observation-resultslab-eu-lab"
          ]
        },
        "performer": [
          {
            "display": "The Central European Lab"
          }
        ],
        "category": [
          {
            "coding": [
              {
                "system": "http://terminology.hl7.org/CodeSystem/observation-category",
                "code": "laboratory"
              }
            ]
          }
        ],
        "code": {
          "coding": [
            {
              "code": "5811-5",
              "system": "http://loinc.org",
              "display": "Specific gravity of Urine by Test strip"
            }
          ],
          "text": "Specific gravity of Urine by Test strip"
        },
        "valueQuantity": {
          "system": "http://unitsofmeasure.org",
          "value": 1,
          "unit": "{nominal}",
          "code": "{nominal}"
        },
        "referenceRange": [
          {
            "low": {
              "value": 1.01,
              "code": "g/mL",
              "system": "http://unitsofmeasure.org"
            }
          },
          {
            "high": {
              "value": 1.03,
              "code": "g/mL",
              "system": "http://unitsofmeasure.org"
            }
          }
        ],
        "interpretation": [
          {
            "coding": [
              {
                "code": "L",
                "system": "http://terminology.hl7.org/CodeSystem/v3-ObservationInterpretation",
                "display": "Low"
              }
            ]
          }
        ],
        "text": {
          "status": "generated",
          "div": "<div xmlns=\"http://www.w3.org/1999/xhtml\"><table class=\"hl7__eu__lab__report\"><tr><th>Test</th><th>20-May-2021</th><th>Reference&#xA0;Range</th><th>Unit</th></tr><tr><td>Specific gravity of Urine by Test strip</td><td>1.0</td><td>1.01 - 1.03</td><td>L</td><td>{nominal}</td></tr></table></div>"
        },
        "status": "final",
        "subject": {
          "reference": "urn:uuid:76a736c1-0a8f-423d-8e12-231f7b01c13f",
          "display": "Pelayo Casal"
        },
        "effectiveDateTime": "2021-05-20T05:38:59Z",
        "specimen": {
          "reference": "urn:uuid:570a6b30-deef-4369-b76e-b9c512ab37af"
        }
      }
    },
    {
      "fullUrl": "urn:uuid:cbf5cf1f-61fe-4eb2-b114-8227a9127edb",
      "resource": {
        "resourceType": "Observation",
        "id": "cbf5cf1f-61fe-4eb2-b114-8227a9127edb",
        "meta": {
          "profile": [
            "http://hl7.eu/fhir/laboratory/StructureDefinition/Observation-resultslab-eu-lab"
          ]
        },
        "performer": [
          {
            "display": "The Central European Lab"
          }
        ],
        "category": [
          {
            "coding": [
              {
                "system": "http://terminology.hl7.org/CodeSystem/observation-category",
                "code": "laboratory"
              }
            ]
          }
        ],
        "code": {
          "coding": [
            {
              "code": "5803-2",
              "system": "http://loinc.org",
              "display": "pH of Urine by Test strip"
            }
          ],
          "text": "pH of Urine by Test strip"
        },
        "valueQuantity": {
          "system": "http://unitsofmeasure.org",
          "value": 6.5,
          "unit": "pH",
          "code": "pH"
        },
        "referenceRange": [
          {
            "low": {
              "value": 4.5,
              "code": "pH",
              "system": "http://unitsofmeasure.org"
            }
          },
          {
            "high": {
              "value": 7.5,
              "code": "pH",
              "system": "http://unitsofmeasure.org"
            }
          }
        ],
        "text": {
          "status": "generated",
          "div": "<div xmlns=\"http://www.w3.org/1999/xhtml\"><table class=\"hl7__eu__lab__report\"><tr><th>Test</th><th>20-May-2021</th><th>Reference&#xA0;Range</th><th>Unit</th></tr><tr><td>pH of Urine by Test strip</td><td>6.5</td><td>4.5 - 7.5</td><td></td><td>pH</td></tr></table></div>"
        },
        "status": "final",
        "subject": {
          "reference": "urn:uuid:76a736c1-0a8f-423d-8e12-231f7b01c13f",
          "display": "Pelayo Casal"
        },
        "effectiveDateTime": "2021-05-20T05:38:59Z",
        "specimen": {
          "reference": "urn:uuid:570a6b30-deef-4369-b76e-b9c512ab37af"
        }
      }
    },
    {
      "fullUrl": "urn:uuid:73762423-2b85-4139-b0f6-b473195123e3",
      "resource": {
        "resourceType": "Observation",
        "id": "73762423-2b85-4139-b0f6-b473195123e3",
        "meta": {
          "profile": [
            "http://hl7.eu/fhir/laboratory/StructureDefinition/Observation-resultslab-eu-lab"
          ]
        },
        "performer": [
          {
            "display": "The Central European Lab"
          }
        ],
        "category": [
          {
            "coding": [
              {
                "system": "http://terminology.hl7.org/CodeSystem/observation-category",
                "code": "laboratory"
              }
            ]
          }
        ],
        "code": {
          "coding": [
            {
              "code": "5804-0",
              "system": "http://loinc.org",
              "display": "Protein [Mass/volume] in Urine by Test strip"
            }
          ],
          "text": "Protein [Mass/volume] in Urine by Test strip"
        },
        "valueQuantity": {
          "system": "http://unitsofmeasure.org",
          "value": 222,
          "unit": "mg/dL",
          "code": "mg/dL"
        },
        "referenceRange": [
          {
            "low": {
              "value": 0,
              "code": "mg/dL",
              "system": "http://unitsofmeasure.org"
            }
          },
          {
            "high": {
              "value": 150,
              "code": "mg/dL",
              "system": "http://unitsofmeasure.org"
            }
          }
        ],
        "interpretation": [
          {
            "coding": [
              {
                "code": "H",
                "system": "http://terminology.hl7.org/CodeSystem/v3-ObservationInterpretation",
                "display": "High"
              }
            ]
          }
        ],
        "text": {
          "status": "generated",
          "div": "<div xmlns=\"http://www.w3.org/1999/xhtml\"><table class=\"hl7__eu__lab__report\"><tr><th>Test</th><th>20-May-2021</th><th>Reference&#xA0;Range</th><th>Unit</th></tr><tr><td>Protein [Mass/volume] in Urine by Test strip</td><td>222.0</td><td>0 - 150</td><td>H</td><td>mg/dL</td></tr></table></div>"
        },
        "status": "final",
        "subject": {
          "reference": "urn:uuid:76a736c1-0a8f-423d-8e12-231f7b01c13f",
          "display": "Pelayo Casal"
        },
        "effectiveDateTime": "2021-05-20T05:38:59Z",
        "specimen": {
          "reference": "urn:uuid:570a6b30-deef-4369-b76e-b9c512ab37af"
        }
      }
    },
    {
      "fullUrl": "urn:uuid:bc4d6229-e67a-443d-a431-5bcdfba9666f",
      "resource": {
        "resourceType": "Observation",
        "id": "bc4d6229-e67a-443d-a431-5bcdfba9666f",
        "meta": {
          "profile": [
            "http://hl7.eu/fhir/laboratory/StructureDefinition/Observation-resultslab-eu-lab"
          ]
        },
        "performer": [
          {
            "display": "The Central European Lab"
          }
        ],
        "category": [
          {
            "coding": [
              {
                "system": "http://terminology.hl7.org/CodeSystem/observation-category",
                "code": "laboratory"
              }
            ]
          }
        ],
        "code": {
          "coding": [
            {
              "code": "20454-5",
              "system": "http://loinc.org",
              "display": "Protein [Presence] in Urine by Test strip"
            }
          ],
          "text": "Protein [Presence] in Urine by Test strip"
        },
        "text": {
          "status": "generated",
          "div": "<div xmlns=\"http://www.w3.org/1999/xhtml\"><table class=\"hl7__eu__lab__report\"><tr><th>Test</th><th>20-May-2021</th><th>Reference&#xA0;Range</th><th>Unit</th></tr><tr><td>Protein [Presence] in Urine by Test strip</td></tr></table></div>"
        },
        "status": "final",
        "subject": {
          "reference": "urn:uuid:76a736c1-0a8f-423d-8e12-231f7b01c13f",
          "display": "Pelayo Casal"
        },
        "effectiveDateTime": "2021-05-20T05:38:59Z",
        "specimen": {
          "reference": "urn:uuid:570a6b30-deef-4369-b76e-b9c512ab37af"
        }
      }
    },
    {
      "fullUrl": "urn:uuid:05d4cc0b-4bac-4965-a8bb-2cc29134ccc7",
      "resource": {
        "resourceType": "Observation",
        "id": "05d4cc0b-4bac-4965-a8bb-2cc29134ccc7",
        "meta": {
          "profile": [
            "http://hl7.eu/fhir/laboratory/StructureDefinition/Observation-resultslab-eu-lab"
          ]
        },
        "performer": [
          {
            "display": "The Central European Lab"
          }
        ],
        "category": [
          {
            "coding": [
              {
                "system": "http://terminology.hl7.org/CodeSystem/observation-category",
                "code": "laboratory"
              }
            ]
          }
        ],
        "code": {
          "coding": [
            {
              "code": "5802-4",
              "system": "http://loinc.org",
              "display": "Nitrite [Presence] in Urine by Test strip"
            }
          ],
          "text": "Nitrite [Presence] in Urine by Test strip"
        },
        "text": {
          "status": "generated",
          "div": "<div xmlns=\"http://www.w3.org/1999/xhtml\"><table class=\"hl7__eu__lab__report\"><tr><th>Test</th><th>20-May-2021</th><th>Reference&#xA0;Range</th><th>Unit</th></tr><tr><td>Nitrite [Presence] in Urine by Test strip</td></tr></table></div>"
        },
        "status": "final",
        "subject": {
          "reference": "urn:uuid:76a736c1-0a8f-423d-8e12-231f7b01c13f",
          "display": "Pelayo Casal"
        },
        "effectiveDateTime": "2021-05-20T05:38:59Z",
        "specimen": {
          "reference": "urn:uuid:570a6b30-deef-4369-b76e-b9c512ab37af"
        }
      }
    },
    {
      "fullUrl": "urn:uuid:a4e84c9d-c39c-4363-a703-57fb4311448e",
      "resource": {
        "resourceType": "Observation",
        "id": "a4e84c9d-c39c-4363-a703-57fb4311448e",
        "meta": {
          "profile": [
            "http://hl7.eu/fhir/laboratory/StructureDefinition/Observation-resultslab-eu-lab"
          ]
        },
        "performer": [
          {
            "display": "The Central European Lab"
          }
        ],
        "category": [
          {
            "coding": [
              {
                "system": "http://terminology.hl7.org/CodeSystem/observation-category",
                "code": "laboratory"
              }
            ]
          }
        ],
        "code": {
          "coding": [
            {
              "code": "5794-3",
              "system": "http://loinc.org",
              "display": "Hemoglobin [Presence] in Urine by Test strip"
            }
          ],
          "text": "Hemoglobin [Presence] in Urine by Test strip"
        },
        "text": {
          "status": "generated",
          "div": "<div xmlns=\"http://www.w3.org/1999/xhtml\"><table class=\"hl7__eu__lab__report\"><tr><th>Test</th><th>20-May-2021</th><th>Reference&#xA0;Range</th><th>Unit</th></tr><tr><td>Hemoglobin [Presence] in Urine by Test strip</td></tr></table></div>"
        },
        "status": "final",
        "subject": {
          "reference": "urn:uuid:76a736c1-0a8f-423d-8e12-231f7b01c13f",
          "display": "Pelayo Casal"
        },
        "effectiveDateTime": "2021-05-20T05:38:59Z",
        "specimen": {
          "reference": "urn:uuid:570a6b30-deef-4369-b76e-b9c512ab37af"
        }
      }
    },
    {
      "fullUrl": "urn:uuid:1b9e4e9b-8fc4-4133-a0c6-9c9fb0346eda",
      "resource": {
        "resourceType": "Observation",
        "id": "1b9e4e9b-8fc4-4133-a0c6-9c9fb0346eda",
        "meta": {
          "profile": [
            "http://hl7.eu/fhir/laboratory/StructureDefinition/Observation-resultslab-eu-lab"
          ]
        },
        "performer": [
          {
            "display": "The Central European Lab"
          }
        ],
        "category": [
          {
            "coding": [
              {
                "system": "http://terminology.hl7.org/CodeSystem/observation-category",
                "code": "laboratory"
              }
            ]
          }
        ],
        "code": {
          "coding": [
            {
              "code": "5799-2",
              "system": "http://loinc.org",
              "display": "Leukocyte esterase [Presence] in Urine by Test strip"
            }
          ],
          "text": "Leukocyte esterase [Presence] in Urine by Test strip"
        },
        "text": {
          "status": "generated",
          "div": "<div xmlns=\"http://www.w3.org/1999/xhtml\"><table class=\"hl7__eu__lab__report\"><tr><th>Test</th><th>20-May-2021</th><th>Reference&#xA0;Range</th><th>Unit</th></tr><tr><td>Leukocyte esterase [Presence] in Urine by Test strip</td></tr></table></div>"
        },
        "status": "final",
        "subject": {
          "reference": "urn:uuid:76a736c1-0a8f-423d-8e12-231f7b01c13f",
          "display": "Pelayo Casal"
        },
        "effectiveDateTime": "2021-05-20T05:38:59Z",
        "specimen": {
          "reference": "urn:uuid:570a6b30-deef-4369-b76e-b9c512ab37af"
        }
      }
    },
    {
      "fullUrl": "urn:uuid:2640b959-9896-4634-8b8d-f49461d960e2",
      "resource": {
        "resourceType": "Observation",
        "id": "2640b959-9896-4634-8b8d-f49461d960e2",
        "meta": {
          "profile": [
            "http://hl7.eu/fhir/laboratory/StructureDefinition/Observation-resultslab-eu-lab"
          ]
        },
        "performer": [
          {
            "display": "The Central European Lab"
          }
        ],
        "category": [
          {
            "coding": [
              {
                "system": "http://terminology.hl7.org/CodeSystem/observation-category",
                "code": "laboratory"
              }
            ]
          }
        ],
        "code": {
          "coding": [
            {
              "code": "4548-4",
              "system": "http://loinc.org",
              "display": "Hemoglobin A1c/Hemoglobin.total in Blood"
            }
          ],
          "text": "Hemoglobin A1c/Hemoglobin.total in Blood"
        },
        "valueQuantity": {
          "system": "http://unitsofmeasure.org",
          "value": 3,
          "unit": "%",
          "code": "%"
        },
        "referenceRange": [
          {
            "low": {
              "value": 4.5,
              "code": "%",
              "system": "http://unitsofmeasure.org"
            }
          },
          {
            "high": {
              "value": 6.4,
              "code": "%",
              "system": "http://unitsofmeasure.org"
            }
          }
        ],
        "interpretation": [
          {
            "coding": [
              {
                "code": "L",
                "system": "http://terminology.hl7.org/CodeSystem/v3-ObservationInterpretation",
                "display": "Low"
              }
            ]
          }
        ],
        "text": {
          "status": "generated",
          "div": "<div xmlns=\"http://www.w3.org/1999/xhtml\"><table class=\"hl7__eu__lab__report\"><tr><th>Test</th><th>20-May-2021</th><th>Reference&#xA0;Range</th><th>Unit</th></tr><tr><td>Hemoglobin A1c/Hemoglobin.total in Blood</td><td>3.0</td><td>4.5 - 6.4</td><td>L</td><td>%</td></tr></table></div>"
        },
        "status": "final",
        "subject": {
          "reference": "urn:uuid:76a736c1-0a8f-423d-8e12-231f7b01c13f",
          "display": "Pelayo Casal"
        },
        "effectiveDateTime": "2021-05-20T05:38:59Z",
        "specimen": {
          "reference": "urn:uuid:eeb5b586-d784-46e5-a296-1f745b4abd0d"
        }
      }
    },
    {
      "fullUrl": "urn:uuid:5a18f610-4bac-42ec-b261-87fddb7c7e81",
      "resource": {
        "resourceType": "Device",
        "id": "5a18f610-4bac-42ec-b261-87fddb7c7e81",
        "deviceName": [
          {
            "name": "SYNDERAI Synthetic Generator",
            "type": "manufacturer-name"
          }
        ],
        "version": [
          {
            "value": "5.0"
          }
        ],
        "text": {
          "status": "generated",
          "div": "<div xmlns=\"http://www.w3.org/1999/xhtml\">SYNDERAI Synthetic Generator v5.0</div>"
        },
        "status": "active\"",
        "distinctIdentifier": "synderai-generator-50",
        "manufacturer": "SYNDERAI Project"
      }
    },
    {
      "fullUrl": "urn:uuid:13b88a96-9a17-4807-bdd8-ef505cead42c",
      "resource": {
        "resourceType": "Provenance",
        "id": "13b88a96-9a17-4807-bdd8-ef505cead42c",
        "target": [
          {
            "reference": "Patient/76a736c1-0a8f-423d-8e12-231f7b01c13f"
          },
          {
            "reference": "Bundle/aaea69aa-1721-4e7b-af34-95348ec52f08"
          },
          {
            "reference": "Composition/c18b2ad4-bec2-4fe9-9e37-59b5353a34b4"
          },
          {
            "reference": "PractitionerRole/ecb281b6-0e49-4534-a084-a3a1af124258"
          },
          {
            "reference": "Practitioner/5fa48f10-2e51-419c-a22f-be594ed830e7"
          },
          {
            "reference": "PractitionerRole/5e671b7c-4edd-4570-a8c0-740e9a8def99"
          },
          {
            "reference": "Organization/ae817eeb-eb35-44cd-8f8a-34d54c3419ee"
          }
        ],
        "activity": {
          "text": "Synthetic Example Data Generation"
        },
        "policy": [
          "https://synderai.net/synderai-synthetic-data-policy"
        ],
        "agent": [
          {
            "type": {
              "text": "author"
            },
            "who": {
              "reference": "Device/5a18f610-4bac-42ec-b261-87fddb7c7e81"
            }
          }
        ],
        "reason": [
          {
            "text": "Interoperability Testing and Training (non-clinical use)"
          }
        ],
        "text": {
          "status": "generated",
          "div": "<div xmlns=\"http://www.w3.org/1999/xhtml\">Provenance for SYNDERAI Synthetic Example Data Resource</div>"
        },
        "recorded": "2021-05-20T07:38:59Z"
      }
    },
    {
      "fullUrl": "urn:uuid:ecb281b6-0e49-4534-a084-a3a1af124258",
      "resource": {
        "resourceType": "PractitionerRole",
        "id": "ecb281b6-0e49-4534-a084-a3a1af124258",
        "meta": {
          "profile": [
            "http://hl7.eu/fhir/base/StructureDefinition/practitionerRole-eu"
          ]
        },
        "text": {
          "status": "generated",
          "div": "<div xmlns=\"http://www.w3.org/1999/xhtml\">Laboratory Role Id: ecb281b6-0e49-4534-a084-a3a1af124258</div>"
        },
        "practitioner": {
          "reference": "urn:uuid:5fa48f10-2e51-419c-a22f-be594ed830e7"
        }
      }
    },
    {
      "fullUrl": "urn:uuid:5fa48f10-2e51-419c-a22f-be594ed830e7",
      "resource": {
        "resourceType": "Practitioner",
        "id": "5fa48f10-2e51-419c-a22f-be594ed830e7",
        "meta": {
          "profile": [
            "http://hl7.eu/fhir/base/StructureDefinition/practitioner-eu"
          ]
        },
        "identifier": [
          {
            "assigner": {
              "display": "HL7 Europe"
            },
            "system": "urn:oid:2.16.840.1.113883.2.51.999",
            "value": "c8c13745-bd74-43e4-b6d2-6fd7e5f122a4"
          }
        ],
        "name": [
          {
            "prefix": [
              "dr"
            ],
            "given": [
              "Ex"
            ],
            "family": "Ample"
          }
        ],
        "address": [
          {
            "line": [
              "Laboratoire Central Européenne",
              "Boulevard du Jardin Botanique 32"
            ],
            "postalCode": "1000",
            "city": "Brussels",
            "country": "Belgium"
          }
        ],
        "text": {
          "status": "generated",
          "div": "<div xmlns=\"http://www.w3.org/1999/xhtml\">Laboratory: Laboratoire Central Européenne, 1000 Brussels, Belgium</div>"
        }
      }
    }
  ],
  "type": "document",
  "timestamp": "2021-05-20T07:38:59Z"
}
