{
  "resourceType": "Bundle",
  "id": "9cb2f4d6-338e-4638-a55b-5ca799b93705",
  "meta": {
    "profile": [
      "http://hl7.eu/fhir/laboratory/StructureDefinition/Bundle-eu-lab"
    ]
  },
  "identifier": {
    "assigner": {
      "display": "HL7 Europe"
    },
    "system": "urn:oid:2.16.840.1.113883.2.51.999",
    "value": "973409bc-8321-423b-8824-97abdddfb03f"
  },
  "entry": [
    {
      "fullUrl": "urn:uuid:ccc3db55-b8f5-4933-b3db-b4b753b3fbc7",
      "resource": {
        "resourceType": "Composition",
        "id": "ccc3db55-b8f5-4933-b3db-b4b753b3fbc7",
        "meta": {
          "profile": [
            "http://hl7.eu/fhir/laboratory/StructureDefinition/Composition-eu-lab"
          ]
        },
        "identifier": {
          "assigner": {
            "display": "HL7 Europe"
          },
          "system": "urn:oid:2.16.840.1.113883.2.51.999",
          "value": "41f705e0-95a3-4121-abd8-27fb02ccb623"
        },
        "author": [
          {
            "reference": "urn:uuid:410c8fdf-e767-49ff-bf4e-93029d3cad30"
          }
        ],
        "category": [
          {
            "coding": [
              {
                "code": "26436-6",
                "system": "http://loinc.org",
                "display": "Laboratory studies (set)"
              }
            ]
          }
        ],
        "type": {
          "coding": [
            {
              "code": "11502-2",
              "system": "http://loinc.org",
              "display": "Laboratory report"
            }
          ],
          "text": "Laboratory Report"
        },
        "section": [
          {
            "code": {
              "coding": [
                {
                  "code": "26436-6",
                  "system": "http://loinc.org",
                  "display": "Laboratory studies (set)"
                }
              ],
              "text": "Laboratory studies"
            },
            "section": [
              {
                "code": {
                  "coding": [
                    {
                      "code": "$18719-5",
                      "system": "http://loinc.org",
                      "display": "Chemistry studies (set)"
                    }
                  ],
                  "text": "Chemistry"
                },
                "entry": [
                  {
                    "reference": "urn:uuid:f1366e73-5fd1-43f5-8e94-ef8c3938ebfb"
                  },
                  {
                    "reference": "urn:uuid:bd64e7cf-2184-469a-b048-895a7b8bdec0"
                  },
                  {
                    "reference": "urn:uuid:b169f43c-0308-4ac8-a3ab-a8ee9a663e64"
                  },
                  {
                    "reference": "urn:uuid:f920cfe7-20f0-4159-b234-a6b1b08d3507"
                  },
                  {
                    "reference": "urn:uuid:a0afa4eb-a9f9-472b-93a3-88600eca95ee"
                  },
                  {
                    "reference": "urn:uuid:b6dfdfd1-4c73-44aa-b605-416e0fac1f63"
                  },
                  {
                    "reference": "urn:uuid:f938bffe-c62b-45b0-8dc4-e23571fe4562"
                  },
                  {
                    "reference": "urn:uuid:3b8015ca-980f-44de-8395-6f21f0206913"
                  },
                  {
                    "reference": "urn:uuid:95dda56e-59c2-457c-b617-5fb9877364c7"
                  },
                  {
                    "reference": "urn:uuid:cd786ca4-cffa-4967-b25b-4f74ddf289b8"
                  },
                  {
                    "reference": "urn:uuid:d4ee1991-3e81-4113-b255-77a04c8e2f1b"
                  },
                  {
                    "reference": "urn:uuid:f31c1272-e437-4577-8e20-da3b967fbde0"
                  },
                  {
                    "reference": "urn:uuid:387ac23e-d43d-4d62-977c-ead827b2420c"
                  },
                  {
                    "reference": "urn:uuid:9a2a9b67-dd84-46ce-95f7-519dcb91f271"
                  },
                  {
                    "reference": "urn:uuid:5f80d1af-35eb-48a2-bfd9-4ca0823ec294"
                  },
                  {
                    "reference": "urn:uuid:12d986bd-78ff-4714-b394-90347a4caf32"
                  },
                  {
                    "reference": "urn:uuid:8675ff46-9b2f-4e8d-a5e0-fed178da4ddf"
                  },
                  {
                    "reference": "urn:uuid:f1cdd3f8-6ba5-4041-8d00-c8c09e145faa"
                  },
                  {
                    "reference": "urn:uuid:4180fc7d-f9ae-41bd-a2e5-c6f9366e8214"
                  }
                ],
                "text": {
                  "status": "generated",
                  "div": "<div xmlns=\"http://www.w3.org/1999/xhtml\"><h3>Chemistry</h3><table class=\"hl7__eu__lab__report\"><thead><tr><th>Test</th><th>24-NOV-2023</th><th>Reference&#xA0;Range</th><th>Unit</th></tr></thead><tbody><tr><td>Glucose [Mass/volume] in Blood</td><td>72.9</td><td>70 - 140</td><td>mg/dL</td></tr><tr><td>Urea nitrogen [Mass/volume] in Blood</td><td>8.3</td><td>7 - 25</td><td>mg/dL</td></tr><tr><td>Creatinine [Mass/volume] in Blood</td><td><strong>3.1 H</strong></td><td>0.6 - 1.1</td><td>mg/dL</td></tr><tr><td>Calcium [Mass/volume] in Blood</td><td>9.0</td><td>8.6 - 10.4</td><td>mg/dL</td></tr><tr><td>Sodium [Moles/volume] in Blood</td><td>138.6</td><td>135 - 145</td><td>mmol/L</td></tr><tr><td>Potassium [Moles/volume] in Blood</td><td>4.5</td><td>3.5 - 5.3</td><td>mmol/L</td></tr><tr><td>Chloride [Moles/volume] in Blood</td><td><strong>108.4 H</strong></td><td>98 - 108</td><td>mmol/L</td></tr><tr><td>Carbon dioxide, total [Moles/volume] in Blood</td><td>22.3</td><td>22 - 32</td><td>mmol/L</td></tr><tr><td>Protein [Mass/volume] in Serum or Plasma</td><td>7.5</td><td>6.6 - 8.3</td><td>g/dL</td></tr><tr><td>Albumin [Mass/volume] in Serum or Plasma</td><td>4.2</td><td>3.5 - 5.5</td><td>g/dL</td></tr><tr><td>Globulin [Mass/volume] in Serum by calculation</td><td>3.5</td><td>2.2 - 3.7</td><td>g/L</td></tr><tr><td>Bilirubin.total [Mass/volume] in Serum or Plasma</td><td><strong>0.2 L</strong></td><td>0.3 - 1.2</td><td>mg/dL</td></tr><tr><td>Alkaline phosphatase [Enzymatic activity/volume] in Serum or Plasma</td><td>81.1</td><td>40 - 130</td><td>U/L</td></tr><tr><td>Alanine aminotransferase [Enzymatic activity/volume] in Serum or Plasma</td><td>33.1</td><td>7 - 55</td><td>U/L</td></tr><tr><td>Aspartate aminotransferase [Enzymatic activity/volume] in Serum or Plasma</td><td>39.3</td><td>10 - 40</td><td>U/L</td></tr><tr><td>Cholesterol [Mass/volume] in Serum or Plasma</td><td>167.9</td><td>125 - 200</td><td>mg/dL</td></tr><tr><td>Triglyceride [Mass/volume] in Serum or Plasma</td><td>106.7</td><td>10 - 175</td><td>mg/dL</td></tr><tr><td>Cholesterol in LDL [Mass/volume] in Serum or Plasma by Direct assay</td><td><strong>147.1 H</strong></td><td>0 - 130</td><td>mg/dL</td></tr><tr><td>Cholesterol in HDL [Mass/volume] in Serum or Plasma</td><td><strong>32.4 L</strong></td><td>50 - 100</td><td>mg/dL</td></tr></tbody></table></div>"
                },
                "title": "Chemistry"
              }
            ],
            "title": "Laboratory Report"
          },
          {
            "text": {
              "status": "generated",
              "div": "<div xmlns=\"http://www.w3.org/1999/xhtml\"><h3>Annotation</h3><table class=\"hl7__eu__lab__report\"><tr><th>Conclusion and Recommendations based on this report and previous findings known to us</th></tr><tr><td>The patient shows significantly elevated creatinine, suggesting impaired renal function, and mild hyperchloremia. Lipid profile reveals high LDL and low HDL cholesterol, increasing cardiovascular risk. Total bilirubin is slightly below normal but not clinically concerning. Other parameters, including glucose, electrolytes, liver enzymes, and proteins, are within normal limits. Renal function and cardiovascular risk factors should be further evaluated and managed.</td></tr></table></div>"
            },
            "code": {
              "coding": [
                {
                  "system": "http://loinc.org",
                  "code": "48767-8",
                  "display": "Annotation comment"
                }
              ]
            },
            "title": "Annotation comment"
          }
        ],
        "status": "final",
        "subject": {
          "reference": "urn:uuid:dac14935-5e60-4506-aadd-3ccd9d9718fe",
          "display": "Ludmila Vávrová"
        },
        "date": "2023-11-24T04:51:38Z",
        "title": "Laboratory Report",
        "confidentiality": "N"
      }
    },
    {
      "fullUrl": "urn:uuid:ce366d4a-296e-4211-aeb3-a562771ac2ac",
      "resource": {
        "resourceType": "DiagnosticReport",
        "id": "ce366d4a-296e-4211-aeb3-a562771ac2ac",
        "meta": {
          "profile": [
            "http://hl7.eu/fhir/laboratory/StructureDefinition/DiagnosticReport-eu-lab"
          ]
        },
        "identifier": [
          {
            "assigner": {
              "display": "HL7 Europe"
            },
            "system": "urn:oid:2.16.840.1.113883.2.51.999",
            "value": "afb78db0-66f1-427f-b362-acf0bd47082a"
          }
        ],
        "extension": [
          {
            "url": "http://hl7.org/fhir/5.0/StructureDefinition/extension-DiagnosticReport.composition",
            "valueReference": {
              "reference": "urn:uuid:41f705e0-95a3-4121-abd8-27fb02ccb623"
            }
          }
        ],
        "category": [
          {
            "coding": [
              {
                "code": "26436-6",
                "system": "http://loinc.org",
                "display": "Laboratory studies (set)"
              }
            ]
          }
        ],
        "specimen": [
          {
            "reference": "urn:uuid:d3950805-55ac-4f2e-9528-68354074cd6b"
          },
          {
            "reference": "urn:uuid:7a48a3d5-e81b-488a-ac53-9c2ab7ebe336"
          },
          {
            "reference": "urn:uuid:1e57049f-f20c-4cfe-ac4e-f3d4e5d5e7f7"
          }
        ],
        "result": [
          {
            "reference": "urn:uuid:f1366e73-5fd1-43f5-8e94-ef8c3938ebfb"
          },
          {
            "reference": "urn:uuid:bd64e7cf-2184-469a-b048-895a7b8bdec0"
          },
          {
            "reference": "urn:uuid:b169f43c-0308-4ac8-a3ab-a8ee9a663e64"
          },
          {
            "reference": "urn:uuid:f920cfe7-20f0-4159-b234-a6b1b08d3507"
          },
          {
            "reference": "urn:uuid:a0afa4eb-a9f9-472b-93a3-88600eca95ee"
          },
          {
            "reference": "urn:uuid:b6dfdfd1-4c73-44aa-b605-416e0fac1f63"
          },
          {
            "reference": "urn:uuid:f938bffe-c62b-45b0-8dc4-e23571fe4562"
          },
          {
            "reference": "urn:uuid:3b8015ca-980f-44de-8395-6f21f0206913"
          },
          {
            "reference": "urn:uuid:95dda56e-59c2-457c-b617-5fb9877364c7"
          },
          {
            "reference": "urn:uuid:cd786ca4-cffa-4967-b25b-4f74ddf289b8"
          },
          {
            "reference": "urn:uuid:d4ee1991-3e81-4113-b255-77a04c8e2f1b"
          },
          {
            "reference": "urn:uuid:f31c1272-e437-4577-8e20-da3b967fbde0"
          },
          {
            "reference": "urn:uuid:387ac23e-d43d-4d62-977c-ead827b2420c"
          },
          {
            "reference": "urn:uuid:9a2a9b67-dd84-46ce-95f7-519dcb91f271"
          },
          {
            "reference": "urn:uuid:5f80d1af-35eb-48a2-bfd9-4ca0823ec294"
          },
          {
            "reference": "urn:uuid:12d986bd-78ff-4714-b394-90347a4caf32"
          },
          {
            "reference": "urn:uuid:8675ff46-9b2f-4e8d-a5e0-fed178da4ddf"
          },
          {
            "reference": "urn:uuid:f1cdd3f8-6ba5-4041-8d00-c8c09e145faa"
          },
          {
            "reference": "urn:uuid:4180fc7d-f9ae-41bd-a2e5-c6f9366e8214"
          }
        ],
        "status": "registered",
        "code": {
          "coding": [
            {
              "code": "11502-2",
              "system": "http://loinc.org",
              "display": "Laboratory report"
            }
          ]
        },
        "subject": {
          "reference": "urn:uuid:dac14935-5e60-4506-aadd-3ccd9d9718fe",
          "display": "Ludmila Vávrová"
        }
      }
    },
    {
      "fullUrl": "urn:uuid:dac14935-5e60-4506-aadd-3ccd9d9718fe",
      "resource": {
        "resourceType": "Patient",
        "id": "dac14935-5e60-4506-aadd-3ccd9d9718fe",
        "meta": {
          "security": [
            {
              "system": "http://terminology.hl7.org/CodeSystem/v3-ActReason",
              "code": "HTEST"
            },
            {
              "system": "http://terminology.hl7.org/CodeSystem/v3-ActReason",
              "code": "TRAIN"
            }
          ],
          "tag": [
            {
              "system": "https://synderai.net/fhir/CodeSystem/tags",
              "code": "synthetic",
              "display": "SYNDERAI Synthetic data"
            }
          ],
          "profile": [
            "http://hl7.eu/fhir/base/StructureDefinition/patient-eu-core"
          ]
        },
        "identifier": [
          {
            "type": {
              "coding": [
                {
                  "code": "PT",
                  "system": "http://terminology.hl7.org/CodeSystem/v2-0203"
                }
              ]
            },
            "system": "http://ec.europa.eu/identifier/eci",
            "value": "1992-540676-1"
          },
          {
            "type": {
              "coding": [
                {
                  "code": "MR",
                  "system": "http://terminology.hl7.org/CodeSystem/v2-0203"
                }
              ]
            },
            "system": "http://local.setting.eu/identifier",
            "value": "7c533aae-6e7f-89aa-dfdc-8ff900a5990b"
          }
        ],
        "name": [
          {
            "family": "Vávrová"
          },
          {
            "given": [
              "Ludmila"
            ]
          },
          {
            "text": "Ludmila Vávrová"
          }
        ],
        "address": [
          {
            "line": [
              "Šárovo Kolo 116"
            ],
            "use": "home",
            "type": "physical",
            "postalCode": "29471",
            "city": "Bakov nad Jizerou",
            "country": "Czechia"
          }
        ],
        "telecom": [
          {
            "system": "phone",
            "value": "00420 607 610 889"
          }
        ],
        "extension": [
          {
            "url": "http://hl7.org/fhir/StructureDefinition/patient-nationality",
            "valueCodeableConcept": {
              "coding": [
                {
                  "code": "CZ",
                  "system": "http://hl7.org/fhir/ValueSet/country"
                }
              ]
            }
          }
        ],
        "text": {
          "status": "generated",
          "div": "<div xmlns=\"http://www.w3.org/1999/xhtml\"><table class=\"hl7__ips\"><tr><td>Ludmila Vávrová</td><td>female</td><td>08-Aug-1940</td></tr></table></div>"
        },
        "gender": "female",
        "birthDate": "1940-08-08"
      }
    },
    {
      "fullUrl": "urn:uuid:7804f1f7-d086-4391-b3c2-e7e0cc1e4352",
      "resource": {
        "resourceType": "ServiceRequest",
        "id": "7804f1f7-d086-4391-b3c2-e7e0cc1e4352",
        "meta": {
          "profile": [
            "http://hl7.eu/fhir/laboratory/StructureDefinition/ServiceRequest-eu-lab"
          ]
        },
        "identifier": [
          {
            "system": "http://example.org",
            "value": "203b42a5-90d6-49e0-a0e8-cf0d802f8e2c"
          }
        ],
        "specimen": [
          {
            "reference": "urn:uuid:d3950805-55ac-4f2e-9528-68354074cd6b"
          },
          {
            "reference": "urn:uuid:7a48a3d5-e81b-488a-ac53-9c2ab7ebe336"
          },
          {
            "reference": "urn:uuid:1e57049f-f20c-4cfe-ac4e-f3d4e5d5e7f7"
          }
        ],
        "reasonCode": [
          {
            "coding": [
              {
                "code": "414545008",
                "system": "http://snomed.info/sct",
                "display": "Ischemic heart disease"
              }
            ]
          },
          {
            "coding": [
              {
                "code": "64859006",
                "system": "http://snomed.info/sct",
                "display": "Osteoporosis"
              }
            ]
          },
          {
            "coding": [
              {
                "code": "6525002",
                "system": "http://snomed.info/sct",
                "display": "Dependent drug abuse"
              }
            ]
          },
          {
            "coding": [
              {
                "code": "55822004",
                "system": "http://snomed.info/sct",
                "display": "Hyperlipidemia"
              }
            ]
          },
          {
            "coding": [
              {
                "code": "124171000119105",
                "system": "http://snomed.info/sct",
                "display": "Chronic intractable migraine without aura"
              }
            ]
          },
          {
            "coding": [
              {
                "code": "196416002",
                "system": "http://snomed.info/sct",
                "display": "Impacted molars"
              }
            ]
          },
          {
            "coding": [
              {
                "code": "239872002",
                "system": "http://snomed.info/sct",
                "display": "Osteoarthritis of hip"
              }
            ]
          },
          {
            "coding": [
              {
                "code": "40055000",
                "system": "http://snomed.info/sct",
                "display": "Chronic sinusitis"
              }
            ]
          }
        ],
        "status": "active",
        "intent": "order",
        "code": {
          "coding": [
            {
              "code": "108252007",
              "system": "http://snomed.info/sct",
              "display": "Laboratory procedure"
            }
          ]
        },
        "subject": {
          "reference": "urn:uuid:dac14935-5e60-4506-aadd-3ccd9d9718fe",
          "display": "Ludmila Vávrová"
        },
        "requester": {
          "reference": "urn:uuid:70fdf21e-b395-4a4f-8dda-1ea63d41b286"
        }
      }
    },
    {
      "fullUrl": "urn:uuid:70fdf21e-b395-4a4f-8dda-1ea63d41b286",
      "resource": {
        "resourceType": "PractitionerRole",
        "id": "70fdf21e-b395-4a4f-8dda-1ea63d41b286",
        "meta": {
          "profile": [
            "http://hl7.eu/fhir/base/StructureDefinition/practitionerRole-eu"
          ]
        },
        "text": {
          "status": "generated",
          "div": "<div xmlns=\"http://www.w3.org/1999/xhtml\">Provider Role Id: 70fdf21e-b395-4a4f-8dda-1ea63d41b286</div>"
        },
        "organization": {
          "reference": "urn:uuid:3a04ea29-ea4d-433e-b424-3651d2e6d718"
        }
      }
    },
    {
      "fullUrl": "urn:uuid:3a04ea29-ea4d-433e-b424-3651d2e6d718",
      "resource": {
        "resourceType": "Organization",
        "id": "3a04ea29-ea4d-433e-b424-3651d2e6d718",
        "meta": {
          "profile": [
            "http://hl7.eu/fhir/base/StructureDefinition/organization-eu"
          ]
        },
        "identifier": [
          {
            "assigner": {
              "display": "HL7 Europe"
            },
            "system": "urn:oid:2.16.840.1.113883.2.51.999",
            "value": "d57926d5-b23e-46ed-8865-77f8b7067b26"
          }
        ],
        "address": [
          {
            "city": "Kosmonosy",
            "postalCode": "293 06",
            "country": "Czechia"
          }
        ],
        "text": {
          "status": "generated",
          "div": "<div xmlns=\"http://www.w3.org/1999/xhtml\">Provider Organization: Psychiatrická nemocnice Kosmonosy</div>"
        },
        "name": "Psychiatrická nemocnice Kosmonosy"
      }
    },
    {
      "fullUrl": "urn:uuid:d3950805-55ac-4f2e-9528-68354074cd6b",
      "resource": {
        "resourceType": "Specimen",
        "id": "d3950805-55ac-4f2e-9528-68354074cd6b",
        "meta": {
          "profile": [
            "http://hl7.eu/fhir/laboratory/StructureDefinition/Specimen-eu-lab"
          ]
        },
        "collection": {
          "collectedDateTime": "2023-11-24"
        },
        "text": {
          "status": "generated",
          "div": "<div xmlns=\"http://www.w3.org/1999/xhtml\"><table class=\"hl7__eu__lab__report\"><tr><th>Specimen</th><th>Collection Date</th></tr><tr><td>Whole blood specimen (specimen)</td><td><span class=\"nb\">24-Nov-2023</span></td></tr></table></div>"
        },
        "type": {
          "coding": [
            {
              "code": "258580003",
              "system": "http://snomed.info/sct",
              "display": "Whole blood specimen (specimen)"
            }
          ]
        }
      }
    },
    {
      "fullUrl": "urn:uuid:7a48a3d5-e81b-488a-ac53-9c2ab7ebe336",
      "resource": {
        "resourceType": "Specimen",
        "id": "7a48a3d5-e81b-488a-ac53-9c2ab7ebe336",
        "meta": {
          "profile": [
            "http://hl7.eu/fhir/laboratory/StructureDefinition/Specimen-eu-lab"
          ]
        },
        "collection": {
          "collectedDateTime": "2023-11-24"
        },
        "text": {
          "status": "generated",
          "div": "<div xmlns=\"http://www.w3.org/1999/xhtml\"><table class=\"hl7__eu__lab__report\"><tr><th>Specimen</th><th>Collection Date</th></tr><tr><td>Acellular blood (serum or plasma) specimen</td><td><span class=\"nb\">24-Nov-2023</span></td></tr></table></div>"
        },
        "type": {
          "coding": [
            {
              "code": "122592007",
              "system": "http://snomed.info/sct",
              "display": "Acellular blood (serum or plasma) specimen"
            }
          ]
        }
      }
    },
    {
      "fullUrl": "urn:uuid:1e57049f-f20c-4cfe-ac4e-f3d4e5d5e7f7",
      "resource": {
        "resourceType": "Specimen",
        "id": "1e57049f-f20c-4cfe-ac4e-f3d4e5d5e7f7",
        "meta": {
          "profile": [
            "http://hl7.eu/fhir/laboratory/StructureDefinition/Specimen-eu-lab"
          ]
        },
        "collection": {
          "collectedDateTime": "2023-11-24"
        },
        "text": {
          "status": "generated",
          "div": "<div xmlns=\"http://www.w3.org/1999/xhtml\"><table class=\"hl7__eu__lab__report\"><tr><th>Specimen</th><th>Collection Date</th></tr><tr><td>Serum specimen</td><td><span class=\"nb\">24-Nov-2023</span></td></tr></table></div>"
        },
        "type": {
          "coding": [
            {
              "code": "119364003",
              "system": "http://snomed.info/sct",
              "display": "Serum specimen"
            }
          ]
        }
      }
    },
    {
      "fullUrl": "urn:uuid:f1366e73-5fd1-43f5-8e94-ef8c3938ebfb",
      "resource": {
        "resourceType": "Observation",
        "id": "f1366e73-5fd1-43f5-8e94-ef8c3938ebfb",
        "meta": {
          "profile": [
            "http://hl7.eu/fhir/laboratory/StructureDefinition/Observation-resultslab-eu-lab"
          ]
        },
        "performer": [
          {
            "display": "The Central European Lab"
          }
        ],
        "category": [
          {
            "coding": [
              {
                "system": "http://terminology.hl7.org/CodeSystem/observation-category",
                "code": "laboratory"
              }
            ]
          }
        ],
        "code": {
          "coding": [
            {
              "code": "2339-0",
              "system": "http://loinc.org",
              "display": "Glucose [Mass/volume] in Blood"
            }
          ],
          "text": "Glucose [Mass/volume] in Blood"
        },
        "valueQuantity": {
          "system": "http://unitsofmeasure.org",
          "value": 72.9,
          "unit": "mg/dL",
          "code": "mg/dL"
        },
        "referenceRange": [
          {
            "low": {
              "value": 70,
              "code": "mg/dL",
              "system": "http://unitsofmeasure.org"
            }
          },
          {
            "high": {
              "value": 140,
              "code": "mg/dL",
              "system": "http://unitsofmeasure.org"
            }
          }
        ],
        "text": {
          "status": "generated",
          "div": "<div xmlns=\"http://www.w3.org/1999/xhtml\"><table class=\"hl7__eu__lab__report\"><tr><th>Test</th><th>24-Nov-2023</th><th>Reference&#xA0;Range</th><th>Unit</th></tr><tr><td>Glucose [Mass/volume] in Blood</td><td>72.9</td><td>70 - 140</td><td></td><td>mg/dL</td></tr></table></div>"
        },
        "status": "final",
        "subject": {
          "reference": "urn:uuid:dac14935-5e60-4506-aadd-3ccd9d9718fe",
          "display": "Ludmila Vávrová"
        },
        "effectiveDateTime": "2023-11-24T03:51:38Z",
        "specimen": {
          "reference": "urn:uuid:d3950805-55ac-4f2e-9528-68354074cd6b"
        }
      }
    },
    {
      "fullUrl": "urn:uuid:bd64e7cf-2184-469a-b048-895a7b8bdec0",
      "resource": {
        "resourceType": "Observation",
        "id": "bd64e7cf-2184-469a-b048-895a7b8bdec0",
        "meta": {
          "profile": [
            "http://hl7.eu/fhir/laboratory/StructureDefinition/Observation-resultslab-eu-lab"
          ]
        },
        "performer": [
          {
            "display": "The Central European Lab"
          }
        ],
        "category": [
          {
            "coding": [
              {
                "system": "http://terminology.hl7.org/CodeSystem/observation-category",
                "code": "laboratory"
              }
            ]
          }
        ],
        "code": {
          "coding": [
            {
              "code": "6299-2",
              "system": "http://loinc.org",
              "display": "Urea nitrogen [Mass/volume] in Blood"
            }
          ],
          "text": "Urea nitrogen [Mass/volume] in Blood"
        },
        "valueQuantity": {
          "system": "http://unitsofmeasure.org",
          "value": 8.3,
          "unit": "mg/dL",
          "code": "mg/dL"
        },
        "referenceRange": [
          {
            "low": {
              "value": 7,
              "code": "mg/dL",
              "system": "http://unitsofmeasure.org"
            }
          },
          {
            "high": {
              "value": 25,
              "code": "mg/dL",
              "system": "http://unitsofmeasure.org"
            }
          }
        ],
        "text": {
          "status": "generated",
          "div": "<div xmlns=\"http://www.w3.org/1999/xhtml\"><table class=\"hl7__eu__lab__report\"><tr><th>Test</th><th>24-Nov-2023</th><th>Reference&#xA0;Range</th><th>Unit</th></tr><tr><td>Urea nitrogen [Mass/volume] in Blood</td><td>8.3</td><td>7 - 25</td><td></td><td>mg/dL</td></tr></table></div>"
        },
        "status": "final",
        "subject": {
          "reference": "urn:uuid:dac14935-5e60-4506-aadd-3ccd9d9718fe",
          "display": "Ludmila Vávrová"
        },
        "effectiveDateTime": "2023-11-24T03:51:38Z",
        "specimen": {
          "reference": "urn:uuid:d3950805-55ac-4f2e-9528-68354074cd6b"
        }
      }
    },
    {
      "fullUrl": "urn:uuid:b169f43c-0308-4ac8-a3ab-a8ee9a663e64",
      "resource": {
        "resourceType": "Observation",
        "id": "b169f43c-0308-4ac8-a3ab-a8ee9a663e64",
        "meta": {
          "profile": [
            "http://hl7.eu/fhir/laboratory/StructureDefinition/Observation-resultslab-eu-lab"
          ]
        },
        "performer": [
          {
            "display": "The Central European Lab"
          }
        ],
        "category": [
          {
            "coding": [
              {
                "system": "http://terminology.hl7.org/CodeSystem/observation-category",
                "code": "laboratory"
              }
            ]
          }
        ],
        "code": {
          "coding": [
            {
              "code": "38483-4",
              "system": "http://loinc.org",
              "display": "Creatinine [Mass/volume] in Blood"
            }
          ],
          "text": "Creatinine [Mass/volume] in Blood"
        },
        "valueQuantity": {
          "system": "http://unitsofmeasure.org",
          "value": 3.1,
          "unit": "mg/dL",
          "code": "mg/dL"
        },
        "referenceRange": [
          {
            "low": {
              "value": 0.6,
              "code": "mg/dL",
              "system": "http://unitsofmeasure.org"
            }
          },
          {
            "high": {
              "value": 1.1,
              "code": "mg/dL",
              "system": "http://unitsofmeasure.org"
            }
          }
        ],
        "interpretation": [
          {
            "coding": [
              {
                "code": "H",
                "system": "http://terminology.hl7.org/CodeSystem/v3-ObservationInterpretation",
                "display": "High"
              }
            ]
          }
        ],
        "text": {
          "status": "generated",
          "div": "<div xmlns=\"http://www.w3.org/1999/xhtml\"><table class=\"hl7__eu__lab__report\"><tr><th>Test</th><th>24-Nov-2023</th><th>Reference&#xA0;Range</th><th>Unit</th></tr><tr><td>Creatinine [Mass/volume] in Blood</td><td>3.1</td><td>0.6 - 1.1</td><td>H</td><td>mg/dL</td></tr></table></div>"
        },
        "status": "final",
        "subject": {
          "reference": "urn:uuid:dac14935-5e60-4506-aadd-3ccd9d9718fe",
          "display": "Ludmila Vávrová"
        },
        "effectiveDateTime": "2023-11-24T03:51:38Z",
        "specimen": {
          "reference": "urn:uuid:d3950805-55ac-4f2e-9528-68354074cd6b"
        }
      }
    },
    {
      "fullUrl": "urn:uuid:f920cfe7-20f0-4159-b234-a6b1b08d3507",
      "resource": {
        "resourceType": "Observation",
        "id": "f920cfe7-20f0-4159-b234-a6b1b08d3507",
        "meta": {
          "profile": [
            "http://hl7.eu/fhir/laboratory/StructureDefinition/Observation-resultslab-eu-lab"
          ]
        },
        "performer": [
          {
            "display": "The Central European Lab"
          }
        ],
        "category": [
          {
            "coding": [
              {
                "system": "http://terminology.hl7.org/CodeSystem/observation-category",
                "code": "laboratory"
              }
            ]
          }
        ],
        "code": {
          "coding": [
            {
              "code": "49765-1",
              "system": "http://loinc.org",
              "display": "Calcium [Mass/volume] in Blood"
            }
          ],
          "text": "Calcium [Mass/volume] in Blood"
        },
        "valueQuantity": {
          "system": "http://unitsofmeasure.org",
          "value": 9,
          "unit": "mg/dL",
          "code": "mg/dL"
        },
        "referenceRange": [
          {
            "low": {
              "value": 8.6,
              "code": "mg/dL",
              "system": "http://unitsofmeasure.org"
            }
          },
          {
            "high": {
              "value": 10.4,
              "code": "mg/dL",
              "system": "http://unitsofmeasure.org"
            }
          }
        ],
        "text": {
          "status": "generated",
          "div": "<div xmlns=\"http://www.w3.org/1999/xhtml\"><table class=\"hl7__eu__lab__report\"><tr><th>Test</th><th>24-Nov-2023</th><th>Reference&#xA0;Range</th><th>Unit</th></tr><tr><td>Calcium [Mass/volume] in Blood</td><td>9.0</td><td>8.6 - 10.4</td><td></td><td>mg/dL</td></tr></table></div>"
        },
        "status": "final",
        "subject": {
          "reference": "urn:uuid:dac14935-5e60-4506-aadd-3ccd9d9718fe",
          "display": "Ludmila Vávrová"
        },
        "effectiveDateTime": "2023-11-24T03:51:38Z",
        "specimen": {
          "reference": "urn:uuid:d3950805-55ac-4f2e-9528-68354074cd6b"
        }
      }
    },
    {
      "fullUrl": "urn:uuid:a0afa4eb-a9f9-472b-93a3-88600eca95ee",
      "resource": {
        "resourceType": "Observation",
        "id": "a0afa4eb-a9f9-472b-93a3-88600eca95ee",
        "meta": {
          "profile": [
            "http://hl7.eu/fhir/laboratory/StructureDefinition/Observation-resultslab-eu-lab"
          ]
        },
        "performer": [
          {
            "display": "The Central European Lab"
          }
        ],
        "category": [
          {
            "coding": [
              {
                "system": "http://terminology.hl7.org/CodeSystem/observation-category",
                "code": "laboratory"
              }
            ]
          }
        ],
        "code": {
          "coding": [
            {
              "code": "2947-0",
              "system": "http://loinc.org",
              "display": "Sodium [Moles/volume] in Blood"
            }
          ],
          "text": "Sodium [Moles/volume] in Blood"
        },
        "valueQuantity": {
          "system": "http://unitsofmeasure.org",
          "value": 138.6,
          "unit": "mmol/L",
          "code": "mmol/L"
        },
        "referenceRange": [
          {
            "low": {
              "value": 135,
              "code": "mmol/L",
              "system": "http://unitsofmeasure.org"
            }
          },
          {
            "high": {
              "value": 145,
              "code": "mmol/L",
              "system": "http://unitsofmeasure.org"
            }
          }
        ],
        "text": {
          "status": "generated",
          "div": "<div xmlns=\"http://www.w3.org/1999/xhtml\"><table class=\"hl7__eu__lab__report\"><tr><th>Test</th><th>24-Nov-2023</th><th>Reference&#xA0;Range</th><th>Unit</th></tr><tr><td>Sodium [Moles/volume] in Blood</td><td>138.6</td><td>135 - 145</td><td></td><td>mmol/L</td></tr></table></div>"
        },
        "status": "final",
        "subject": {
          "reference": "urn:uuid:dac14935-5e60-4506-aadd-3ccd9d9718fe",
          "display": "Ludmila Vávrová"
        },
        "effectiveDateTime": "2023-11-24T03:51:38Z",
        "specimen": {
          "reference": "urn:uuid:d3950805-55ac-4f2e-9528-68354074cd6b"
        }
      }
    },
    {
      "fullUrl": "urn:uuid:b6dfdfd1-4c73-44aa-b605-416e0fac1f63",
      "resource": {
        "resourceType": "Observation",
        "id": "b6dfdfd1-4c73-44aa-b605-416e0fac1f63",
        "meta": {
          "profile": [
            "http://hl7.eu/fhir/laboratory/StructureDefinition/Observation-resultslab-eu-lab"
          ]
        },
        "performer": [
          {
            "display": "The Central European Lab"
          }
        ],
        "category": [
          {
            "coding": [
              {
                "system": "http://terminology.hl7.org/CodeSystem/observation-category",
                "code": "laboratory"
              }
            ]
          }
        ],
        "code": {
          "coding": [
            {
              "code": "6298-4",
              "system": "http://loinc.org",
              "display": "Potassium [Moles/volume] in Blood"
            }
          ],
          "text": "Potassium [Moles/volume] in Blood"
        },
        "valueQuantity": {
          "system": "http://unitsofmeasure.org",
          "value": 4.5,
          "unit": "mmol/L",
          "code": "mmol/L"
        },
        "referenceRange": [
          {
            "low": {
              "value": 3.5,
              "code": "mmol/L",
              "system": "http://unitsofmeasure.org"
            }
          },
          {
            "high": {
              "value": 5.3,
              "code": "mmol/L",
              "system": "http://unitsofmeasure.org"
            }
          }
        ],
        "text": {
          "status": "generated",
          "div": "<div xmlns=\"http://www.w3.org/1999/xhtml\"><table class=\"hl7__eu__lab__report\"><tr><th>Test</th><th>24-Nov-2023</th><th>Reference&#xA0;Range</th><th>Unit</th></tr><tr><td>Potassium [Moles/volume] in Blood</td><td>4.5</td><td>3.5 - 5.3</td><td></td><td>mmol/L</td></tr></table></div>"
        },
        "status": "final",
        "subject": {
          "reference": "urn:uuid:dac14935-5e60-4506-aadd-3ccd9d9718fe",
          "display": "Ludmila Vávrová"
        },
        "effectiveDateTime": "2023-11-24T03:51:38Z",
        "specimen": {
          "reference": "urn:uuid:d3950805-55ac-4f2e-9528-68354074cd6b"
        }
      }
    },
    {
      "fullUrl": "urn:uuid:f938bffe-c62b-45b0-8dc4-e23571fe4562",
      "resource": {
        "resourceType": "Observation",
        "id": "f938bffe-c62b-45b0-8dc4-e23571fe4562",
        "meta": {
          "profile": [
            "http://hl7.eu/fhir/laboratory/StructureDefinition/Observation-resultslab-eu-lab"
          ]
        },
        "performer": [
          {
            "display": "The Central European Lab"
          }
        ],
        "category": [
          {
            "coding": [
              {
                "system": "http://terminology.hl7.org/CodeSystem/observation-category",
                "code": "laboratory"
              }
            ]
          }
        ],
        "code": {
          "coding": [
            {
              "code": "2069-3",
              "system": "http://loinc.org",
              "display": "Chloride [Moles/volume] in Blood"
            }
          ],
          "text": "Chloride [Moles/volume] in Blood"
        },
        "valueQuantity": {
          "system": "http://unitsofmeasure.org",
          "value": 108.4,
          "unit": "mmol/L",
          "code": "mmol/L"
        },
        "referenceRange": [
          {
            "low": {
              "value": 98,
              "code": "mmol/L",
              "system": "http://unitsofmeasure.org"
            }
          },
          {
            "high": {
              "value": 108,
              "code": "mmol/L",
              "system": "http://unitsofmeasure.org"
            }
          }
        ],
        "interpretation": [
          {
            "coding": [
              {
                "code": "H",
                "system": "http://terminology.hl7.org/CodeSystem/v3-ObservationInterpretation",
                "display": "High"
              }
            ]
          }
        ],
        "text": {
          "status": "generated",
          "div": "<div xmlns=\"http://www.w3.org/1999/xhtml\"><table class=\"hl7__eu__lab__report\"><tr><th>Test</th><th>24-Nov-2023</th><th>Reference&#xA0;Range</th><th>Unit</th></tr><tr><td>Chloride [Moles/volume] in Blood</td><td>108.4</td><td>98 - 108</td><td>H</td><td>mmol/L</td></tr></table></div>"
        },
        "status": "final",
        "subject": {
          "reference": "urn:uuid:dac14935-5e60-4506-aadd-3ccd9d9718fe",
          "display": "Ludmila Vávrová"
        },
        "effectiveDateTime": "2023-11-24T03:51:38Z",
        "specimen": {
          "reference": "urn:uuid:d3950805-55ac-4f2e-9528-68354074cd6b"
        }
      }
    },
    {
      "fullUrl": "urn:uuid:3b8015ca-980f-44de-8395-6f21f0206913",
      "resource": {
        "resourceType": "Observation",
        "id": "3b8015ca-980f-44de-8395-6f21f0206913",
        "meta": {
          "profile": [
            "http://hl7.eu/fhir/laboratory/StructureDefinition/Observation-resultslab-eu-lab"
          ]
        },
        "performer": [
          {
            "display": "The Central European Lab"
          }
        ],
        "category": [
          {
            "coding": [
              {
                "system": "http://terminology.hl7.org/CodeSystem/observation-category",
                "code": "laboratory"
              }
            ]
          }
        ],
        "code": {
          "coding": [
            {
              "code": "20565-8",
              "system": "http://loinc.org",
              "display": "Carbon dioxide, total [Moles/volume] in Blood"
            }
          ],
          "text": "Carbon dioxide, total [Moles/volume] in Blood"
        },
        "valueQuantity": {
          "system": "http://unitsofmeasure.org",
          "value": 22.3,
          "unit": "mmol/L",
          "code": "mmol/L"
        },
        "referenceRange": [
          {
            "low": {
              "value": 22,
              "code": "mmol/L",
              "system": "http://unitsofmeasure.org"
            }
          },
          {
            "high": {
              "value": 32,
              "code": "mmol/L",
              "system": "http://unitsofmeasure.org"
            }
          }
        ],
        "text": {
          "status": "generated",
          "div": "<div xmlns=\"http://www.w3.org/1999/xhtml\"><table class=\"hl7__eu__lab__report\"><tr><th>Test</th><th>24-Nov-2023</th><th>Reference&#xA0;Range</th><th>Unit</th></tr><tr><td>Carbon dioxide, total [Moles/volume] in Blood</td><td>22.3</td><td>22 - 32</td><td></td><td>mmol/L</td></tr></table></div>"
        },
        "status": "final",
        "subject": {
          "reference": "urn:uuid:dac14935-5e60-4506-aadd-3ccd9d9718fe",
          "display": "Ludmila Vávrová"
        },
        "effectiveDateTime": "2023-11-24T03:51:38Z",
        "specimen": {
          "reference": "urn:uuid:d3950805-55ac-4f2e-9528-68354074cd6b"
        }
      }
    },
    {
      "fullUrl": "urn:uuid:95dda56e-59c2-457c-b617-5fb9877364c7",
      "resource": {
        "resourceType": "Observation",
        "id": "95dda56e-59c2-457c-b617-5fb9877364c7",
        "meta": {
          "profile": [
            "http://hl7.eu/fhir/laboratory/StructureDefinition/Observation-resultslab-eu-lab"
          ]
        },
        "performer": [
          {
            "display": "The Central European Lab"
          }
        ],
        "category": [
          {
            "coding": [
              {
                "system": "http://terminology.hl7.org/CodeSystem/observation-category",
                "code": "laboratory"
              }
            ]
          }
        ],
        "code": {
          "coding": [
            {
              "code": "2885-2",
              "system": "http://loinc.org",
              "display": "Protein [Mass/volume] in Serum or Plasma"
            }
          ],
          "text": "Protein [Mass/volume] in Serum or Plasma"
        },
        "valueQuantity": {
          "system": "http://unitsofmeasure.org",
          "value": 7.5,
          "unit": "g/dL",
          "code": "g/dL"
        },
        "referenceRange": [
          {
            "low": {
              "value": 6.6,
              "code": "g/dL",
              "system": "http://unitsofmeasure.org"
            }
          },
          {
            "high": {
              "value": 8.3,
              "code": "g/dL",
              "system": "http://unitsofmeasure.org"
            }
          }
        ],
        "text": {
          "status": "generated",
          "div": "<div xmlns=\"http://www.w3.org/1999/xhtml\"><table class=\"hl7__eu__lab__report\"><tr><th>Test</th><th>24-Nov-2023</th><th>Reference&#xA0;Range</th><th>Unit</th></tr><tr><td>Protein [Mass/volume] in Serum or Plasma</td><td>7.5</td><td>6.6 - 8.3</td><td></td><td>g/dL</td></tr></table></div>"
        },
        "status": "final",
        "subject": {
          "reference": "urn:uuid:dac14935-5e60-4506-aadd-3ccd9d9718fe",
          "display": "Ludmila Vávrová"
        },
        "effectiveDateTime": "2023-11-24T03:51:38Z",
        "specimen": {
          "reference": "urn:uuid:7a48a3d5-e81b-488a-ac53-9c2ab7ebe336"
        }
      }
    },
    {
      "fullUrl": "urn:uuid:cd786ca4-cffa-4967-b25b-4f74ddf289b8",
      "resource": {
        "resourceType": "Observation",
        "id": "cd786ca4-cffa-4967-b25b-4f74ddf289b8",
        "meta": {
          "profile": [
            "http://hl7.eu/fhir/laboratory/StructureDefinition/Observation-resultslab-eu-lab"
          ]
        },
        "performer": [
          {
            "display": "The Central European Lab"
          }
        ],
        "category": [
          {
            "coding": [
              {
                "system": "http://terminology.hl7.org/CodeSystem/observation-category",
                "code": "laboratory"
              }
            ]
          }
        ],
        "code": {
          "coding": [
            {
              "code": "1751-7",
              "system": "http://loinc.org",
              "display": "Albumin [Mass/volume] in Serum or Plasma"
            }
          ],
          "text": "Albumin [Mass/volume] in Serum or Plasma"
        },
        "valueQuantity": {
          "system": "http://unitsofmeasure.org",
          "value": 4.2,
          "unit": "g/dL",
          "code": "g/dL"
        },
        "referenceRange": [
          {
            "low": {
              "value": 3.5,
              "code": "g/dL",
              "system": "http://unitsofmeasure.org"
            }
          },
          {
            "high": {
              "value": 5.5,
              "code": "g/dL",
              "system": "http://unitsofmeasure.org"
            }
          }
        ],
        "text": {
          "status": "generated",
          "div": "<div xmlns=\"http://www.w3.org/1999/xhtml\"><table class=\"hl7__eu__lab__report\"><tr><th>Test</th><th>24-Nov-2023</th><th>Reference&#xA0;Range</th><th>Unit</th></tr><tr><td>Albumin [Mass/volume] in Serum or Plasma</td><td>4.2</td><td>3.5 - 5.5</td><td></td><td>g/dL</td></tr></table></div>"
        },
        "status": "final",
        "subject": {
          "reference": "urn:uuid:dac14935-5e60-4506-aadd-3ccd9d9718fe",
          "display": "Ludmila Vávrová"
        },
        "effectiveDateTime": "2023-11-24T03:51:38Z",
        "specimen": {
          "reference": "urn:uuid:7a48a3d5-e81b-488a-ac53-9c2ab7ebe336"
        }
      }
    },
    {
      "fullUrl": "urn:uuid:d4ee1991-3e81-4113-b255-77a04c8e2f1b",
      "resource": {
        "resourceType": "Observation",
        "id": "d4ee1991-3e81-4113-b255-77a04c8e2f1b",
        "meta": {
          "profile": [
            "http://hl7.eu/fhir/laboratory/StructureDefinition/Observation-resultslab-eu-lab"
          ]
        },
        "performer": [
          {
            "display": "The Central European Lab"
          }
        ],
        "category": [
          {
            "coding": [
              {
                "system": "http://terminology.hl7.org/CodeSystem/observation-category",
                "code": "laboratory"
              }
            ]
          }
        ],
        "code": {
          "coding": [
            {
              "code": "10834-0",
              "system": "http://loinc.org",
              "display": "Globulin [Mass/volume] in Serum by calculation"
            }
          ],
          "text": "Globulin [Mass/volume] in Serum by calculation"
        },
        "valueQuantity": {
          "system": "http://unitsofmeasure.org",
          "value": 3.5,
          "unit": "g/L",
          "code": "g/L"
        },
        "referenceRange": [
          {
            "low": {
              "value": 2.2,
              "code": "g/L",
              "system": "http://unitsofmeasure.org"
            }
          },
          {
            "high": {
              "value": 3.7,
              "code": "g/L",
              "system": "http://unitsofmeasure.org"
            }
          }
        ],
        "text": {
          "status": "generated",
          "div": "<div xmlns=\"http://www.w3.org/1999/xhtml\"><table class=\"hl7__eu__lab__report\"><tr><th>Test</th><th>24-Nov-2023</th><th>Reference&#xA0;Range</th><th>Unit</th></tr><tr><td>Globulin [Mass/volume] in Serum by calculation</td><td>3.5</td><td>2.2 - 3.7</td><td></td><td>g/L</td></tr></table></div>"
        },
        "status": "final",
        "subject": {
          "reference": "urn:uuid:dac14935-5e60-4506-aadd-3ccd9d9718fe",
          "display": "Ludmila Vávrová"
        },
        "effectiveDateTime": "2023-11-24T03:51:38Z",
        "specimen": {
          "reference": "urn:uuid:1e57049f-f20c-4cfe-ac4e-f3d4e5d5e7f7"
        }
      }
    },
    {
      "fullUrl": "urn:uuid:f31c1272-e437-4577-8e20-da3b967fbde0",
      "resource": {
        "resourceType": "Observation",
        "id": "f31c1272-e437-4577-8e20-da3b967fbde0",
        "meta": {
          "profile": [
            "http://hl7.eu/fhir/laboratory/StructureDefinition/Observation-resultslab-eu-lab"
          ]
        },
        "performer": [
          {
            "display": "The Central European Lab"
          }
        ],
        "category": [
          {
            "coding": [
              {
                "system": "http://terminology.hl7.org/CodeSystem/observation-category",
                "code": "laboratory"
              }
            ]
          }
        ],
        "code": {
          "coding": [
            {
              "code": "1975-2",
              "system": "http://loinc.org",
              "display": "Bilirubin.total [Mass/volume] in Serum or Plasma"
            }
          ],
          "text": "Bilirubin.total [Mass/volume] in Serum or Plasma"
        },
        "valueQuantity": {
          "system": "http://unitsofmeasure.org",
          "value": 0.2,
          "unit": "mg/dL",
          "code": "mg/dL"
        },
        "referenceRange": [
          {
            "low": {
              "value": 0.3,
              "code": "mg/dL",
              "system": "http://unitsofmeasure.org"
            }
          },
          {
            "high": {
              "value": 1.2,
              "code": "mg/dL",
              "system": "http://unitsofmeasure.org"
            }
          }
        ],
        "interpretation": [
          {
            "coding": [
              {
                "code": "L",
                "system": "http://terminology.hl7.org/CodeSystem/v3-ObservationInterpretation",
                "display": "Low"
              }
            ]
          }
        ],
        "text": {
          "status": "generated",
          "div": "<div xmlns=\"http://www.w3.org/1999/xhtml\"><table class=\"hl7__eu__lab__report\"><tr><th>Test</th><th>24-Nov-2023</th><th>Reference&#xA0;Range</th><th>Unit</th></tr><tr><td>Bilirubin.total [Mass/volume] in Serum or Plasma</td><td>0.2</td><td>0.3 - 1.2</td><td>L</td><td>mg/dL</td></tr></table></div>"
        },
        "status": "final",
        "subject": {
          "reference": "urn:uuid:dac14935-5e60-4506-aadd-3ccd9d9718fe",
          "display": "Ludmila Vávrová"
        },
        "effectiveDateTime": "2023-11-24T03:51:38Z",
        "specimen": {
          "reference": "urn:uuid:7a48a3d5-e81b-488a-ac53-9c2ab7ebe336"
        }
      }
    },
    {
      "fullUrl": "urn:uuid:387ac23e-d43d-4d62-977c-ead827b2420c",
      "resource": {
        "resourceType": "Observation",
        "id": "387ac23e-d43d-4d62-977c-ead827b2420c",
        "meta": {
          "profile": [
            "http://hl7.eu/fhir/laboratory/StructureDefinition/Observation-resultslab-eu-lab"
          ]
        },
        "performer": [
          {
            "display": "The Central European Lab"
          }
        ],
        "category": [
          {
            "coding": [
              {
                "system": "http://terminology.hl7.org/CodeSystem/observation-category",
                "code": "laboratory"
              }
            ]
          }
        ],
        "code": {
          "coding": [
            {
              "code": "6768-6",
              "system": "http://loinc.org",
              "display": "Alkaline phosphatase [Enzymatic activity/volume] in Serum or Plasma"
            }
          ],
          "text": "Alkaline phosphatase [Enzymatic activity/volume] in Serum or Plasma"
        },
        "valueQuantity": {
          "system": "http://unitsofmeasure.org",
          "value": 81.1,
          "unit": "U/L",
          "code": "U/L"
        },
        "referenceRange": [
          {
            "low": {
              "value": 40,
              "code": "U/L",
              "system": "http://unitsofmeasure.org"
            }
          },
          {
            "high": {
              "value": 130,
              "code": "U/L",
              "system": "http://unitsofmeasure.org"
            }
          }
        ],
        "text": {
          "status": "generated",
          "div": "<div xmlns=\"http://www.w3.org/1999/xhtml\"><table class=\"hl7__eu__lab__report\"><tr><th>Test</th><th>24-Nov-2023</th><th>Reference&#xA0;Range</th><th>Unit</th></tr><tr><td>Alkaline phosphatase [Enzymatic activity/volume] in Serum or Plasma</td><td>81.1</td><td>40 - 130</td><td></td><td>U/L</td></tr></table></div>"
        },
        "status": "final",
        "subject": {
          "reference": "urn:uuid:dac14935-5e60-4506-aadd-3ccd9d9718fe",
          "display": "Ludmila Vávrová"
        },
        "effectiveDateTime": "2023-11-24T03:51:38Z",
        "specimen": {
          "reference": "urn:uuid:7a48a3d5-e81b-488a-ac53-9c2ab7ebe336"
        }
      }
    },
    {
      "fullUrl": "urn:uuid:9a2a9b67-dd84-46ce-95f7-519dcb91f271",
      "resource": {
        "resourceType": "Observation",
        "id": "9a2a9b67-dd84-46ce-95f7-519dcb91f271",
        "meta": {
          "profile": [
            "http://hl7.eu/fhir/laboratory/StructureDefinition/Observation-resultslab-eu-lab"
          ]
        },
        "performer": [
          {
            "display": "The Central European Lab"
          }
        ],
        "category": [
          {
            "coding": [
              {
                "system": "http://terminology.hl7.org/CodeSystem/observation-category",
                "code": "laboratory"
              }
            ]
          }
        ],
        "code": {
          "coding": [
            {
              "code": "1742-6",
              "system": "http://loinc.org",
              "display": "Alanine aminotransferase [Enzymatic activity/volume] in Serum or Plasma"
            }
          ],
          "text": "Alanine aminotransferase [Enzymatic activity/volume] in Serum or Plasma"
        },
        "valueQuantity": {
          "system": "http://unitsofmeasure.org",
          "value": 33.1,
          "unit": "U/L",
          "code": "U/L"
        },
        "referenceRange": [
          {
            "low": {
              "value": 7,
              "code": "U/L",
              "system": "http://unitsofmeasure.org"
            }
          },
          {
            "high": {
              "value": 55,
              "code": "U/L",
              "system": "http://unitsofmeasure.org"
            }
          }
        ],
        "text": {
          "status": "generated",
          "div": "<div xmlns=\"http://www.w3.org/1999/xhtml\"><table class=\"hl7__eu__lab__report\"><tr><th>Test</th><th>24-Nov-2023</th><th>Reference&#xA0;Range</th><th>Unit</th></tr><tr><td>Alanine aminotransferase [Enzymatic activity/volume] in Serum or Plasma</td><td>33.1</td><td>7 - 55</td><td></td><td>U/L</td></tr></table></div>"
        },
        "status": "final",
        "subject": {
          "reference": "urn:uuid:dac14935-5e60-4506-aadd-3ccd9d9718fe",
          "display": "Ludmila Vávrová"
        },
        "effectiveDateTime": "2023-11-24T03:51:38Z",
        "specimen": {
          "reference": "urn:uuid:7a48a3d5-e81b-488a-ac53-9c2ab7ebe336"
        }
      }
    },
    {
      "fullUrl": "urn:uuid:5f80d1af-35eb-48a2-bfd9-4ca0823ec294",
      "resource": {
        "resourceType": "Observation",
        "id": "5f80d1af-35eb-48a2-bfd9-4ca0823ec294",
        "meta": {
          "profile": [
            "http://hl7.eu/fhir/laboratory/StructureDefinition/Observation-resultslab-eu-lab"
          ]
        },
        "performer": [
          {
            "display": "The Central European Lab"
          }
        ],
        "category": [
          {
            "coding": [
              {
                "system": "http://terminology.hl7.org/CodeSystem/observation-category",
                "code": "laboratory"
              }
            ]
          }
        ],
        "code": {
          "coding": [
            {
              "code": "1920-8",
              "system": "http://loinc.org",
              "display": "Aspartate aminotransferase [Enzymatic activity/volume] in Serum or Plasma"
            }
          ],
          "text": "Aspartate aminotransferase [Enzymatic activity/volume] in Serum or Plasma"
        },
        "valueQuantity": {
          "system": "http://unitsofmeasure.org",
          "value": 39.3,
          "unit": "U/L",
          "code": "U/L"
        },
        "referenceRange": [
          {
            "low": {
              "value": 10,
              "code": "U/L",
              "system": "http://unitsofmeasure.org"
            }
          },
          {
            "high": {
              "value": 40,
              "code": "U/L",
              "system": "http://unitsofmeasure.org"
            }
          }
        ],
        "text": {
          "status": "generated",
          "div": "<div xmlns=\"http://www.w3.org/1999/xhtml\"><table class=\"hl7__eu__lab__report\"><tr><th>Test</th><th>24-Nov-2023</th><th>Reference&#xA0;Range</th><th>Unit</th></tr><tr><td>Aspartate aminotransferase [Enzymatic activity/volume] in Serum or Plasma</td><td>39.3</td><td>10 - 40</td><td></td><td>U/L</td></tr></table></div>"
        },
        "status": "final",
        "subject": {
          "reference": "urn:uuid:dac14935-5e60-4506-aadd-3ccd9d9718fe",
          "display": "Ludmila Vávrová"
        },
        "effectiveDateTime": "2023-11-24T03:51:38Z",
        "specimen": {
          "reference": "urn:uuid:7a48a3d5-e81b-488a-ac53-9c2ab7ebe336"
        }
      }
    },
    {
      "fullUrl": "urn:uuid:12d986bd-78ff-4714-b394-90347a4caf32",
      "resource": {
        "resourceType": "Observation",
        "id": "12d986bd-78ff-4714-b394-90347a4caf32",
        "meta": {
          "profile": [
            "http://hl7.eu/fhir/laboratory/StructureDefinition/Observation-resultslab-eu-lab"
          ]
        },
        "performer": [
          {
            "display": "The Central European Lab"
          }
        ],
        "category": [
          {
            "coding": [
              {
                "system": "http://terminology.hl7.org/CodeSystem/observation-category",
                "code": "laboratory"
              }
            ]
          }
        ],
        "code": {
          "coding": [
            {
              "code": "2093-3",
              "system": "http://loinc.org",
              "display": "Cholesterol [Mass/volume] in Serum or Plasma"
            }
          ],
          "text": "Cholesterol [Mass/volume] in Serum or Plasma"
        },
        "valueQuantity": {
          "system": "http://unitsofmeasure.org",
          "value": 167.9,
          "unit": "mg/dL",
          "code": "mg/dL"
        },
        "referenceRange": [
          {
            "low": {
              "value": 125,
              "code": "mg/dL",
              "system": "http://unitsofmeasure.org"
            }
          },
          {
            "high": {
              "value": 200,
              "code": "mg/dL",
              "system": "http://unitsofmeasure.org"
            }
          }
        ],
        "text": {
          "status": "generated",
          "div": "<div xmlns=\"http://www.w3.org/1999/xhtml\"><table class=\"hl7__eu__lab__report\"><tr><th>Test</th><th>24-Nov-2023</th><th>Reference&#xA0;Range</th><th>Unit</th></tr><tr><td>Cholesterol [Mass/volume] in Serum or Plasma</td><td>167.9</td><td>125 - 200</td><td></td><td>mg/dL</td></tr></table></div>"
        },
        "status": "final",
        "subject": {
          "reference": "urn:uuid:dac14935-5e60-4506-aadd-3ccd9d9718fe",
          "display": "Ludmila Vávrová"
        },
        "effectiveDateTime": "2023-11-24T03:51:38Z",
        "specimen": {
          "reference": "urn:uuid:7a48a3d5-e81b-488a-ac53-9c2ab7ebe336"
        }
      }
    },
    {
      "fullUrl": "urn:uuid:8675ff46-9b2f-4e8d-a5e0-fed178da4ddf",
      "resource": {
        "resourceType": "Observation",
        "id": "8675ff46-9b2f-4e8d-a5e0-fed178da4ddf",
        "meta": {
          "profile": [
            "http://hl7.eu/fhir/laboratory/StructureDefinition/Observation-resultslab-eu-lab"
          ]
        },
        "performer": [
          {
            "display": "The Central European Lab"
          }
        ],
        "category": [
          {
            "coding": [
              {
                "system": "http://terminology.hl7.org/CodeSystem/observation-category",
                "code": "laboratory"
              }
            ]
          }
        ],
        "code": {
          "coding": [
            {
              "code": "2571-8",
              "system": "http://loinc.org",
              "display": "Triglyceride [Mass/volume] in Serum or Plasma"
            }
          ],
          "text": "Triglyceride [Mass/volume] in Serum or Plasma"
        },
        "valueQuantity": {
          "system": "http://unitsofmeasure.org",
          "value": 106.7,
          "unit": "mg/dL",
          "code": "mg/dL"
        },
        "referenceRange": [
          {
            "low": {
              "value": 10,
              "code": "mg/dL",
              "system": "http://unitsofmeasure.org"
            }
          },
          {
            "high": {
              "value": 175,
              "code": "mg/dL",
              "system": "http://unitsofmeasure.org"
            }
          }
        ],
        "text": {
          "status": "generated",
          "div": "<div xmlns=\"http://www.w3.org/1999/xhtml\"><table class=\"hl7__eu__lab__report\"><tr><th>Test</th><th>24-Nov-2023</th><th>Reference&#xA0;Range</th><th>Unit</th></tr><tr><td>Triglyceride [Mass/volume] in Serum or Plasma</td><td>106.7</td><td>10 - 175</td><td></td><td>mg/dL</td></tr></table></div>"
        },
        "status": "final",
        "subject": {
          "reference": "urn:uuid:dac14935-5e60-4506-aadd-3ccd9d9718fe",
          "display": "Ludmila Vávrová"
        },
        "effectiveDateTime": "2023-11-24T03:51:38Z",
        "specimen": {
          "reference": "urn:uuid:7a48a3d5-e81b-488a-ac53-9c2ab7ebe336"
        }
      }
    },
    {
      "fullUrl": "urn:uuid:f1cdd3f8-6ba5-4041-8d00-c8c09e145faa",
      "resource": {
        "resourceType": "Observation",
        "id": "f1cdd3f8-6ba5-4041-8d00-c8c09e145faa",
        "meta": {
          "profile": [
            "http://hl7.eu/fhir/laboratory/StructureDefinition/Observation-resultslab-eu-lab"
          ]
        },
        "performer": [
          {
            "display": "The Central European Lab"
          }
        ],
        "category": [
          {
            "coding": [
              {
                "system": "http://terminology.hl7.org/CodeSystem/observation-category",
                "code": "laboratory"
              }
            ]
          }
        ],
        "code": {
          "coding": [
            {
              "code": "18262-6",
              "system": "http://loinc.org",
              "display": "Cholesterol in LDL [Mass/volume] in Serum or Plasma by Direct assay"
            }
          ],
          "text": "Cholesterol in LDL [Mass/volume] in Serum or Plasma by Direct assay"
        },
        "valueQuantity": {
          "system": "http://unitsofmeasure.org",
          "value": 147.1,
          "unit": "mg/dL",
          "code": "mg/dL"
        },
        "referenceRange": [
          {
            "low": {
              "value": 0,
              "code": "mg/dL",
              "system": "http://unitsofmeasure.org"
            }
          },
          {
            "high": {
              "value": 130,
              "code": "mg/dL",
              "system": "http://unitsofmeasure.org"
            }
          }
        ],
        "interpretation": [
          {
            "coding": [
              {
                "code": "H",
                "system": "http://terminology.hl7.org/CodeSystem/v3-ObservationInterpretation",
                "display": "High"
              }
            ]
          }
        ],
        "text": {
          "status": "generated",
          "div": "<div xmlns=\"http://www.w3.org/1999/xhtml\"><table class=\"hl7__eu__lab__report\"><tr><th>Test</th><th>24-Nov-2023</th><th>Reference&#xA0;Range</th><th>Unit</th></tr><tr><td>Cholesterol in LDL [Mass/volume] in Serum or Plasma by Direct assay</td><td>147.1</td><td>0 - 130</td><td>H</td><td>mg/dL</td></tr></table></div>"
        },
        "status": "final",
        "subject": {
          "reference": "urn:uuid:dac14935-5e60-4506-aadd-3ccd9d9718fe",
          "display": "Ludmila Vávrová"
        },
        "effectiveDateTime": "2023-11-24T03:51:38Z",
        "specimen": {
          "reference": "urn:uuid:7a48a3d5-e81b-488a-ac53-9c2ab7ebe336"
        }
      }
    },
    {
      "fullUrl": "urn:uuid:4180fc7d-f9ae-41bd-a2e5-c6f9366e8214",
      "resource": {
        "resourceType": "Observation",
        "id": "4180fc7d-f9ae-41bd-a2e5-c6f9366e8214",
        "meta": {
          "profile": [
            "http://hl7.eu/fhir/laboratory/StructureDefinition/Observation-resultslab-eu-lab"
          ]
        },
        "performer": [
          {
            "display": "The Central European Lab"
          }
        ],
        "category": [
          {
            "coding": [
              {
                "system": "http://terminology.hl7.org/CodeSystem/observation-category",
                "code": "laboratory"
              }
            ]
          }
        ],
        "code": {
          "coding": [
            {
              "code": "2085-9",
              "system": "http://loinc.org",
              "display": "Cholesterol in HDL [Mass/volume] in Serum or Plasma"
            }
          ],
          "text": "Cholesterol in HDL [Mass/volume] in Serum or Plasma"
        },
        "valueQuantity": {
          "system": "http://unitsofmeasure.org",
          "value": 32.4,
          "unit": "mg/dL",
          "code": "mg/dL"
        },
        "referenceRange": [
          {
            "low": {
              "value": 50,
              "code": "mg/dL",
              "system": "http://unitsofmeasure.org"
            }
          },
          {
            "high": {
              "value": 100,
              "code": "mg/dL",
              "system": "http://unitsofmeasure.org"
            }
          }
        ],
        "interpretation": [
          {
            "coding": [
              {
                "code": "L",
                "system": "http://terminology.hl7.org/CodeSystem/v3-ObservationInterpretation",
                "display": "Low"
              }
            ]
          }
        ],
        "text": {
          "status": "generated",
          "div": "<div xmlns=\"http://www.w3.org/1999/xhtml\"><table class=\"hl7__eu__lab__report\"><tr><th>Test</th><th>24-Nov-2023</th><th>Reference&#xA0;Range</th><th>Unit</th></tr><tr><td>Cholesterol in HDL [Mass/volume] in Serum or Plasma</td><td>32.4</td><td>50 - 100</td><td>L</td><td>mg/dL</td></tr></table></div>"
        },
        "status": "final",
        "subject": {
          "reference": "urn:uuid:dac14935-5e60-4506-aadd-3ccd9d9718fe",
          "display": "Ludmila Vávrová"
        },
        "effectiveDateTime": "2023-11-24T03:51:38Z",
        "specimen": {
          "reference": "urn:uuid:7a48a3d5-e81b-488a-ac53-9c2ab7ebe336"
        }
      }
    },
    {
      "fullUrl": "urn:uuid:e08ac185-02d1-4972-9cab-118a3b3faa2c",
      "resource": {
        "resourceType": "Device",
        "id": "e08ac185-02d1-4972-9cab-118a3b3faa2c",
        "deviceName": [
          {
            "name": "SYNDERAI Synthetic Generator",
            "type": "manufacturer-name"
          }
        ],
        "version": [
          {
            "value": "5.0"
          }
        ],
        "text": {
          "status": "generated",
          "div": "<div xmlns=\"http://www.w3.org/1999/xhtml\">SYNDERAI Synthetic Generator v5.0</div>"
        },
        "status": "active\"",
        "distinctIdentifier": "synderai-generator-50",
        "manufacturer": "SYNDERAI Project"
      }
    },
    {
      "fullUrl": "urn:uuid:7a3aa120-9ebc-4317-b559-20f36048ea90",
      "resource": {
        "resourceType": "Provenance",
        "id": "7a3aa120-9ebc-4317-b559-20f36048ea90",
        "target": [
          {
            "reference": "Patient/dac14935-5e60-4506-aadd-3ccd9d9718fe"
          },
          {
            "reference": "Bundle/9cb2f4d6-338e-4638-a55b-5ca799b93705"
          },
          {
            "reference": "Composition/ccc3db55-b8f5-4933-b3db-b4b753b3fbc7"
          },
          {
            "reference": "PractitionerRole/410c8fdf-e767-49ff-bf4e-93029d3cad30"
          },
          {
            "reference": "Practitioner/b7bbbecc-4ca5-4528-a6b7-d969d6be82b9"
          },
          {
            "reference": "PractitionerRole/70fdf21e-b395-4a4f-8dda-1ea63d41b286"
          },
          {
            "reference": "Organization/3a04ea29-ea4d-433e-b424-3651d2e6d718"
          }
        ],
        "activity": {
          "text": "Synthetic Example Data Generation"
        },
        "policy": [
          "https://synderai.net/synderai-synthetic-data-policy"
        ],
        "agent": [
          {
            "type": {
              "text": "author"
            },
            "who": {
              "reference": "Device/e08ac185-02d1-4972-9cab-118a3b3faa2c"
            }
          }
        ],
        "reason": [
          {
            "text": "Interoperability Testing and Training (non-clinical use)"
          }
        ],
        "text": {
          "status": "generated",
          "div": "<div xmlns=\"http://www.w3.org/1999/xhtml\">Provenance for SYNDERAI Synthetic Example Data Resource</div>"
        },
        "recorded": "2023-11-24T04:51:38Z"
      }
    },
    {
      "fullUrl": "urn:uuid:410c8fdf-e767-49ff-bf4e-93029d3cad30",
      "resource": {
        "resourceType": "PractitionerRole",
        "id": "410c8fdf-e767-49ff-bf4e-93029d3cad30",
        "meta": {
          "profile": [
            "http://hl7.eu/fhir/base/StructureDefinition/practitionerRole-eu"
          ]
        },
        "text": {
          "status": "generated",
          "div": "<div xmlns=\"http://www.w3.org/1999/xhtml\">Laboratory Role Id: 410c8fdf-e767-49ff-bf4e-93029d3cad30</div>"
        },
        "practitioner": {
          "reference": "urn:uuid:b7bbbecc-4ca5-4528-a6b7-d969d6be82b9"
        }
      }
    },
    {
      "fullUrl": "urn:uuid:b7bbbecc-4ca5-4528-a6b7-d969d6be82b9",
      "resource": {
        "resourceType": "Practitioner",
        "id": "b7bbbecc-4ca5-4528-a6b7-d969d6be82b9",
        "meta": {
          "profile": [
            "http://hl7.eu/fhir/base/StructureDefinition/practitioner-eu"
          ]
        },
        "identifier": [
          {
            "assigner": {
              "display": "HL7 Europe"
            },
            "system": "urn:oid:2.16.840.1.113883.2.51.999",
            "value": "eebd629a-700c-44fe-8577-013ef2abded2"
          }
        ],
        "name": [
          {
            "prefix": [
              "dr"
            ],
            "given": [
              "Ex"
            ],
            "family": "Ample"
          }
        ],
        "address": [
          {
            "line": [
              "Laboratoire Central Européenne",
              "Boulevard du Jardin Botanique 32"
            ],
            "postalCode": "1000",
            "city": "Brussels",
            "country": "Belgium"
          }
        ],
        "text": {
          "status": "generated",
          "div": "<div xmlns=\"http://www.w3.org/1999/xhtml\">Laboratory: Laboratoire Central Européenne, 1000 Brussels, Belgium</div>"
        }
      }
    }
  ],
  "type": "document",
  "timestamp": "2023-11-24T04:51:38Z"
}
