{
  "resourceType": "Bundle",
  "id": "38ac46c0-fdc3-4f45-b4e4-d2d99a3fe109",
  "meta": {
    "profile": [
      "http://hl7.eu/fhir/laboratory/StructureDefinition/Bundle-eu-lab"
    ]
  },
  "identifier": {
    "assigner": {
      "display": "HL7 Europe"
    },
    "system": "urn:oid:2.16.840.1.113883.2.51.999",
    "value": "1e90e6ce-5c26-4f06-9c1f-000c1b009d0b"
  },
  "entry": [
    {
      "fullUrl": "urn:uuid:978485fd-0398-4545-83e7-394a8637e603",
      "resource": {
        "resourceType": "Composition",
        "id": "978485fd-0398-4545-83e7-394a8637e603",
        "meta": {
          "profile": [
            "http://hl7.eu/fhir/laboratory/StructureDefinition/Composition-eu-lab"
          ]
        },
        "identifier": {
          "assigner": {
            "display": "HL7 Europe"
          },
          "system": "urn:oid:2.16.840.1.113883.2.51.999",
          "value": "24c46220-cef7-4874-848b-f263f3ac46b7"
        },
        "author": [
          {
            "reference": "urn:uuid:35b06b8a-2a4b-44ee-a802-1a075e33dfd8"
          }
        ],
        "category": [
          {
            "coding": [
              {
                "code": "26436-6",
                "system": "http://loinc.org",
                "display": "Laboratory studies (set)"
              }
            ]
          }
        ],
        "type": {
          "coding": [
            {
              "code": "11502-2",
              "system": "http://loinc.org",
              "display": "Laboratory report"
            }
          ],
          "text": "Laboratory Report"
        },
        "section": [
          {
            "code": {
              "coding": [
                {
                  "code": "26436-6",
                  "system": "http://loinc.org",
                  "display": "Laboratory studies (set)"
                }
              ],
              "text": "Laboratory studies"
            },
            "section": [
              {
                "code": {
                  "coding": [
                    {
                      "code": "$18719-5",
                      "system": "http://loinc.org",
                      "display": "Chemistry studies (set)"
                    }
                  ],
                  "text": "Chemistry"
                },
                "entry": [
                  {
                    "reference": "urn:uuid:40c0adbf-c216-43f1-ace5-c9bafb42b963"
                  },
                  {
                    "reference": "urn:uuid:631149d4-e55c-4124-bc81-9c95372d4e47"
                  },
                  {
                    "reference": "urn:uuid:ddb5b2b9-3ce2-427e-9560-a62144d2cd97"
                  },
                  {
                    "reference": "urn:uuid:a2aeb1cd-c125-4fee-ba1e-a2dee567af47"
                  },
                  {
                    "reference": "urn:uuid:8081958b-62d0-471a-9548-80139e9e9ad8"
                  },
                  {
                    "reference": "urn:uuid:2294374f-4558-4dce-93b1-75834ac2a237"
                  },
                  {
                    "reference": "urn:uuid:5a403e8e-f0c8-4339-9c7e-13ec7f1beee4"
                  },
                  {
                    "reference": "urn:uuid:ea2b2caf-b92f-4381-b0dc-c49594d10ec8"
                  },
                  {
                    "reference": "urn:uuid:d95dffa7-0f71-46e0-b6bd-f0552abb0d39"
                  },
                  {
                    "reference": "urn:uuid:939144f3-bab6-46f0-8750-0d07e915c4e8"
                  },
                  {
                    "reference": "urn:uuid:d47db7dc-884c-4195-ab0f-918043f64327"
                  },
                  {
                    "reference": "urn:uuid:08304d01-7fc1-4b52-aa4c-8f1b897f254b"
                  },
                  {
                    "reference": "urn:uuid:0504b1c2-13a4-4d59-b209-9224bf80274b"
                  },
                  {
                    "reference": "urn:uuid:a1cfc861-9a53-41f6-a3c0-8df8dc51fd5f"
                  },
                  {
                    "reference": "urn:uuid:27e14766-6e79-49dd-8994-b4e93b3e7564"
                  },
                  {
                    "reference": "urn:uuid:16798424-a046-4ec9-8d6e-b8e98ba4d50b"
                  },
                  {
                    "reference": "urn:uuid:e4a07bb3-76cb-45c3-8110-d37ec16ae22f"
                  },
                  {
                    "reference": "urn:uuid:10518ee3-231e-47c1-9785-61ca2e456ebc"
                  }
                ],
                "text": {
                  "status": "generated",
                  "div": "<div xmlns=\"http://www.w3.org/1999/xhtml\"><h3>Chemistry</h3><table class=\"hl7__eu__lab__report\"><thead><tr><th>Test</th><th>30-JAN-2019</th><th>Reference&#xA0;Range</th><th>Unit</th></tr></thead><tbody><tr><td>Glucose [Mass/volume] in Serum or Plasma</td><td>90.7</td><td>70 - 140</td><td>mg/dL</td></tr><tr><td>Urea nitrogen [Mass/volume] in Serum or Plasma</td><td>7.8</td><td>7 - 20</td><td>mg/dL</td></tr><tr><td>Creatinine [Mass/volume] in Serum or Plasma</td><td><strong>1.9 H</strong></td><td>0.9 - 1.3</td><td>mg/dL</td></tr><tr><td>Calcium [Mass/volume] in Serum or Plasma</td><td>8.7</td><td>8.5 - 10.5</td><td>mg/dL</td></tr><tr><td>Sodium [Moles/volume] in Serum or Plasma</td><td>136.4</td><td>135 - 145</td><td>mmol/L</td></tr><tr><td>Potassium [Moles/volume] in Serum or Plasma</td><td>4.0</td><td>3.5 - 5</td><td>mmol/L</td></tr><tr><td>Chloride [Moles/volume] in Serum or Plasma</td><td>101.5</td><td>98 - 108</td><td>mmol/L</td></tr><tr><td>Carbon dioxide, total [Moles/volume] in Serum or Plasma</td><td>27.7</td><td>22 - 29</td><td>mmol/L</td></tr><tr><td>Ketones [Presence] in Urine by Test strip</td><td>Urine ketone test = ++</td><td></td><td></td></tr><tr><td>Hemoglobin A1c/Hemoglobin.total in Blood</td><td><strong>3.2 L</strong></td><td>4.3 - 6.4</td><td>%</td></tr><tr><td>Glucose [Mass/volume] in Blood</td><td>90.7</td><td>70 - 140</td><td>mg/dL</td></tr><tr><td>Urea nitrogen [Mass/volume] in Blood</td><td>7.8</td><td>7 - 20</td><td>mg/dL</td></tr><tr><td>Creatinine [Mass/volume] in Blood</td><td><strong>6.7 H</strong></td><td>0.6 - 1.3</td><td>mg/dL</td></tr><tr><td>Calcium [Mass/volume] in Blood</td><td>8.7</td><td>8.5 - 10.5</td><td>mg/dL</td></tr><tr><td>Sodium [Moles/volume] in Blood</td><td>136.4</td><td>135 - 145</td><td>mmol/L</td></tr><tr><td>Potassium [Moles/volume] in Blood</td><td>4.0</td><td>3.5 - 5.3</td><td>mmol/L</td></tr><tr><td>Chloride [Moles/volume] in Blood</td><td>101.5</td><td>98 - 110</td><td>mmol/L</td></tr><tr><td>Carbon dioxide, total [Moles/volume] in Blood</td><td>27.7</td><td>22 - 29</td><td>mmol/L</td></tr></tbody></table></div>"
                },
                "title": "Chemistry"
              },
              {
                "code": {
                  "coding": [
                    {
                      "code": "$18729-4",
                      "system": "http://loinc.org",
                      "display": "Urinalysis studies (set)"
                    }
                  ],
                  "text": "Urinalysis"
                },
                "entry": [
                  {
                    "reference": "urn:uuid:a856d5c1-3c59-4468-8f3a-d7de8dc0d908"
                  },
                  {
                    "reference": "urn:uuid:74cd847a-b1cd-4b88-8d55-4f226dc0c395"
                  },
                  {
                    "reference": "urn:uuid:03d30138-3c59-4e1a-9cb2-417db1902721"
                  },
                  {
                    "reference": "urn:uuid:64e80d43-84d7-4f18-86e6-6e8aa6d7b251"
                  },
                  {
                    "reference": "urn:uuid:ae32b766-4952-4d98-bdcb-efbd6aad3ee8"
                  },
                  {
                    "reference": "urn:uuid:d8b100c6-3e81-4146-b042-b89b8e8029ef"
                  },
                  {
                    "reference": "urn:uuid:31e655a6-30db-4eba-bd1e-1d724279bd01"
                  },
                  {
                    "reference": "urn:uuid:4aa19546-b167-4a55-897a-ac6c77cec543"
                  },
                  {
                    "reference": "urn:uuid:b0f561d5-c00c-4675-9ee2-f5365174758c"
                  },
                  {
                    "reference": "urn:uuid:4d14c052-c617-4564-9afd-2db3523a16d7"
                  },
                  {
                    "reference": "urn:uuid:aa6ac863-1764-4cd9-8db0-90b199821f4a"
                  },
                  {
                    "reference": "urn:uuid:278943d3-2240-4842-beec-f9629fdacc8a"
                  }
                ],
                "text": {
                  "status": "generated",
                  "div": "<div xmlns=\"http://www.w3.org/1999/xhtml\"><h3>Urinalysis</h3><table class=\"hl7__eu__lab__report\"><thead><tr><th>Test</th><th>30-JAN-2019</th><th>Reference&#xA0;Range</th><th>Unit</th></tr></thead><tbody><tr><td>Glucose [Mass/volume] in Urine by Test strip</td><td><strong>1.9 H</strong></td><td>0 - 0.8</td><td>mg/dL</td></tr><tr><td>Glucose [Presence] in Urine by Test strip</td><td>++</td><td></td><td></td></tr><tr><td>Bilirubin.total [Mass/volume] in Urine by Test strip</td><td>0.8</td><td>0.2 - 1</td><td>mg/dL</td></tr><tr><td>Bilirubin.total [Presence] in Urine by Test strip</td><td>Finding of bilirubin in urine</td><td></td><td></td></tr><tr><td>Ketones [Mass/volume] in Urine by Test strip</td><td><strong>8.2 H</strong></td><td>0 - 5</td><td>mg/dL</td></tr><tr><td>Specific gravity of Urine by Test strip</td><td><strong>1.0 L</strong></td><td>1.005 - 1.03</td><td>{nominal}</td></tr><tr><td>pH of Urine by Test strip</td><td>6.1</td><td>4.6 - 7</td><td>pH</td></tr><tr><td>Protein [Mass/volume] in Urine by Test strip</td><td><strong>272.8 H</strong></td><td>0 - 150</td><td>mg/dL</td></tr><tr><td>Protein [Presence] in Urine by Test strip</td><td>Urine protein test = ++</td><td></td><td></td></tr><tr><td>Nitrite [Presence] in Urine by Test strip</td><td>Urine nitrite negative</td><td></td><td></td></tr><tr><td>Hemoglobin [Presence] in Urine by Test strip</td><td>Urine blood test = negative</td><td></td><td></td></tr><tr><td>Leukocyte esterase [Presence] in Urine by Test strip</td><td>Urine leukocyte test negative</td><td></td><td></td></tr></tbody></table></div>"
                },
                "title": "Urinalysis"
              },
              {
                "code": {
                  "coding": [
                    {
                      "code": "$LP7846-1",
                      "system": "http://loinc.org",
                      "display": "Specimen information"
                    }
                  ],
                  "text": "Specimen information"
                },
                "entry": [
                  {
                    "reference": "urn:uuid:d7161ec9-4ad9-45c2-9b79-9577b540229b"
                  },
                  {
                    "reference": "urn:uuid:13df7598-aeda-4704-8b67-a067703b19ff"
                  },
                  {
                    "reference": "urn:uuid:377a5386-2dca-4412-9994-0e27ff43d797"
                  },
                  {
                    "reference": "urn:uuid:52005d24-b714-411b-a3a0-23de1bccd82f"
                  }
                ],
                "text": {
                  "status": "generated",
                  "div": "<div xmlns=\"http://www.w3.org/1999/xhtml\"><h3>Specimen information</h3><table class=\"hl7__eu__lab__report\"><thead><tr><th>Test</th><th>30-JAN-2019</th><th>Specimen</th><th></th></tr></thead><tbody><tr><td>Appearance of Urine</td><td>Cloudy urine</td><td>Urine</td><td></td></tr><tr><td>Odor of Urine</td><td>Urine smell ammoniacal</td><td>Urine</td><td></td></tr><tr><td>Clarity of Urine</td><td>Translucent</td><td>Urine</td><td></td></tr><tr><td>Color of Urine</td><td>Brown color</td><td>Urine</td><td></td></tr></tbody></table></div>"
                },
                "title": "Specimen information"
              }
            ],
            "title": "Laboratory Report"
          },
          {
            "text": {
              "status": "generated",
              "div": "<div xmlns=\"http://www.w3.org/1999/xhtml\"><h3>Annotation</h3><table class=\"hl7__eu__lab__report\"><tr><th>Conclusion and Recommendations based on this report and previous findings known to us</th></tr><tr><td>The patient shows significantly elevated creatinine in both serum and blood, indicating impaired renal function. Urinalysis reveals proteinuria, glycosuria, ketonuria, low specific gravity, and abnormal urine appearance, suggesting possible nephrotic syndrome or diabetic ketoacidosis, though HbA1c is unexpectedly low. No evidence of urinary tract infection. Immediate clinical correlation and nephrology evaluation are recommended.</td></tr></table></div>"
            },
            "code": {
              "coding": [
                {
                  "system": "http://loinc.org",
                  "code": "48767-8",
                  "display": "Annotation comment"
                }
              ]
            },
            "title": "Annotation comment"
          }
        ],
        "status": "final",
        "subject": {
          "reference": "urn:uuid:617eb6c8-4f99-4f1e-8971-6ff10c0980d8",
          "display": "Θεμιστοκλής Λιναρδάκη"
        },
        "date": "2019-01-30T07:16:00Z",
        "title": "Laboratory Report",
        "confidentiality": "N"
      }
    },
    {
      "fullUrl": "urn:uuid:d7967452-6cc2-4a7f-8295-5b9cead23f51",
      "resource": {
        "resourceType": "DiagnosticReport",
        "id": "d7967452-6cc2-4a7f-8295-5b9cead23f51",
        "meta": {
          "profile": [
            "http://hl7.eu/fhir/laboratory/StructureDefinition/DiagnosticReport-eu-lab"
          ]
        },
        "identifier": [
          {
            "assigner": {
              "display": "HL7 Europe"
            },
            "system": "urn:oid:2.16.840.1.113883.2.51.999",
            "value": "da7af7df-8e68-45ce-aa1a-27ba9fd96b68"
          }
        ],
        "extension": [
          {
            "url": "http://hl7.org/fhir/5.0/StructureDefinition/extension-DiagnosticReport.composition",
            "valueReference": {
              "reference": "urn:uuid:24c46220-cef7-4874-848b-f263f3ac46b7"
            }
          }
        ],
        "category": [
          {
            "coding": [
              {
                "code": "26436-6",
                "system": "http://loinc.org",
                "display": "Laboratory studies (set)"
              }
            ]
          }
        ],
        "specimen": [
          {
            "reference": "urn:uuid:655316b7-e192-4c7f-8ea6-fa928220f035"
          },
          {
            "reference": "urn:uuid:aac584bb-48f1-4e63-a219-63c60f7efb48"
          },
          {
            "reference": "urn:uuid:28e32133-a2a3-40ce-8149-422e78404edc"
          }
        ],
        "result": [
          {
            "reference": "urn:uuid:40c0adbf-c216-43f1-ace5-c9bafb42b963"
          },
          {
            "reference": "urn:uuid:631149d4-e55c-4124-bc81-9c95372d4e47"
          },
          {
            "reference": "urn:uuid:ddb5b2b9-3ce2-427e-9560-a62144d2cd97"
          },
          {
            "reference": "urn:uuid:a2aeb1cd-c125-4fee-ba1e-a2dee567af47"
          },
          {
            "reference": "urn:uuid:8081958b-62d0-471a-9548-80139e9e9ad8"
          },
          {
            "reference": "urn:uuid:2294374f-4558-4dce-93b1-75834ac2a237"
          },
          {
            "reference": "urn:uuid:5a403e8e-f0c8-4339-9c7e-13ec7f1beee4"
          },
          {
            "reference": "urn:uuid:ea2b2caf-b92f-4381-b0dc-c49594d10ec8"
          },
          {
            "reference": "urn:uuid:d7161ec9-4ad9-45c2-9b79-9577b540229b"
          },
          {
            "reference": "urn:uuid:13df7598-aeda-4704-8b67-a067703b19ff"
          },
          {
            "reference": "urn:uuid:377a5386-2dca-4412-9994-0e27ff43d797"
          },
          {
            "reference": "urn:uuid:52005d24-b714-411b-a3a0-23de1bccd82f"
          },
          {
            "reference": "urn:uuid:a856d5c1-3c59-4468-8f3a-d7de8dc0d908"
          },
          {
            "reference": "urn:uuid:74cd847a-b1cd-4b88-8d55-4f226dc0c395"
          },
          {
            "reference": "urn:uuid:03d30138-3c59-4e1a-9cb2-417db1902721"
          },
          {
            "reference": "urn:uuid:64e80d43-84d7-4f18-86e6-6e8aa6d7b251"
          },
          {
            "reference": "urn:uuid:ae32b766-4952-4d98-bdcb-efbd6aad3ee8"
          },
          {
            "reference": "urn:uuid:d95dffa7-0f71-46e0-b6bd-f0552abb0d39"
          },
          {
            "reference": "urn:uuid:d8b100c6-3e81-4146-b042-b89b8e8029ef"
          },
          {
            "reference": "urn:uuid:31e655a6-30db-4eba-bd1e-1d724279bd01"
          },
          {
            "reference": "urn:uuid:4aa19546-b167-4a55-897a-ac6c77cec543"
          },
          {
            "reference": "urn:uuid:b0f561d5-c00c-4675-9ee2-f5365174758c"
          },
          {
            "reference": "urn:uuid:4d14c052-c617-4564-9afd-2db3523a16d7"
          },
          {
            "reference": "urn:uuid:aa6ac863-1764-4cd9-8db0-90b199821f4a"
          },
          {
            "reference": "urn:uuid:278943d3-2240-4842-beec-f9629fdacc8a"
          },
          {
            "reference": "urn:uuid:939144f3-bab6-46f0-8750-0d07e915c4e8"
          },
          {
            "reference": "urn:uuid:d47db7dc-884c-4195-ab0f-918043f64327"
          },
          {
            "reference": "urn:uuid:08304d01-7fc1-4b52-aa4c-8f1b897f254b"
          },
          {
            "reference": "urn:uuid:0504b1c2-13a4-4d59-b209-9224bf80274b"
          },
          {
            "reference": "urn:uuid:a1cfc861-9a53-41f6-a3c0-8df8dc51fd5f"
          },
          {
            "reference": "urn:uuid:27e14766-6e79-49dd-8994-b4e93b3e7564"
          },
          {
            "reference": "urn:uuid:16798424-a046-4ec9-8d6e-b8e98ba4d50b"
          },
          {
            "reference": "urn:uuid:e4a07bb3-76cb-45c3-8110-d37ec16ae22f"
          },
          {
            "reference": "urn:uuid:10518ee3-231e-47c1-9785-61ca2e456ebc"
          }
        ],
        "status": "registered",
        "code": {
          "coding": [
            {
              "code": "11502-2",
              "system": "http://loinc.org",
              "display": "Laboratory report"
            }
          ]
        },
        "subject": {
          "reference": "urn:uuid:617eb6c8-4f99-4f1e-8971-6ff10c0980d8",
          "display": "Θεμιστοκλής Λιναρδάκη"
        }
      }
    },
    {
      "fullUrl": "urn:uuid:617eb6c8-4f99-4f1e-8971-6ff10c0980d8",
      "resource": {
        "resourceType": "Patient",
        "id": "617eb6c8-4f99-4f1e-8971-6ff10c0980d8",
        "meta": {
          "security": [
            {
              "system": "http://terminology.hl7.org/CodeSystem/v3-ActReason",
              "code": "HTEST"
            },
            {
              "system": "http://terminology.hl7.org/CodeSystem/v3-ActReason",
              "code": "TRAIN"
            }
          ],
          "tag": [
            {
              "system": "https://synderai.net/fhir/CodeSystem/tags",
              "code": "synthetic",
              "display": "SYNDERAI Synthetic data"
            }
          ],
          "profile": [
            "http://hl7.eu/fhir/base/StructureDefinition/patient-eu-core"
          ]
        },
        "identifier": [
          {
            "type": {
              "coding": [
                {
                  "code": "PT",
                  "system": "http://terminology.hl7.org/CodeSystem/v2-0203"
                }
              ]
            },
            "system": "http://ec.europa.eu/identifier/eci",
            "value": "5962-476889-7"
          },
          {
            "type": {
              "coding": [
                {
                  "code": "MR",
                  "system": "http://terminology.hl7.org/CodeSystem/v2-0203"
                }
              ]
            },
            "system": "http://local.setting.eu/identifier",
            "value": "925e2603-2ef9-6bdf-1330-2ebf526636c4"
          }
        ],
        "name": [
          {
            "family": "Λιναρδάκη"
          },
          {
            "given": [
              "Θεμιστοκλής"
            ]
          },
          {
            "text": "Θεμιστοκλής Λιναρδάκη"
          }
        ],
        "address": [
          {
            "line": [
              "Αμαρύνθου 54-58"
            ],
            "use": "home",
            "type": "physical",
            "postalCode": "262 21",
            "city": "Πάτρα",
            "country": "Greece"
          }
        ],
        "telecom": [
          {
            "system": "phone",
            "value": "+302226364480"
          }
        ],
        "extension": [
          {
            "url": "http://hl7.org/fhir/StructureDefinition/patient-nationality",
            "valueCodeableConcept": {
              "coding": [
                {
                  "code": "GR",
                  "system": "http://hl7.org/fhir/ValueSet/country"
                }
              ]
            }
          }
        ],
        "text": {
          "status": "generated",
          "div": "<div xmlns=\"http://www.w3.org/1999/xhtml\"><table class=\"hl7__ips\"><tr><td>Θεμιστοκλής Λιναρδάκη</td><td>male</td><td>21-Jan-1974</td></tr></table></div>"
        },
        "gender": "male",
        "birthDate": "1974-01-21"
      }
    },
    {
      "fullUrl": "urn:uuid:236a503d-2fc6-4ef5-a39e-b5d05093c5a6",
      "resource": {
        "resourceType": "ServiceRequest",
        "id": "236a503d-2fc6-4ef5-a39e-b5d05093c5a6",
        "meta": {
          "profile": [
            "http://hl7.eu/fhir/laboratory/StructureDefinition/ServiceRequest-eu-lab"
          ]
        },
        "identifier": [
          {
            "system": "http://example.org",
            "value": "94f2310d-9f82-4661-b0d6-f4b854cdbbe5"
          }
        ],
        "specimen": [
          {
            "reference": "urn:uuid:655316b7-e192-4c7f-8ea6-fa928220f035"
          },
          {
            "reference": "urn:uuid:aac584bb-48f1-4e63-a219-63c60f7efb48"
          },
          {
            "reference": "urn:uuid:28e32133-a2a3-40ce-8149-422e78404edc"
          }
        ],
        "reasonCode": [
          {
            "coding": [
              {
                "code": "237602007",
                "system": "http://snomed.info/sct",
                "display": "Metabolic syndrome X"
              }
            ]
          },
          {
            "coding": [
              {
                "code": "433144002",
                "system": "http://snomed.info/sct",
                "display": "Chronic kidney disease stage 3"
              }
            ]
          },
          {
            "coding": [
              {
                "code": "157141000119108",
                "system": "http://snomed.info/sct",
                "display": "Proteinuria due to type 2 diabetes mellitus"
              }
            ]
          },
          {
            "coding": [
              {
                "code": "431856006",
                "system": "http://snomed.info/sct",
                "display": "Chronic kidney disease stage 2"
              }
            ]
          },
          {
            "coding": [
              {
                "code": "90781000119102",
                "system": "http://snomed.info/sct",
                "display": "Microalbuminuria due to type 2 diabetes mellitus"
              }
            ]
          },
          {
            "coding": [
              {
                "code": "127013003",
                "system": "http://snomed.info/sct",
                "display": "Disorder of kidney due to diabetes mellitus"
              }
            ]
          },
          {
            "coding": [
              {
                "code": "431855005",
                "system": "http://snomed.info/sct",
                "display": "Chronic kidney disease stage 1"
              }
            ]
          },
          {
            "coding": [
              {
                "code": "59621000",
                "system": "http://snomed.info/sct",
                "display": "Essential hypertension"
              }
            ]
          },
          {
            "coding": [
              {
                "code": "15777000",
                "system": "http://snomed.info/sct",
                "display": "Prediabetes"
              }
            ]
          },
          {
            "coding": [
              {
                "code": "271737000",
                "system": "http://snomed.info/sct",
                "display": "Anemia"
              }
            ]
          }
        ],
        "status": "active",
        "intent": "order",
        "code": {
          "coding": [
            {
              "code": "108252007",
              "system": "http://snomed.info/sct",
              "display": "Laboratory procedure"
            }
          ]
        },
        "subject": {
          "reference": "urn:uuid:617eb6c8-4f99-4f1e-8971-6ff10c0980d8",
          "display": "Θεμιστοκλής Λιναρδάκη"
        },
        "requester": {
          "reference": "urn:uuid:7dcc2ce9-0126-40ed-99a7-3c1b638be5bc"
        }
      }
    },
    {
      "fullUrl": "urn:uuid:7dcc2ce9-0126-40ed-99a7-3c1b638be5bc",
      "resource": {
        "resourceType": "PractitionerRole",
        "id": "7dcc2ce9-0126-40ed-99a7-3c1b638be5bc",
        "meta": {
          "profile": [
            "http://hl7.eu/fhir/base/StructureDefinition/practitionerRole-eu"
          ]
        },
        "text": {
          "status": "generated",
          "div": "<div xmlns=\"http://www.w3.org/1999/xhtml\">Provider Role Id: 7dcc2ce9-0126-40ed-99a7-3c1b638be5bc</div>"
        },
        "organization": {
          "reference": "urn:uuid:fccdea89-0e07-43fa-b3d1-a2d728c0dd27"
        }
      }
    },
    {
      "fullUrl": "urn:uuid:fccdea89-0e07-43fa-b3d1-a2d728c0dd27",
      "resource": {
        "resourceType": "Organization",
        "id": "fccdea89-0e07-43fa-b3d1-a2d728c0dd27",
        "meta": {
          "profile": [
            "http://hl7.eu/fhir/base/StructureDefinition/organization-eu"
          ]
        },
        "identifier": [
          {
            "assigner": {
              "display": "HL7 Europe"
            },
            "system": "urn:oid:2.16.840.1.113883.2.51.999",
            "value": "c8837784-3113-44d4-af73-13aa71ee870a"
          }
        ],
        "address": [
          {
            "line": [
              "211 Odós Filellinon"
            ],
            "city": "Patras",
            "postalCode": "262 21",
            "country": "Greece"
          }
        ],
        "text": {
          "status": "generated",
          "div": "<div xmlns=\"http://www.w3.org/1999/xhtml\">Provider Organization: Dr. Dimitris Economou</div>"
        },
        "name": "Dr. Dimitris Economou"
      }
    },
    {
      "fullUrl": "urn:uuid:655316b7-e192-4c7f-8ea6-fa928220f035",
      "resource": {
        "resourceType": "Specimen",
        "id": "655316b7-e192-4c7f-8ea6-fa928220f035",
        "meta": {
          "profile": [
            "http://hl7.eu/fhir/laboratory/StructureDefinition/Specimen-eu-lab"
          ]
        },
        "collection": {
          "collectedDateTime": "2019-01-30"
        },
        "text": {
          "status": "generated",
          "div": "<div xmlns=\"http://www.w3.org/1999/xhtml\"><table class=\"hl7__eu__lab__report\"><tr><th>Specimen</th><th>Collection Date</th></tr><tr><td>Acellular blood (serum or plasma) specimen</td><td><span class=\"nb\">30-Jan-2019</span></td></tr></table></div>"
        },
        "type": {
          "coding": [
            {
              "code": "122592007",
              "system": "http://snomed.info/sct",
              "display": "Acellular blood (serum or plasma) specimen"
            }
          ]
        }
      }
    },
    {
      "fullUrl": "urn:uuid:aac584bb-48f1-4e63-a219-63c60f7efb48",
      "resource": {
        "resourceType": "Specimen",
        "id": "aac584bb-48f1-4e63-a219-63c60f7efb48",
        "meta": {
          "profile": [
            "http://hl7.eu/fhir/laboratory/StructureDefinition/Specimen-eu-lab"
          ]
        },
        "collection": {
          "collectedDateTime": "2019-01-30"
        },
        "text": {
          "status": "generated",
          "div": "<div xmlns=\"http://www.w3.org/1999/xhtml\"><table class=\"hl7__eu__lab__report\"><tr><th>Specimen</th><th>Collection Date</th></tr><tr><td>Urine specimen</td><td><span class=\"nb\">30-Jan-2019</span></td></tr></table></div>"
        },
        "type": {
          "coding": [
            {
              "code": "122575003",
              "system": "http://snomed.info/sct",
              "display": "Urine specimen"
            }
          ]
        }
      }
    },
    {
      "fullUrl": "urn:uuid:28e32133-a2a3-40ce-8149-422e78404edc",
      "resource": {
        "resourceType": "Specimen",
        "id": "28e32133-a2a3-40ce-8149-422e78404edc",
        "meta": {
          "profile": [
            "http://hl7.eu/fhir/laboratory/StructureDefinition/Specimen-eu-lab"
          ]
        },
        "collection": {
          "collectedDateTime": "2019-01-30"
        },
        "text": {
          "status": "generated",
          "div": "<div xmlns=\"http://www.w3.org/1999/xhtml\"><table class=\"hl7__eu__lab__report\"><tr><th>Specimen</th><th>Collection Date</th></tr><tr><td>Whole blood specimen (specimen)</td><td><span class=\"nb\">30-Jan-2019</span></td></tr></table></div>"
        },
        "type": {
          "coding": [
            {
              "code": "258580003",
              "system": "http://snomed.info/sct",
              "display": "Whole blood specimen (specimen)"
            }
          ]
        }
      }
    },
    {
      "fullUrl": "urn:uuid:40c0adbf-c216-43f1-ace5-c9bafb42b963",
      "resource": {
        "resourceType": "Observation",
        "id": "40c0adbf-c216-43f1-ace5-c9bafb42b963",
        "meta": {
          "profile": [
            "http://hl7.eu/fhir/laboratory/StructureDefinition/Observation-resultslab-eu-lab"
          ]
        },
        "performer": [
          {
            "display": "The Central European Lab"
          }
        ],
        "category": [
          {
            "coding": [
              {
                "system": "http://terminology.hl7.org/CodeSystem/observation-category",
                "code": "laboratory"
              }
            ]
          }
        ],
        "code": {
          "coding": [
            {
              "code": "2345-7",
              "system": "http://loinc.org",
              "display": "Glucose [Mass/volume] in Serum or Plasma"
            }
          ],
          "text": "Glucose [Mass/volume] in Serum or Plasma"
        },
        "valueQuantity": {
          "system": "http://unitsofmeasure.org",
          "value": 90.7,
          "unit": "mg/dL",
          "code": "mg/dL"
        },
        "referenceRange": [
          {
            "low": {
              "value": 70,
              "code": "mg/dL",
              "system": "http://unitsofmeasure.org"
            }
          },
          {
            "high": {
              "value": 140,
              "code": "mg/dL",
              "system": "http://unitsofmeasure.org"
            }
          }
        ],
        "text": {
          "status": "generated",
          "div": "<div xmlns=\"http://www.w3.org/1999/xhtml\"><table class=\"hl7__eu__lab__report\"><tr><th>Test</th><th>30-Jan-2019</th><th>Reference&#xA0;Range</th><th>Unit</th></tr><tr><td>Glucose [Mass/volume] in Serum or Plasma</td><td>90.7</td><td>70 - 140</td><td></td><td>mg/dL</td></tr></table></div>"
        },
        "status": "final",
        "subject": {
          "reference": "urn:uuid:617eb6c8-4f99-4f1e-8971-6ff10c0980d8",
          "display": "Θεμιστοκλής Λιναρδάκη"
        },
        "effectiveDateTime": "2019-01-30T06:16:00Z",
        "specimen": {
          "reference": "urn:uuid:655316b7-e192-4c7f-8ea6-fa928220f035"
        }
      }
    },
    {
      "fullUrl": "urn:uuid:631149d4-e55c-4124-bc81-9c95372d4e47",
      "resource": {
        "resourceType": "Observation",
        "id": "631149d4-e55c-4124-bc81-9c95372d4e47",
        "meta": {
          "profile": [
            "http://hl7.eu/fhir/laboratory/StructureDefinition/Observation-resultslab-eu-lab"
          ]
        },
        "performer": [
          {
            "display": "The Central European Lab"
          }
        ],
        "category": [
          {
            "coding": [
              {
                "system": "http://terminology.hl7.org/CodeSystem/observation-category",
                "code": "laboratory"
              }
            ]
          }
        ],
        "code": {
          "coding": [
            {
              "code": "3094-0",
              "system": "http://loinc.org",
              "display": "Urea nitrogen [Mass/volume] in Serum or Plasma"
            }
          ],
          "text": "Urea nitrogen [Mass/volume] in Serum or Plasma"
        },
        "valueQuantity": {
          "system": "http://unitsofmeasure.org",
          "value": 7.8,
          "unit": "mg/dL",
          "code": "mg/dL"
        },
        "referenceRange": [
          {
            "low": {
              "value": 7,
              "code": "mg/dL",
              "system": "http://unitsofmeasure.org"
            }
          },
          {
            "high": {
              "value": 20,
              "code": "mg/dL",
              "system": "http://unitsofmeasure.org"
            }
          }
        ],
        "text": {
          "status": "generated",
          "div": "<div xmlns=\"http://www.w3.org/1999/xhtml\"><table class=\"hl7__eu__lab__report\"><tr><th>Test</th><th>30-Jan-2019</th><th>Reference&#xA0;Range</th><th>Unit</th></tr><tr><td>Urea nitrogen [Mass/volume] in Serum or Plasma</td><td>7.8</td><td>7 - 20</td><td></td><td>mg/dL</td></tr></table></div>"
        },
        "status": "final",
        "subject": {
          "reference": "urn:uuid:617eb6c8-4f99-4f1e-8971-6ff10c0980d8",
          "display": "Θεμιστοκλής Λιναρδάκη"
        },
        "effectiveDateTime": "2019-01-30T06:16:00Z",
        "specimen": {
          "reference": "urn:uuid:655316b7-e192-4c7f-8ea6-fa928220f035"
        }
      }
    },
    {
      "fullUrl": "urn:uuid:ddb5b2b9-3ce2-427e-9560-a62144d2cd97",
      "resource": {
        "resourceType": "Observation",
        "id": "ddb5b2b9-3ce2-427e-9560-a62144d2cd97",
        "meta": {
          "profile": [
            "http://hl7.eu/fhir/laboratory/StructureDefinition/Observation-resultslab-eu-lab"
          ]
        },
        "performer": [
          {
            "display": "The Central European Lab"
          }
        ],
        "category": [
          {
            "coding": [
              {
                "system": "http://terminology.hl7.org/CodeSystem/observation-category",
                "code": "laboratory"
              }
            ]
          }
        ],
        "code": {
          "coding": [
            {
              "code": "2160-0",
              "system": "http://loinc.org",
              "display": "Creatinine [Mass/volume] in Serum or Plasma"
            }
          ],
          "text": "Creatinine [Mass/volume] in Serum or Plasma"
        },
        "valueQuantity": {
          "system": "http://unitsofmeasure.org",
          "value": 1.9,
          "unit": "mg/dL",
          "code": "mg/dL"
        },
        "referenceRange": [
          {
            "low": {
              "value": 0.9,
              "code": "mg/dL",
              "system": "http://unitsofmeasure.org"
            }
          },
          {
            "high": {
              "value": 1.3,
              "code": "mg/dL",
              "system": "http://unitsofmeasure.org"
            }
          }
        ],
        "interpretation": [
          {
            "coding": [
              {
                "code": "H",
                "system": "http://terminology.hl7.org/CodeSystem/v3-ObservationInterpretation",
                "display": "High"
              }
            ]
          }
        ],
        "text": {
          "status": "generated",
          "div": "<div xmlns=\"http://www.w3.org/1999/xhtml\"><table class=\"hl7__eu__lab__report\"><tr><th>Test</th><th>30-Jan-2019</th><th>Reference&#xA0;Range</th><th>Unit</th></tr><tr><td>Creatinine [Mass/volume] in Serum or Plasma</td><td>1.9</td><td>0.9 - 1.3</td><td>H</td><td>mg/dL</td></tr></table></div>"
        },
        "status": "final",
        "subject": {
          "reference": "urn:uuid:617eb6c8-4f99-4f1e-8971-6ff10c0980d8",
          "display": "Θεμιστοκλής Λιναρδάκη"
        },
        "effectiveDateTime": "2019-01-30T06:16:00Z",
        "specimen": {
          "reference": "urn:uuid:655316b7-e192-4c7f-8ea6-fa928220f035"
        }
      }
    },
    {
      "fullUrl": "urn:uuid:a2aeb1cd-c125-4fee-ba1e-a2dee567af47",
      "resource": {
        "resourceType": "Observation",
        "id": "a2aeb1cd-c125-4fee-ba1e-a2dee567af47",
        "meta": {
          "profile": [
            "http://hl7.eu/fhir/laboratory/StructureDefinition/Observation-resultslab-eu-lab"
          ]
        },
        "performer": [
          {
            "display": "The Central European Lab"
          }
        ],
        "category": [
          {
            "coding": [
              {
                "system": "http://terminology.hl7.org/CodeSystem/observation-category",
                "code": "laboratory"
              }
            ]
          }
        ],
        "code": {
          "coding": [
            {
              "code": "17861-6",
              "system": "http://loinc.org",
              "display": "Calcium [Mass/volume] in Serum or Plasma"
            }
          ],
          "text": "Calcium [Mass/volume] in Serum or Plasma"
        },
        "valueQuantity": {
          "system": "http://unitsofmeasure.org",
          "value": 8.7,
          "unit": "mg/dL",
          "code": "mg/dL"
        },
        "referenceRange": [
          {
            "low": {
              "value": 8.5,
              "code": "mg/dL",
              "system": "http://unitsofmeasure.org"
            }
          },
          {
            "high": {
              "value": 10.5,
              "code": "mg/dL",
              "system": "http://unitsofmeasure.org"
            }
          }
        ],
        "text": {
          "status": "generated",
          "div": "<div xmlns=\"http://www.w3.org/1999/xhtml\"><table class=\"hl7__eu__lab__report\"><tr><th>Test</th><th>30-Jan-2019</th><th>Reference&#xA0;Range</th><th>Unit</th></tr><tr><td>Calcium [Mass/volume] in Serum or Plasma</td><td>8.7</td><td>8.5 - 10.5</td><td></td><td>mg/dL</td></tr></table></div>"
        },
        "status": "final",
        "subject": {
          "reference": "urn:uuid:617eb6c8-4f99-4f1e-8971-6ff10c0980d8",
          "display": "Θεμιστοκλής Λιναρδάκη"
        },
        "effectiveDateTime": "2019-01-30T06:16:00Z",
        "specimen": {
          "reference": "urn:uuid:655316b7-e192-4c7f-8ea6-fa928220f035"
        }
      }
    },
    {
      "fullUrl": "urn:uuid:8081958b-62d0-471a-9548-80139e9e9ad8",
      "resource": {
        "resourceType": "Observation",
        "id": "8081958b-62d0-471a-9548-80139e9e9ad8",
        "meta": {
          "profile": [
            "http://hl7.eu/fhir/laboratory/StructureDefinition/Observation-resultslab-eu-lab"
          ]
        },
        "performer": [
          {
            "display": "The Central European Lab"
          }
        ],
        "category": [
          {
            "coding": [
              {
                "system": "http://terminology.hl7.org/CodeSystem/observation-category",
                "code": "laboratory"
              }
            ]
          }
        ],
        "code": {
          "coding": [
            {
              "code": "2951-2",
              "system": "http://loinc.org",
              "display": "Sodium [Moles/volume] in Serum or Plasma"
            }
          ],
          "text": "Sodium [Moles/volume] in Serum or Plasma"
        },
        "valueQuantity": {
          "system": "http://unitsofmeasure.org",
          "value": 136.4,
          "unit": "mmol/L",
          "code": "mmol/L"
        },
        "referenceRange": [
          {
            "low": {
              "value": 135,
              "code": "mmol/L",
              "system": "http://unitsofmeasure.org"
            }
          },
          {
            "high": {
              "value": 145,
              "code": "mmol/L",
              "system": "http://unitsofmeasure.org"
            }
          }
        ],
        "text": {
          "status": "generated",
          "div": "<div xmlns=\"http://www.w3.org/1999/xhtml\"><table class=\"hl7__eu__lab__report\"><tr><th>Test</th><th>30-Jan-2019</th><th>Reference&#xA0;Range</th><th>Unit</th></tr><tr><td>Sodium [Moles/volume] in Serum or Plasma</td><td>136.4</td><td>135 - 145</td><td></td><td>mmol/L</td></tr></table></div>"
        },
        "status": "final",
        "subject": {
          "reference": "urn:uuid:617eb6c8-4f99-4f1e-8971-6ff10c0980d8",
          "display": "Θεμιστοκλής Λιναρδάκη"
        },
        "effectiveDateTime": "2019-01-30T06:16:00Z",
        "specimen": {
          "reference": "urn:uuid:655316b7-e192-4c7f-8ea6-fa928220f035"
        }
      }
    },
    {
      "fullUrl": "urn:uuid:2294374f-4558-4dce-93b1-75834ac2a237",
      "resource": {
        "resourceType": "Observation",
        "id": "2294374f-4558-4dce-93b1-75834ac2a237",
        "meta": {
          "profile": [
            "http://hl7.eu/fhir/laboratory/StructureDefinition/Observation-resultslab-eu-lab"
          ]
        },
        "performer": [
          {
            "display": "The Central European Lab"
          }
        ],
        "category": [
          {
            "coding": [
              {
                "system": "http://terminology.hl7.org/CodeSystem/observation-category",
                "code": "laboratory"
              }
            ]
          }
        ],
        "code": {
          "coding": [
            {
              "code": "2823-3",
              "system": "http://loinc.org",
              "display": "Potassium [Moles/volume] in Serum or Plasma"
            }
          ],
          "text": "Potassium [Moles/volume] in Serum or Plasma"
        },
        "valueQuantity": {
          "system": "http://unitsofmeasure.org",
          "value": 4,
          "unit": "mmol/L",
          "code": "mmol/L"
        },
        "referenceRange": [
          {
            "low": {
              "value": 3.5,
              "code": "mmol/L",
              "system": "http://unitsofmeasure.org"
            }
          },
          {
            "high": {
              "value": 5,
              "code": "mmol/L",
              "system": "http://unitsofmeasure.org"
            }
          }
        ],
        "text": {
          "status": "generated",
          "div": "<div xmlns=\"http://www.w3.org/1999/xhtml\"><table class=\"hl7__eu__lab__report\"><tr><th>Test</th><th>30-Jan-2019</th><th>Reference&#xA0;Range</th><th>Unit</th></tr><tr><td>Potassium [Moles/volume] in Serum or Plasma</td><td>4.0</td><td>3.5 - 5</td><td></td><td>mmol/L</td></tr></table></div>"
        },
        "status": "final",
        "subject": {
          "reference": "urn:uuid:617eb6c8-4f99-4f1e-8971-6ff10c0980d8",
          "display": "Θεμιστοκλής Λιναρδάκη"
        },
        "effectiveDateTime": "2019-01-30T06:16:00Z",
        "specimen": {
          "reference": "urn:uuid:655316b7-e192-4c7f-8ea6-fa928220f035"
        }
      }
    },
    {
      "fullUrl": "urn:uuid:5a403e8e-f0c8-4339-9c7e-13ec7f1beee4",
      "resource": {
        "resourceType": "Observation",
        "id": "5a403e8e-f0c8-4339-9c7e-13ec7f1beee4",
        "meta": {
          "profile": [
            "http://hl7.eu/fhir/laboratory/StructureDefinition/Observation-resultslab-eu-lab"
          ]
        },
        "performer": [
          {
            "display": "The Central European Lab"
          }
        ],
        "category": [
          {
            "coding": [
              {
                "system": "http://terminology.hl7.org/CodeSystem/observation-category",
                "code": "laboratory"
              }
            ]
          }
        ],
        "code": {
          "coding": [
            {
              "code": "2075-0",
              "system": "http://loinc.org",
              "display": "Chloride [Moles/volume] in Serum or Plasma"
            }
          ],
          "text": "Chloride [Moles/volume] in Serum or Plasma"
        },
        "valueQuantity": {
          "system": "http://unitsofmeasure.org",
          "value": 101.5,
          "unit": "mmol/L",
          "code": "mmol/L"
        },
        "referenceRange": [
          {
            "low": {
              "value": 98,
              "code": "mmol/L",
              "system": "http://unitsofmeasure.org"
            }
          },
          {
            "high": {
              "value": 108,
              "code": "mmol/L",
              "system": "http://unitsofmeasure.org"
            }
          }
        ],
        "text": {
          "status": "generated",
          "div": "<div xmlns=\"http://www.w3.org/1999/xhtml\"><table class=\"hl7__eu__lab__report\"><tr><th>Test</th><th>30-Jan-2019</th><th>Reference&#xA0;Range</th><th>Unit</th></tr><tr><td>Chloride [Moles/volume] in Serum or Plasma</td><td>101.5</td><td>98 - 108</td><td></td><td>mmol/L</td></tr></table></div>"
        },
        "status": "final",
        "subject": {
          "reference": "urn:uuid:617eb6c8-4f99-4f1e-8971-6ff10c0980d8",
          "display": "Θεμιστοκλής Λιναρδάκη"
        },
        "effectiveDateTime": "2019-01-30T06:16:00Z",
        "specimen": {
          "reference": "urn:uuid:655316b7-e192-4c7f-8ea6-fa928220f035"
        }
      }
    },
    {
      "fullUrl": "urn:uuid:ea2b2caf-b92f-4381-b0dc-c49594d10ec8",
      "resource": {
        "resourceType": "Observation",
        "id": "ea2b2caf-b92f-4381-b0dc-c49594d10ec8",
        "meta": {
          "profile": [
            "http://hl7.eu/fhir/laboratory/StructureDefinition/Observation-resultslab-eu-lab"
          ]
        },
        "performer": [
          {
            "display": "The Central European Lab"
          }
        ],
        "category": [
          {
            "coding": [
              {
                "system": "http://terminology.hl7.org/CodeSystem/observation-category",
                "code": "laboratory"
              }
            ]
          }
        ],
        "code": {
          "coding": [
            {
              "code": "2028-9",
              "system": "http://loinc.org",
              "display": "Carbon dioxide, total [Moles/volume] in Serum or Plasma"
            }
          ],
          "text": "Carbon dioxide, total [Moles/volume] in Serum or Plasma"
        },
        "valueQuantity": {
          "system": "http://unitsofmeasure.org",
          "value": 27.7,
          "unit": "mmol/L",
          "code": "mmol/L"
        },
        "referenceRange": [
          {
            "low": {
              "value": 22,
              "code": "mmol/L",
              "system": "http://unitsofmeasure.org"
            }
          },
          {
            "high": {
              "value": 29,
              "code": "mmol/L",
              "system": "http://unitsofmeasure.org"
            }
          }
        ],
        "text": {
          "status": "generated",
          "div": "<div xmlns=\"http://www.w3.org/1999/xhtml\"><table class=\"hl7__eu__lab__report\"><tr><th>Test</th><th>30-Jan-2019</th><th>Reference&#xA0;Range</th><th>Unit</th></tr><tr><td>Carbon dioxide, total [Moles/volume] in Serum or Plasma</td><td>27.7</td><td>22 - 29</td><td></td><td>mmol/L</td></tr></table></div>"
        },
        "status": "final",
        "subject": {
          "reference": "urn:uuid:617eb6c8-4f99-4f1e-8971-6ff10c0980d8",
          "display": "Θεμιστοκλής Λιναρδάκη"
        },
        "effectiveDateTime": "2019-01-30T06:16:00Z",
        "specimen": {
          "reference": "urn:uuid:655316b7-e192-4c7f-8ea6-fa928220f035"
        }
      }
    },
    {
      "fullUrl": "urn:uuid:d7161ec9-4ad9-45c2-9b79-9577b540229b",
      "resource": {
        "resourceType": "Observation",
        "id": "d7161ec9-4ad9-45c2-9b79-9577b540229b",
        "meta": {
          "profile": [
            "http://hl7.eu/fhir/laboratory/StructureDefinition/Observation-resultslab-eu-lab"
          ]
        },
        "performer": [
          {
            "display": "The Central European Lab"
          }
        ],
        "category": [
          {
            "coding": [
              {
                "system": "http://terminology.hl7.org/CodeSystem/observation-category",
                "code": "laboratory"
              }
            ]
          }
        ],
        "code": {
          "coding": [
            {
              "code": "5767-9",
              "system": "http://loinc.org",
              "display": "Appearance of Urine"
            }
          ],
          "text": "Appearance of Urine"
        },
        "text": {
          "status": "generated",
          "div": "<div xmlns=\"http://www.w3.org/1999/xhtml\"><table class=\"hl7__eu__lab__report\"><tr><th>Test</th><th>30-Jan-2019</th><th>Reference&#xA0;Range</th><th>Unit</th></tr><tr><td>Appearance of Urine</td></tr></table></div>"
        },
        "status": "final",
        "subject": {
          "reference": "urn:uuid:617eb6c8-4f99-4f1e-8971-6ff10c0980d8",
          "display": "Θεμιστοκλής Λιναρδάκη"
        },
        "effectiveDateTime": "2019-01-30T06:16:00Z",
        "specimen": {
          "reference": "urn:uuid:aac584bb-48f1-4e63-a219-63c60f7efb48"
        }
      }
    },
    {
      "fullUrl": "urn:uuid:13df7598-aeda-4704-8b67-a067703b19ff",
      "resource": {
        "resourceType": "Observation",
        "id": "13df7598-aeda-4704-8b67-a067703b19ff",
        "meta": {
          "profile": [
            "http://hl7.eu/fhir/laboratory/StructureDefinition/Observation-resultslab-eu-lab"
          ]
        },
        "performer": [
          {
            "display": "The Central European Lab"
          }
        ],
        "category": [
          {
            "coding": [
              {
                "system": "http://terminology.hl7.org/CodeSystem/observation-category",
                "code": "laboratory"
              }
            ]
          }
        ],
        "code": {
          "coding": [
            {
              "code": "34533-0",
              "system": "http://loinc.org",
              "display": "Odor of Urine"
            }
          ],
          "text": "Odor of Urine"
        },
        "text": {
          "status": "generated",
          "div": "<div xmlns=\"http://www.w3.org/1999/xhtml\"><table class=\"hl7__eu__lab__report\"><tr><th>Test</th><th>30-Jan-2019</th><th>Reference&#xA0;Range</th><th>Unit</th></tr><tr><td>Odor of Urine</td></tr></table></div>"
        },
        "status": "final",
        "subject": {
          "reference": "urn:uuid:617eb6c8-4f99-4f1e-8971-6ff10c0980d8",
          "display": "Θεμιστοκλής Λιναρδάκη"
        },
        "effectiveDateTime": "2019-01-30T06:16:00Z",
        "specimen": {
          "reference": "urn:uuid:aac584bb-48f1-4e63-a219-63c60f7efb48"
        }
      }
    },
    {
      "fullUrl": "urn:uuid:377a5386-2dca-4412-9994-0e27ff43d797",
      "resource": {
        "resourceType": "Observation",
        "id": "377a5386-2dca-4412-9994-0e27ff43d797",
        "meta": {
          "profile": [
            "http://hl7.eu/fhir/laboratory/StructureDefinition/Observation-resultslab-eu-lab"
          ]
        },
        "performer": [
          {
            "display": "The Central European Lab"
          }
        ],
        "category": [
          {
            "coding": [
              {
                "system": "http://terminology.hl7.org/CodeSystem/observation-category",
                "code": "laboratory"
              }
            ]
          }
        ],
        "code": {
          "coding": [
            {
              "code": "32167-9",
              "system": "http://loinc.org",
              "display": "Clarity of Urine"
            }
          ],
          "text": "Clarity of Urine"
        },
        "text": {
          "status": "generated",
          "div": "<div xmlns=\"http://www.w3.org/1999/xhtml\"><table class=\"hl7__eu__lab__report\"><tr><th>Test</th><th>30-Jan-2019</th><th>Reference&#xA0;Range</th><th>Unit</th></tr><tr><td>Clarity of Urine</td></tr></table></div>"
        },
        "status": "final",
        "subject": {
          "reference": "urn:uuid:617eb6c8-4f99-4f1e-8971-6ff10c0980d8",
          "display": "Θεμιστοκλής Λιναρδάκη"
        },
        "effectiveDateTime": "2019-01-30T06:16:00Z",
        "specimen": {
          "reference": "urn:uuid:aac584bb-48f1-4e63-a219-63c60f7efb48"
        }
      }
    },
    {
      "fullUrl": "urn:uuid:52005d24-b714-411b-a3a0-23de1bccd82f",
      "resource": {
        "resourceType": "Observation",
        "id": "52005d24-b714-411b-a3a0-23de1bccd82f",
        "meta": {
          "profile": [
            "http://hl7.eu/fhir/laboratory/StructureDefinition/Observation-resultslab-eu-lab"
          ]
        },
        "performer": [
          {
            "display": "The Central European Lab"
          }
        ],
        "category": [
          {
            "coding": [
              {
                "system": "http://terminology.hl7.org/CodeSystem/observation-category",
                "code": "laboratory"
              }
            ]
          }
        ],
        "code": {
          "coding": [
            {
              "code": "5778-6",
              "system": "http://loinc.org",
              "display": "Color of Urine"
            }
          ],
          "text": "Color of Urine"
        },
        "text": {
          "status": "generated",
          "div": "<div xmlns=\"http://www.w3.org/1999/xhtml\"><table class=\"hl7__eu__lab__report\"><tr><th>Test</th><th>30-Jan-2019</th><th>Reference&#xA0;Range</th><th>Unit</th></tr><tr><td>Color of Urine</td></tr></table></div>"
        },
        "status": "final",
        "subject": {
          "reference": "urn:uuid:617eb6c8-4f99-4f1e-8971-6ff10c0980d8",
          "display": "Θεμιστοκλής Λιναρδάκη"
        },
        "effectiveDateTime": "2019-01-30T06:16:00Z",
        "specimen": {
          "reference": "urn:uuid:aac584bb-48f1-4e63-a219-63c60f7efb48"
        }
      }
    },
    {
      "fullUrl": "urn:uuid:a856d5c1-3c59-4468-8f3a-d7de8dc0d908",
      "resource": {
        "resourceType": "Observation",
        "id": "a856d5c1-3c59-4468-8f3a-d7de8dc0d908",
        "meta": {
          "profile": [
            "http://hl7.eu/fhir/laboratory/StructureDefinition/Observation-resultslab-eu-lab"
          ]
        },
        "performer": [
          {
            "display": "The Central European Lab"
          }
        ],
        "category": [
          {
            "coding": [
              {
                "system": "http://terminology.hl7.org/CodeSystem/observation-category",
                "code": "laboratory"
              }
            ]
          }
        ],
        "code": {
          "coding": [
            {
              "code": "5792-7",
              "system": "http://loinc.org",
              "display": "Glucose [Mass/volume] in Urine by Test strip"
            }
          ],
          "text": "Glucose [Mass/volume] in Urine by Test strip"
        },
        "valueQuantity": {
          "system": "http://unitsofmeasure.org",
          "value": 1.9,
          "unit": "mg/dL",
          "code": "mg/dL"
        },
        "referenceRange": [
          {
            "low": {
              "value": 0,
              "code": "mg/dL",
              "system": "http://unitsofmeasure.org"
            }
          },
          {
            "high": {
              "value": 0.8,
              "code": "mg/dL",
              "system": "http://unitsofmeasure.org"
            }
          }
        ],
        "interpretation": [
          {
            "coding": [
              {
                "code": "H",
                "system": "http://terminology.hl7.org/CodeSystem/v3-ObservationInterpretation",
                "display": "High"
              }
            ]
          }
        ],
        "text": {
          "status": "generated",
          "div": "<div xmlns=\"http://www.w3.org/1999/xhtml\"><table class=\"hl7__eu__lab__report\"><tr><th>Test</th><th>30-Jan-2019</th><th>Reference&#xA0;Range</th><th>Unit</th></tr><tr><td>Glucose [Mass/volume] in Urine by Test strip</td><td>1.9</td><td>0 - 0.8</td><td>H</td><td>mg/dL</td></tr></table></div>"
        },
        "status": "final",
        "subject": {
          "reference": "urn:uuid:617eb6c8-4f99-4f1e-8971-6ff10c0980d8",
          "display": "Θεμιστοκλής Λιναρδάκη"
        },
        "effectiveDateTime": "2019-01-30T06:16:00Z",
        "specimen": {
          "reference": "urn:uuid:aac584bb-48f1-4e63-a219-63c60f7efb48"
        }
      }
    },
    {
      "fullUrl": "urn:uuid:74cd847a-b1cd-4b88-8d55-4f226dc0c395",
      "resource": {
        "resourceType": "Observation",
        "id": "74cd847a-b1cd-4b88-8d55-4f226dc0c395",
        "meta": {
          "profile": [
            "http://hl7.eu/fhir/laboratory/StructureDefinition/Observation-resultslab-eu-lab"
          ]
        },
        "performer": [
          {
            "display": "The Central European Lab"
          }
        ],
        "category": [
          {
            "coding": [
              {
                "system": "http://terminology.hl7.org/CodeSystem/observation-category",
                "code": "laboratory"
              }
            ]
          }
        ],
        "code": {
          "coding": [
            {
              "code": "25428-4",
              "system": "http://loinc.org",
              "display": "Glucose [Presence] in Urine by Test strip"
            }
          ],
          "text": "Glucose [Presence] in Urine by Test strip"
        },
        "text": {
          "status": "generated",
          "div": "<div xmlns=\"http://www.w3.org/1999/xhtml\"><table class=\"hl7__eu__lab__report\"><tr><th>Test</th><th>30-Jan-2019</th><th>Reference&#xA0;Range</th><th>Unit</th></tr><tr><td>Glucose [Presence] in Urine by Test strip</td></tr></table></div>"
        },
        "status": "final",
        "subject": {
          "reference": "urn:uuid:617eb6c8-4f99-4f1e-8971-6ff10c0980d8",
          "display": "Θεμιστοκλής Λιναρδάκη"
        },
        "effectiveDateTime": "2019-01-30T06:16:00Z",
        "specimen": {
          "reference": "urn:uuid:aac584bb-48f1-4e63-a219-63c60f7efb48"
        }
      }
    },
    {
      "fullUrl": "urn:uuid:03d30138-3c59-4e1a-9cb2-417db1902721",
      "resource": {
        "resourceType": "Observation",
        "id": "03d30138-3c59-4e1a-9cb2-417db1902721",
        "meta": {
          "profile": [
            "http://hl7.eu/fhir/laboratory/StructureDefinition/Observation-resultslab-eu-lab"
          ]
        },
        "performer": [
          {
            "display": "The Central European Lab"
          }
        ],
        "category": [
          {
            "coding": [
              {
                "system": "http://terminology.hl7.org/CodeSystem/observation-category",
                "code": "laboratory"
              }
            ]
          }
        ],
        "code": {
          "coding": [
            {
              "code": "20505-4",
              "system": "http://loinc.org",
              "display": "Bilirubin.total [Mass/volume] in Urine by Test strip"
            }
          ],
          "text": "Bilirubin.total [Mass/volume] in Urine by Test strip"
        },
        "valueQuantity": {
          "system": "http://unitsofmeasure.org",
          "value": 0.8,
          "unit": "mg/dL",
          "code": "mg/dL"
        },
        "referenceRange": [
          {
            "low": {
              "value": 0.2,
              "code": "mg/dL",
              "system": "http://unitsofmeasure.org"
            }
          },
          {
            "high": {
              "value": 1,
              "code": "mg/dL",
              "system": "http://unitsofmeasure.org"
            }
          }
        ],
        "text": {
          "status": "generated",
          "div": "<div xmlns=\"http://www.w3.org/1999/xhtml\"><table class=\"hl7__eu__lab__report\"><tr><th>Test</th><th>30-Jan-2019</th><th>Reference&#xA0;Range</th><th>Unit</th></tr><tr><td>Bilirubin.total [Mass/volume] in Urine by Test strip</td><td>0.8</td><td>0.2 - 1</td><td></td><td>mg/dL</td></tr></table></div>"
        },
        "status": "final",
        "subject": {
          "reference": "urn:uuid:617eb6c8-4f99-4f1e-8971-6ff10c0980d8",
          "display": "Θεμιστοκλής Λιναρδάκη"
        },
        "effectiveDateTime": "2019-01-30T06:16:00Z",
        "specimen": {
          "reference": "urn:uuid:aac584bb-48f1-4e63-a219-63c60f7efb48"
        }
      }
    },
    {
      "fullUrl": "urn:uuid:64e80d43-84d7-4f18-86e6-6e8aa6d7b251",
      "resource": {
        "resourceType": "Observation",
        "id": "64e80d43-84d7-4f18-86e6-6e8aa6d7b251",
        "meta": {
          "profile": [
            "http://hl7.eu/fhir/laboratory/StructureDefinition/Observation-resultslab-eu-lab"
          ]
        },
        "performer": [
          {
            "display": "The Central European Lab"
          }
        ],
        "category": [
          {
            "coding": [
              {
                "system": "http://terminology.hl7.org/CodeSystem/observation-category",
                "code": "laboratory"
              }
            ]
          }
        ],
        "code": {
          "coding": [
            {
              "code": "5770-3",
              "system": "http://loinc.org",
              "display": "Bilirubin.total [Presence] in Urine by Test strip"
            }
          ],
          "text": "Bilirubin.total [Presence] in Urine by Test strip"
        },
        "text": {
          "status": "generated",
          "div": "<div xmlns=\"http://www.w3.org/1999/xhtml\"><table class=\"hl7__eu__lab__report\"><tr><th>Test</th><th>30-Jan-2019</th><th>Reference&#xA0;Range</th><th>Unit</th></tr><tr><td>Bilirubin.total [Presence] in Urine by Test strip</td></tr></table></div>"
        },
        "status": "final",
        "subject": {
          "reference": "urn:uuid:617eb6c8-4f99-4f1e-8971-6ff10c0980d8",
          "display": "Θεμιστοκλής Λιναρδάκη"
        },
        "effectiveDateTime": "2019-01-30T06:16:00Z",
        "specimen": {
          "reference": "urn:uuid:aac584bb-48f1-4e63-a219-63c60f7efb48"
        }
      }
    },
    {
      "fullUrl": "urn:uuid:ae32b766-4952-4d98-bdcb-efbd6aad3ee8",
      "resource": {
        "resourceType": "Observation",
        "id": "ae32b766-4952-4d98-bdcb-efbd6aad3ee8",
        "meta": {
          "profile": [
            "http://hl7.eu/fhir/laboratory/StructureDefinition/Observation-resultslab-eu-lab"
          ]
        },
        "performer": [
          {
            "display": "The Central European Lab"
          }
        ],
        "category": [
          {
            "coding": [
              {
                "system": "http://terminology.hl7.org/CodeSystem/observation-category",
                "code": "laboratory"
              }
            ]
          }
        ],
        "code": {
          "coding": [
            {
              "code": "5797-6",
              "system": "http://loinc.org",
              "display": "Ketones [Mass/volume] in Urine by Test strip"
            }
          ],
          "text": "Ketones [Mass/volume] in Urine by Test strip"
        },
        "valueQuantity": {
          "system": "http://unitsofmeasure.org",
          "value": 8.2,
          "unit": "mg/dL",
          "code": "mg/dL"
        },
        "referenceRange": [
          {
            "low": {
              "value": 0,
              "code": "mg/dL",
              "system": "http://unitsofmeasure.org"
            }
          },
          {
            "high": {
              "value": 5,
              "code": "mg/dL",
              "system": "http://unitsofmeasure.org"
            }
          }
        ],
        "interpretation": [
          {
            "coding": [
              {
                "code": "H",
                "system": "http://terminology.hl7.org/CodeSystem/v3-ObservationInterpretation",
                "display": "High"
              }
            ]
          }
        ],
        "text": {
          "status": "generated",
          "div": "<div xmlns=\"http://www.w3.org/1999/xhtml\"><table class=\"hl7__eu__lab__report\"><tr><th>Test</th><th>30-Jan-2019</th><th>Reference&#xA0;Range</th><th>Unit</th></tr><tr><td>Ketones [Mass/volume] in Urine by Test strip</td><td>8.2</td><td>0 - 5</td><td>H</td><td>mg/dL</td></tr></table></div>"
        },
        "status": "final",
        "subject": {
          "reference": "urn:uuid:617eb6c8-4f99-4f1e-8971-6ff10c0980d8",
          "display": "Θεμιστοκλής Λιναρδάκη"
        },
        "effectiveDateTime": "2019-01-30T06:16:00Z",
        "specimen": {
          "reference": "urn:uuid:aac584bb-48f1-4e63-a219-63c60f7efb48"
        }
      }
    },
    {
      "fullUrl": "urn:uuid:d95dffa7-0f71-46e0-b6bd-f0552abb0d39",
      "resource": {
        "resourceType": "Observation",
        "id": "d95dffa7-0f71-46e0-b6bd-f0552abb0d39",
        "meta": {
          "profile": [
            "http://hl7.eu/fhir/laboratory/StructureDefinition/Observation-resultslab-eu-lab"
          ]
        },
        "performer": [
          {
            "display": "The Central European Lab"
          }
        ],
        "category": [
          {
            "coding": [
              {
                "system": "http://terminology.hl7.org/CodeSystem/observation-category",
                "code": "laboratory"
              }
            ]
          }
        ],
        "code": {
          "coding": [
            {
              "code": "2514-8",
              "system": "http://loinc.org",
              "display": "Ketones [Presence] in Urine by Test strip"
            }
          ],
          "text": "Ketones [Presence] in Urine by Test strip"
        },
        "text": {
          "status": "generated",
          "div": "<div xmlns=\"http://www.w3.org/1999/xhtml\"><table class=\"hl7__eu__lab__report\"><tr><th>Test</th><th>30-Jan-2019</th><th>Reference&#xA0;Range</th><th>Unit</th></tr><tr><td>Ketones [Presence] in Urine by Test strip</td></tr></table></div>"
        },
        "status": "final",
        "subject": {
          "reference": "urn:uuid:617eb6c8-4f99-4f1e-8971-6ff10c0980d8",
          "display": "Θεμιστοκλής Λιναρδάκη"
        },
        "effectiveDateTime": "2019-01-30T06:16:00Z",
        "specimen": {
          "reference": "urn:uuid:aac584bb-48f1-4e63-a219-63c60f7efb48"
        }
      }
    },
    {
      "fullUrl": "urn:uuid:d8b100c6-3e81-4146-b042-b89b8e8029ef",
      "resource": {
        "resourceType": "Observation",
        "id": "d8b100c6-3e81-4146-b042-b89b8e8029ef",
        "meta": {
          "profile": [
            "http://hl7.eu/fhir/laboratory/StructureDefinition/Observation-resultslab-eu-lab"
          ]
        },
        "performer": [
          {
            "display": "The Central European Lab"
          }
        ],
        "category": [
          {
            "coding": [
              {
                "system": "http://terminology.hl7.org/CodeSystem/observation-category",
                "code": "laboratory"
              }
            ]
          }
        ],
        "code": {
          "coding": [
            {
              "code": "5811-5",
              "system": "http://loinc.org",
              "display": "Specific gravity of Urine by Test strip"
            }
          ],
          "text": "Specific gravity of Urine by Test strip"
        },
        "valueQuantity": {
          "system": "http://unitsofmeasure.org",
          "value": 1,
          "unit": "{nominal}",
          "code": "{nominal}"
        },
        "referenceRange": [
          {
            "low": {
              "value": 1.005,
              "code": "g/mL",
              "system": "http://unitsofmeasure.org"
            }
          },
          {
            "high": {
              "value": 1.03,
              "code": "g/mL",
              "system": "http://unitsofmeasure.org"
            }
          }
        ],
        "interpretation": [
          {
            "coding": [
              {
                "code": "L",
                "system": "http://terminology.hl7.org/CodeSystem/v3-ObservationInterpretation",
                "display": "Low"
              }
            ]
          }
        ],
        "text": {
          "status": "generated",
          "div": "<div xmlns=\"http://www.w3.org/1999/xhtml\"><table class=\"hl7__eu__lab__report\"><tr><th>Test</th><th>30-Jan-2019</th><th>Reference&#xA0;Range</th><th>Unit</th></tr><tr><td>Specific gravity of Urine by Test strip</td><td>1.0</td><td>1.005 - 1.03</td><td>L</td><td>{nominal}</td></tr></table></div>"
        },
        "status": "final",
        "subject": {
          "reference": "urn:uuid:617eb6c8-4f99-4f1e-8971-6ff10c0980d8",
          "display": "Θεμιστοκλής Λιναρδάκη"
        },
        "effectiveDateTime": "2019-01-30T06:16:00Z",
        "specimen": {
          "reference": "urn:uuid:aac584bb-48f1-4e63-a219-63c60f7efb48"
        }
      }
    },
    {
      "fullUrl": "urn:uuid:31e655a6-30db-4eba-bd1e-1d724279bd01",
      "resource": {
        "resourceType": "Observation",
        "id": "31e655a6-30db-4eba-bd1e-1d724279bd01",
        "meta": {
          "profile": [
            "http://hl7.eu/fhir/laboratory/StructureDefinition/Observation-resultslab-eu-lab"
          ]
        },
        "performer": [
          {
            "display": "The Central European Lab"
          }
        ],
        "category": [
          {
            "coding": [
              {
                "system": "http://terminology.hl7.org/CodeSystem/observation-category",
                "code": "laboratory"
              }
            ]
          }
        ],
        "code": {
          "coding": [
            {
              "code": "5803-2",
              "system": "http://loinc.org",
              "display": "pH of Urine by Test strip"
            }
          ],
          "text": "pH of Urine by Test strip"
        },
        "valueQuantity": {
          "system": "http://unitsofmeasure.org",
          "value": 6.1,
          "unit": "pH",
          "code": "pH"
        },
        "referenceRange": [
          {
            "low": {
              "value": 4.6,
              "code": "pH",
              "system": "http://unitsofmeasure.org"
            }
          },
          {
            "high": {
              "value": 7,
              "code": "pH",
              "system": "http://unitsofmeasure.org"
            }
          }
        ],
        "text": {
          "status": "generated",
          "div": "<div xmlns=\"http://www.w3.org/1999/xhtml\"><table class=\"hl7__eu__lab__report\"><tr><th>Test</th><th>30-Jan-2019</th><th>Reference&#xA0;Range</th><th>Unit</th></tr><tr><td>pH of Urine by Test strip</td><td>6.1</td><td>4.6 - 7</td><td></td><td>pH</td></tr></table></div>"
        },
        "status": "final",
        "subject": {
          "reference": "urn:uuid:617eb6c8-4f99-4f1e-8971-6ff10c0980d8",
          "display": "Θεμιστοκλής Λιναρδάκη"
        },
        "effectiveDateTime": "2019-01-30T06:16:00Z",
        "specimen": {
          "reference": "urn:uuid:aac584bb-48f1-4e63-a219-63c60f7efb48"
        }
      }
    },
    {
      "fullUrl": "urn:uuid:4aa19546-b167-4a55-897a-ac6c77cec543",
      "resource": {
        "resourceType": "Observation",
        "id": "4aa19546-b167-4a55-897a-ac6c77cec543",
        "meta": {
          "profile": [
            "http://hl7.eu/fhir/laboratory/StructureDefinition/Observation-resultslab-eu-lab"
          ]
        },
        "performer": [
          {
            "display": "The Central European Lab"
          }
        ],
        "category": [
          {
            "coding": [
              {
                "system": "http://terminology.hl7.org/CodeSystem/observation-category",
                "code": "laboratory"
              }
            ]
          }
        ],
        "code": {
          "coding": [
            {
              "code": "5804-0",
              "system": "http://loinc.org",
              "display": "Protein [Mass/volume] in Urine by Test strip"
            }
          ],
          "text": "Protein [Mass/volume] in Urine by Test strip"
        },
        "valueQuantity": {
          "system": "http://unitsofmeasure.org",
          "value": 272.8,
          "unit": "mg/dL",
          "code": "mg/dL"
        },
        "referenceRange": [
          {
            "low": {
              "value": 0,
              "code": "mg/dL",
              "system": "http://unitsofmeasure.org"
            }
          },
          {
            "high": {
              "value": 150,
              "code": "mg/dL",
              "system": "http://unitsofmeasure.org"
            }
          }
        ],
        "interpretation": [
          {
            "coding": [
              {
                "code": "H",
                "system": "http://terminology.hl7.org/CodeSystem/v3-ObservationInterpretation",
                "display": "High"
              }
            ]
          }
        ],
        "text": {
          "status": "generated",
          "div": "<div xmlns=\"http://www.w3.org/1999/xhtml\"><table class=\"hl7__eu__lab__report\"><tr><th>Test</th><th>30-Jan-2019</th><th>Reference&#xA0;Range</th><th>Unit</th></tr><tr><td>Protein [Mass/volume] in Urine by Test strip</td><td>272.8</td><td>0 - 150</td><td>H</td><td>mg/dL</td></tr></table></div>"
        },
        "status": "final",
        "subject": {
          "reference": "urn:uuid:617eb6c8-4f99-4f1e-8971-6ff10c0980d8",
          "display": "Θεμιστοκλής Λιναρδάκη"
        },
        "effectiveDateTime": "2019-01-30T06:16:00Z",
        "specimen": {
          "reference": "urn:uuid:aac584bb-48f1-4e63-a219-63c60f7efb48"
        }
      }
    },
    {
      "fullUrl": "urn:uuid:b0f561d5-c00c-4675-9ee2-f5365174758c",
      "resource": {
        "resourceType": "Observation",
        "id": "b0f561d5-c00c-4675-9ee2-f5365174758c",
        "meta": {
          "profile": [
            "http://hl7.eu/fhir/laboratory/StructureDefinition/Observation-resultslab-eu-lab"
          ]
        },
        "performer": [
          {
            "display": "The Central European Lab"
          }
        ],
        "category": [
          {
            "coding": [
              {
                "system": "http://terminology.hl7.org/CodeSystem/observation-category",
                "code": "laboratory"
              }
            ]
          }
        ],
        "code": {
          "coding": [
            {
              "code": "20454-5",
              "system": "http://loinc.org",
              "display": "Protein [Presence] in Urine by Test strip"
            }
          ],
          "text": "Protein [Presence] in Urine by Test strip"
        },
        "text": {
          "status": "generated",
          "div": "<div xmlns=\"http://www.w3.org/1999/xhtml\"><table class=\"hl7__eu__lab__report\"><tr><th>Test</th><th>30-Jan-2019</th><th>Reference&#xA0;Range</th><th>Unit</th></tr><tr><td>Protein [Presence] in Urine by Test strip</td></tr></table></div>"
        },
        "status": "final",
        "subject": {
          "reference": "urn:uuid:617eb6c8-4f99-4f1e-8971-6ff10c0980d8",
          "display": "Θεμιστοκλής Λιναρδάκη"
        },
        "effectiveDateTime": "2019-01-30T06:16:00Z",
        "specimen": {
          "reference": "urn:uuid:aac584bb-48f1-4e63-a219-63c60f7efb48"
        }
      }
    },
    {
      "fullUrl": "urn:uuid:4d14c052-c617-4564-9afd-2db3523a16d7",
      "resource": {
        "resourceType": "Observation",
        "id": "4d14c052-c617-4564-9afd-2db3523a16d7",
        "meta": {
          "profile": [
            "http://hl7.eu/fhir/laboratory/StructureDefinition/Observation-resultslab-eu-lab"
          ]
        },
        "performer": [
          {
            "display": "The Central European Lab"
          }
        ],
        "category": [
          {
            "coding": [
              {
                "system": "http://terminology.hl7.org/CodeSystem/observation-category",
                "code": "laboratory"
              }
            ]
          }
        ],
        "code": {
          "coding": [
            {
              "code": "5802-4",
              "system": "http://loinc.org",
              "display": "Nitrite [Presence] in Urine by Test strip"
            }
          ],
          "text": "Nitrite [Presence] in Urine by Test strip"
        },
        "text": {
          "status": "generated",
          "div": "<div xmlns=\"http://www.w3.org/1999/xhtml\"><table class=\"hl7__eu__lab__report\"><tr><th>Test</th><th>30-Jan-2019</th><th>Reference&#xA0;Range</th><th>Unit</th></tr><tr><td>Nitrite [Presence] in Urine by Test strip</td></tr></table></div>"
        },
        "status": "final",
        "subject": {
          "reference": "urn:uuid:617eb6c8-4f99-4f1e-8971-6ff10c0980d8",
          "display": "Θεμιστοκλής Λιναρδάκη"
        },
        "effectiveDateTime": "2019-01-30T06:16:00Z",
        "specimen": {
          "reference": "urn:uuid:aac584bb-48f1-4e63-a219-63c60f7efb48"
        }
      }
    },
    {
      "fullUrl": "urn:uuid:aa6ac863-1764-4cd9-8db0-90b199821f4a",
      "resource": {
        "resourceType": "Observation",
        "id": "aa6ac863-1764-4cd9-8db0-90b199821f4a",
        "meta": {
          "profile": [
            "http://hl7.eu/fhir/laboratory/StructureDefinition/Observation-resultslab-eu-lab"
          ]
        },
        "performer": [
          {
            "display": "The Central European Lab"
          }
        ],
        "category": [
          {
            "coding": [
              {
                "system": "http://terminology.hl7.org/CodeSystem/observation-category",
                "code": "laboratory"
              }
            ]
          }
        ],
        "code": {
          "coding": [
            {
              "code": "5794-3",
              "system": "http://loinc.org",
              "display": "Hemoglobin [Presence] in Urine by Test strip"
            }
          ],
          "text": "Hemoglobin [Presence] in Urine by Test strip"
        },
        "text": {
          "status": "generated",
          "div": "<div xmlns=\"http://www.w3.org/1999/xhtml\"><table class=\"hl7__eu__lab__report\"><tr><th>Test</th><th>30-Jan-2019</th><th>Reference&#xA0;Range</th><th>Unit</th></tr><tr><td>Hemoglobin [Presence] in Urine by Test strip</td></tr></table></div>"
        },
        "status": "final",
        "subject": {
          "reference": "urn:uuid:617eb6c8-4f99-4f1e-8971-6ff10c0980d8",
          "display": "Θεμιστοκλής Λιναρδάκη"
        },
        "effectiveDateTime": "2019-01-30T06:16:00Z",
        "specimen": {
          "reference": "urn:uuid:aac584bb-48f1-4e63-a219-63c60f7efb48"
        }
      }
    },
    {
      "fullUrl": "urn:uuid:278943d3-2240-4842-beec-f9629fdacc8a",
      "resource": {
        "resourceType": "Observation",
        "id": "278943d3-2240-4842-beec-f9629fdacc8a",
        "meta": {
          "profile": [
            "http://hl7.eu/fhir/laboratory/StructureDefinition/Observation-resultslab-eu-lab"
          ]
        },
        "performer": [
          {
            "display": "The Central European Lab"
          }
        ],
        "category": [
          {
            "coding": [
              {
                "system": "http://terminology.hl7.org/CodeSystem/observation-category",
                "code": "laboratory"
              }
            ]
          }
        ],
        "code": {
          "coding": [
            {
              "code": "5799-2",
              "system": "http://loinc.org",
              "display": "Leukocyte esterase [Presence] in Urine by Test strip"
            }
          ],
          "text": "Leukocyte esterase [Presence] in Urine by Test strip"
        },
        "text": {
          "status": "generated",
          "div": "<div xmlns=\"http://www.w3.org/1999/xhtml\"><table class=\"hl7__eu__lab__report\"><tr><th>Test</th><th>30-Jan-2019</th><th>Reference&#xA0;Range</th><th>Unit</th></tr><tr><td>Leukocyte esterase [Presence] in Urine by Test strip</td></tr></table></div>"
        },
        "status": "final",
        "subject": {
          "reference": "urn:uuid:617eb6c8-4f99-4f1e-8971-6ff10c0980d8",
          "display": "Θεμιστοκλής Λιναρδάκη"
        },
        "effectiveDateTime": "2019-01-30T06:16:00Z",
        "specimen": {
          "reference": "urn:uuid:aac584bb-48f1-4e63-a219-63c60f7efb48"
        }
      }
    },
    {
      "fullUrl": "urn:uuid:939144f3-bab6-46f0-8750-0d07e915c4e8",
      "resource": {
        "resourceType": "Observation",
        "id": "939144f3-bab6-46f0-8750-0d07e915c4e8",
        "meta": {
          "profile": [
            "http://hl7.eu/fhir/laboratory/StructureDefinition/Observation-resultslab-eu-lab"
          ]
        },
        "performer": [
          {
            "display": "The Central European Lab"
          }
        ],
        "category": [
          {
            "coding": [
              {
                "system": "http://terminology.hl7.org/CodeSystem/observation-category",
                "code": "laboratory"
              }
            ]
          }
        ],
        "code": {
          "coding": [
            {
              "code": "4548-4",
              "system": "http://loinc.org",
              "display": "Hemoglobin A1c/Hemoglobin.total in Blood"
            }
          ],
          "text": "Hemoglobin A1c/Hemoglobin.total in Blood"
        },
        "valueQuantity": {
          "system": "http://unitsofmeasure.org",
          "value": 3.2,
          "unit": "%",
          "code": "%"
        },
        "referenceRange": [
          {
            "low": {
              "value": 4.3,
              "code": "%",
              "system": "http://unitsofmeasure.org"
            }
          },
          {
            "high": {
              "value": 6.4,
              "code": "%",
              "system": "http://unitsofmeasure.org"
            }
          }
        ],
        "interpretation": [
          {
            "coding": [
              {
                "code": "L",
                "system": "http://terminology.hl7.org/CodeSystem/v3-ObservationInterpretation",
                "display": "Low"
              }
            ]
          }
        ],
        "text": {
          "status": "generated",
          "div": "<div xmlns=\"http://www.w3.org/1999/xhtml\"><table class=\"hl7__eu__lab__report\"><tr><th>Test</th><th>30-Jan-2019</th><th>Reference&#xA0;Range</th><th>Unit</th></tr><tr><td>Hemoglobin A1c/Hemoglobin.total in Blood</td><td>3.2</td><td>4.3 - 6.4</td><td>L</td><td>%</td></tr></table></div>"
        },
        "status": "final",
        "subject": {
          "reference": "urn:uuid:617eb6c8-4f99-4f1e-8971-6ff10c0980d8",
          "display": "Θεμιστοκλής Λιναρδάκη"
        },
        "effectiveDateTime": "2019-01-30T06:16:00Z",
        "specimen": {
          "reference": "urn:uuid:28e32133-a2a3-40ce-8149-422e78404edc"
        }
      }
    },
    {
      "fullUrl": "urn:uuid:d47db7dc-884c-4195-ab0f-918043f64327",
      "resource": {
        "resourceType": "Observation",
        "id": "d47db7dc-884c-4195-ab0f-918043f64327",
        "meta": {
          "profile": [
            "http://hl7.eu/fhir/laboratory/StructureDefinition/Observation-resultslab-eu-lab"
          ]
        },
        "performer": [
          {
            "display": "The Central European Lab"
          }
        ],
        "category": [
          {
            "coding": [
              {
                "system": "http://terminology.hl7.org/CodeSystem/observation-category",
                "code": "laboratory"
              }
            ]
          }
        ],
        "code": {
          "coding": [
            {
              "code": "2339-0",
              "system": "http://loinc.org",
              "display": "Glucose [Mass/volume] in Blood"
            }
          ],
          "text": "Glucose [Mass/volume] in Blood"
        },
        "valueQuantity": {
          "system": "http://unitsofmeasure.org",
          "value": 90.7,
          "unit": "mg/dL",
          "code": "mg/dL"
        },
        "referenceRange": [
          {
            "low": {
              "value": 70,
              "code": "mg/dL",
              "system": "http://unitsofmeasure.org"
            }
          },
          {
            "high": {
              "value": 140,
              "code": "mg/dL",
              "system": "http://unitsofmeasure.org"
            }
          }
        ],
        "text": {
          "status": "generated",
          "div": "<div xmlns=\"http://www.w3.org/1999/xhtml\"><table class=\"hl7__eu__lab__report\"><tr><th>Test</th><th>30-Jan-2019</th><th>Reference&#xA0;Range</th><th>Unit</th></tr><tr><td>Glucose [Mass/volume] in Blood</td><td>90.7</td><td>70 - 140</td><td></td><td>mg/dL</td></tr></table></div>"
        },
        "status": "final",
        "subject": {
          "reference": "urn:uuid:617eb6c8-4f99-4f1e-8971-6ff10c0980d8",
          "display": "Θεμιστοκλής Λιναρδάκη"
        },
        "effectiveDateTime": "2019-01-30T06:16:00Z",
        "specimen": {
          "reference": "urn:uuid:28e32133-a2a3-40ce-8149-422e78404edc"
        }
      }
    },
    {
      "fullUrl": "urn:uuid:08304d01-7fc1-4b52-aa4c-8f1b897f254b",
      "resource": {
        "resourceType": "Observation",
        "id": "08304d01-7fc1-4b52-aa4c-8f1b897f254b",
        "meta": {
          "profile": [
            "http://hl7.eu/fhir/laboratory/StructureDefinition/Observation-resultslab-eu-lab"
          ]
        },
        "performer": [
          {
            "display": "The Central European Lab"
          }
        ],
        "category": [
          {
            "coding": [
              {
                "system": "http://terminology.hl7.org/CodeSystem/observation-category",
                "code": "laboratory"
              }
            ]
          }
        ],
        "code": {
          "coding": [
            {
              "code": "6299-2",
              "system": "http://loinc.org",
              "display": "Urea nitrogen [Mass/volume] in Blood"
            }
          ],
          "text": "Urea nitrogen [Mass/volume] in Blood"
        },
        "valueQuantity": {
          "system": "http://unitsofmeasure.org",
          "value": 7.8,
          "unit": "mg/dL",
          "code": "mg/dL"
        },
        "referenceRange": [
          {
            "low": {
              "value": 7,
              "code": "mg/dL",
              "system": "http://unitsofmeasure.org"
            }
          },
          {
            "high": {
              "value": 20,
              "code": "mg/dL",
              "system": "http://unitsofmeasure.org"
            }
          }
        ],
        "text": {
          "status": "generated",
          "div": "<div xmlns=\"http://www.w3.org/1999/xhtml\"><table class=\"hl7__eu__lab__report\"><tr><th>Test</th><th>30-Jan-2019</th><th>Reference&#xA0;Range</th><th>Unit</th></tr><tr><td>Urea nitrogen [Mass/volume] in Blood</td><td>7.8</td><td>7 - 20</td><td></td><td>mg/dL</td></tr></table></div>"
        },
        "status": "final",
        "subject": {
          "reference": "urn:uuid:617eb6c8-4f99-4f1e-8971-6ff10c0980d8",
          "display": "Θεμιστοκλής Λιναρδάκη"
        },
        "effectiveDateTime": "2019-01-30T06:16:00Z",
        "specimen": {
          "reference": "urn:uuid:28e32133-a2a3-40ce-8149-422e78404edc"
        }
      }
    },
    {
      "fullUrl": "urn:uuid:0504b1c2-13a4-4d59-b209-9224bf80274b",
      "resource": {
        "resourceType": "Observation",
        "id": "0504b1c2-13a4-4d59-b209-9224bf80274b",
        "meta": {
          "profile": [
            "http://hl7.eu/fhir/laboratory/StructureDefinition/Observation-resultslab-eu-lab"
          ]
        },
        "performer": [
          {
            "display": "The Central European Lab"
          }
        ],
        "category": [
          {
            "coding": [
              {
                "system": "http://terminology.hl7.org/CodeSystem/observation-category",
                "code": "laboratory"
              }
            ]
          }
        ],
        "code": {
          "coding": [
            {
              "code": "38483-4",
              "system": "http://loinc.org",
              "display": "Creatinine [Mass/volume] in Blood"
            }
          ],
          "text": "Creatinine [Mass/volume] in Blood"
        },
        "valueQuantity": {
          "system": "http://unitsofmeasure.org",
          "value": 6.7,
          "unit": "mg/dL",
          "code": "mg/dL"
        },
        "referenceRange": [
          {
            "low": {
              "value": 0.6,
              "code": "mg/dL",
              "system": "http://unitsofmeasure.org"
            }
          },
          {
            "high": {
              "value": 1.3,
              "code": "mg/dL",
              "system": "http://unitsofmeasure.org"
            }
          }
        ],
        "interpretation": [
          {
            "coding": [
              {
                "code": "H",
                "system": "http://terminology.hl7.org/CodeSystem/v3-ObservationInterpretation",
                "display": "High"
              }
            ]
          }
        ],
        "text": {
          "status": "generated",
          "div": "<div xmlns=\"http://www.w3.org/1999/xhtml\"><table class=\"hl7__eu__lab__report\"><tr><th>Test</th><th>30-Jan-2019</th><th>Reference&#xA0;Range</th><th>Unit</th></tr><tr><td>Creatinine [Mass/volume] in Blood</td><td>6.7</td><td>0.6 - 1.3</td><td>H</td><td>mg/dL</td></tr></table></div>"
        },
        "status": "final",
        "subject": {
          "reference": "urn:uuid:617eb6c8-4f99-4f1e-8971-6ff10c0980d8",
          "display": "Θεμιστοκλής Λιναρδάκη"
        },
        "effectiveDateTime": "2019-01-30T06:16:00Z",
        "specimen": {
          "reference": "urn:uuid:28e32133-a2a3-40ce-8149-422e78404edc"
        }
      }
    },
    {
      "fullUrl": "urn:uuid:a1cfc861-9a53-41f6-a3c0-8df8dc51fd5f",
      "resource": {
        "resourceType": "Observation",
        "id": "a1cfc861-9a53-41f6-a3c0-8df8dc51fd5f",
        "meta": {
          "profile": [
            "http://hl7.eu/fhir/laboratory/StructureDefinition/Observation-resultslab-eu-lab"
          ]
        },
        "performer": [
          {
            "display": "The Central European Lab"
          }
        ],
        "category": [
          {
            "coding": [
              {
                "system": "http://terminology.hl7.org/CodeSystem/observation-category",
                "code": "laboratory"
              }
            ]
          }
        ],
        "code": {
          "coding": [
            {
              "code": "49765-1",
              "system": "http://loinc.org",
              "display": "Calcium [Mass/volume] in Blood"
            }
          ],
          "text": "Calcium [Mass/volume] in Blood"
        },
        "valueQuantity": {
          "system": "http://unitsofmeasure.org",
          "value": 8.7,
          "unit": "mg/dL",
          "code": "mg/dL"
        },
        "referenceRange": [
          {
            "low": {
              "value": 8.5,
              "code": "mg/dL",
              "system": "http://unitsofmeasure.org"
            }
          },
          {
            "high": {
              "value": 10.5,
              "code": "mg/dL",
              "system": "http://unitsofmeasure.org"
            }
          }
        ],
        "text": {
          "status": "generated",
          "div": "<div xmlns=\"http://www.w3.org/1999/xhtml\"><table class=\"hl7__eu__lab__report\"><tr><th>Test</th><th>30-Jan-2019</th><th>Reference&#xA0;Range</th><th>Unit</th></tr><tr><td>Calcium [Mass/volume] in Blood</td><td>8.7</td><td>8.5 - 10.5</td><td></td><td>mg/dL</td></tr></table></div>"
        },
        "status": "final",
        "subject": {
          "reference": "urn:uuid:617eb6c8-4f99-4f1e-8971-6ff10c0980d8",
          "display": "Θεμιστοκλής Λιναρδάκη"
        },
        "effectiveDateTime": "2019-01-30T06:16:00Z",
        "specimen": {
          "reference": "urn:uuid:28e32133-a2a3-40ce-8149-422e78404edc"
        }
      }
    },
    {
      "fullUrl": "urn:uuid:27e14766-6e79-49dd-8994-b4e93b3e7564",
      "resource": {
        "resourceType": "Observation",
        "id": "27e14766-6e79-49dd-8994-b4e93b3e7564",
        "meta": {
          "profile": [
            "http://hl7.eu/fhir/laboratory/StructureDefinition/Observation-resultslab-eu-lab"
          ]
        },
        "performer": [
          {
            "display": "The Central European Lab"
          }
        ],
        "category": [
          {
            "coding": [
              {
                "system": "http://terminology.hl7.org/CodeSystem/observation-category",
                "code": "laboratory"
              }
            ]
          }
        ],
        "code": {
          "coding": [
            {
              "code": "2947-0",
              "system": "http://loinc.org",
              "display": "Sodium [Moles/volume] in Blood"
            }
          ],
          "text": "Sodium [Moles/volume] in Blood"
        },
        "valueQuantity": {
          "system": "http://unitsofmeasure.org",
          "value": 136.4,
          "unit": "mmol/L",
          "code": "mmol/L"
        },
        "referenceRange": [
          {
            "low": {
              "value": 135,
              "code": "mmol/L",
              "system": "http://unitsofmeasure.org"
            }
          },
          {
            "high": {
              "value": 145,
              "code": "mmol/L",
              "system": "http://unitsofmeasure.org"
            }
          }
        ],
        "text": {
          "status": "generated",
          "div": "<div xmlns=\"http://www.w3.org/1999/xhtml\"><table class=\"hl7__eu__lab__report\"><tr><th>Test</th><th>30-Jan-2019</th><th>Reference&#xA0;Range</th><th>Unit</th></tr><tr><td>Sodium [Moles/volume] in Blood</td><td>136.4</td><td>135 - 145</td><td></td><td>mmol/L</td></tr></table></div>"
        },
        "status": "final",
        "subject": {
          "reference": "urn:uuid:617eb6c8-4f99-4f1e-8971-6ff10c0980d8",
          "display": "Θεμιστοκλής Λιναρδάκη"
        },
        "effectiveDateTime": "2019-01-30T06:16:00Z",
        "specimen": {
          "reference": "urn:uuid:28e32133-a2a3-40ce-8149-422e78404edc"
        }
      }
    },
    {
      "fullUrl": "urn:uuid:16798424-a046-4ec9-8d6e-b8e98ba4d50b",
      "resource": {
        "resourceType": "Observation",
        "id": "16798424-a046-4ec9-8d6e-b8e98ba4d50b",
        "meta": {
          "profile": [
            "http://hl7.eu/fhir/laboratory/StructureDefinition/Observation-resultslab-eu-lab"
          ]
        },
        "performer": [
          {
            "display": "The Central European Lab"
          }
        ],
        "category": [
          {
            "coding": [
              {
                "system": "http://terminology.hl7.org/CodeSystem/observation-category",
                "code": "laboratory"
              }
            ]
          }
        ],
        "code": {
          "coding": [
            {
              "code": "6298-4",
              "system": "http://loinc.org",
              "display": "Potassium [Moles/volume] in Blood"
            }
          ],
          "text": "Potassium [Moles/volume] in Blood"
        },
        "valueQuantity": {
          "system": "http://unitsofmeasure.org",
          "value": 4,
          "unit": "mmol/L",
          "code": "mmol/L"
        },
        "referenceRange": [
          {
            "low": {
              "value": 3.5,
              "code": "mmol/L",
              "system": "http://unitsofmeasure.org"
            }
          },
          {
            "high": {
              "value": 5.3,
              "code": "mmol/L",
              "system": "http://unitsofmeasure.org"
            }
          }
        ],
        "text": {
          "status": "generated",
          "div": "<div xmlns=\"http://www.w3.org/1999/xhtml\"><table class=\"hl7__eu__lab__report\"><tr><th>Test</th><th>30-Jan-2019</th><th>Reference&#xA0;Range</th><th>Unit</th></tr><tr><td>Potassium [Moles/volume] in Blood</td><td>4.0</td><td>3.5 - 5.3</td><td></td><td>mmol/L</td></tr></table></div>"
        },
        "status": "final",
        "subject": {
          "reference": "urn:uuid:617eb6c8-4f99-4f1e-8971-6ff10c0980d8",
          "display": "Θεμιστοκλής Λιναρδάκη"
        },
        "effectiveDateTime": "2019-01-30T06:16:00Z",
        "specimen": {
          "reference": "urn:uuid:28e32133-a2a3-40ce-8149-422e78404edc"
        }
      }
    },
    {
      "fullUrl": "urn:uuid:e4a07bb3-76cb-45c3-8110-d37ec16ae22f",
      "resource": {
        "resourceType": "Observation",
        "id": "e4a07bb3-76cb-45c3-8110-d37ec16ae22f",
        "meta": {
          "profile": [
            "http://hl7.eu/fhir/laboratory/StructureDefinition/Observation-resultslab-eu-lab"
          ]
        },
        "performer": [
          {
            "display": "The Central European Lab"
          }
        ],
        "category": [
          {
            "coding": [
              {
                "system": "http://terminology.hl7.org/CodeSystem/observation-category",
                "code": "laboratory"
              }
            ]
          }
        ],
        "code": {
          "coding": [
            {
              "code": "2069-3",
              "system": "http://loinc.org",
              "display": "Chloride [Moles/volume] in Blood"
            }
          ],
          "text": "Chloride [Moles/volume] in Blood"
        },
        "valueQuantity": {
          "system": "http://unitsofmeasure.org",
          "value": 101.5,
          "unit": "mmol/L",
          "code": "mmol/L"
        },
        "referenceRange": [
          {
            "low": {
              "value": 98,
              "code": "mmol/L",
              "system": "http://unitsofmeasure.org"
            }
          },
          {
            "high": {
              "value": 110,
              "code": "mmol/L",
              "system": "http://unitsofmeasure.org"
            }
          }
        ],
        "text": {
          "status": "generated",
          "div": "<div xmlns=\"http://www.w3.org/1999/xhtml\"><table class=\"hl7__eu__lab__report\"><tr><th>Test</th><th>30-Jan-2019</th><th>Reference&#xA0;Range</th><th>Unit</th></tr><tr><td>Chloride [Moles/volume] in Blood</td><td>101.5</td><td>98 - 110</td><td></td><td>mmol/L</td></tr></table></div>"
        },
        "status": "final",
        "subject": {
          "reference": "urn:uuid:617eb6c8-4f99-4f1e-8971-6ff10c0980d8",
          "display": "Θεμιστοκλής Λιναρδάκη"
        },
        "effectiveDateTime": "2019-01-30T06:16:00Z",
        "specimen": {
          "reference": "urn:uuid:28e32133-a2a3-40ce-8149-422e78404edc"
        }
      }
    },
    {
      "fullUrl": "urn:uuid:10518ee3-231e-47c1-9785-61ca2e456ebc",
      "resource": {
        "resourceType": "Observation",
        "id": "10518ee3-231e-47c1-9785-61ca2e456ebc",
        "meta": {
          "profile": [
            "http://hl7.eu/fhir/laboratory/StructureDefinition/Observation-resultslab-eu-lab"
          ]
        },
        "performer": [
          {
            "display": "The Central European Lab"
          }
        ],
        "category": [
          {
            "coding": [
              {
                "system": "http://terminology.hl7.org/CodeSystem/observation-category",
                "code": "laboratory"
              }
            ]
          }
        ],
        "code": {
          "coding": [
            {
              "code": "20565-8",
              "system": "http://loinc.org",
              "display": "Carbon dioxide, total [Moles/volume] in Blood"
            }
          ],
          "text": "Carbon dioxide, total [Moles/volume] in Blood"
        },
        "valueQuantity": {
          "system": "http://unitsofmeasure.org",
          "value": 27.7,
          "unit": "mmol/L",
          "code": "mmol/L"
        },
        "referenceRange": [
          {
            "low": {
              "value": 22,
              "code": "mmol/L",
              "system": "http://unitsofmeasure.org"
            }
          },
          {
            "high": {
              "value": 29,
              "code": "mmol/L",
              "system": "http://unitsofmeasure.org"
            }
          }
        ],
        "text": {
          "status": "generated",
          "div": "<div xmlns=\"http://www.w3.org/1999/xhtml\"><table class=\"hl7__eu__lab__report\"><tr><th>Test</th><th>30-Jan-2019</th><th>Reference&#xA0;Range</th><th>Unit</th></tr><tr><td>Carbon dioxide, total [Moles/volume] in Blood</td><td>27.7</td><td>22 - 29</td><td></td><td>mmol/L</td></tr></table></div>"
        },
        "status": "final",
        "subject": {
          "reference": "urn:uuid:617eb6c8-4f99-4f1e-8971-6ff10c0980d8",
          "display": "Θεμιστοκλής Λιναρδάκη"
        },
        "effectiveDateTime": "2019-01-30T06:16:00Z",
        "specimen": {
          "reference": "urn:uuid:28e32133-a2a3-40ce-8149-422e78404edc"
        }
      }
    },
    {
      "fullUrl": "urn:uuid:67199a37-5397-499a-8bd4-29cd1f7e1f77",
      "resource": {
        "resourceType": "Device",
        "id": "67199a37-5397-499a-8bd4-29cd1f7e1f77",
        "deviceName": [
          {
            "name": "SYNDERAI Synthetic Generator",
            "type": "manufacturer-name"
          }
        ],
        "version": [
          {
            "value": "5.0"
          }
        ],
        "text": {
          "status": "generated",
          "div": "<div xmlns=\"http://www.w3.org/1999/xhtml\">SYNDERAI Synthetic Generator v5.0</div>"
        },
        "status": "active\"",
        "distinctIdentifier": "synderai-generator-50",
        "manufacturer": "SYNDERAI Project"
      }
    },
    {
      "fullUrl": "urn:uuid:01088e1e-435b-45fc-acec-160ccf885bb3",
      "resource": {
        "resourceType": "Provenance",
        "id": "01088e1e-435b-45fc-acec-160ccf885bb3",
        "target": [
          {
            "reference": "Patient/617eb6c8-4f99-4f1e-8971-6ff10c0980d8"
          },
          {
            "reference": "Bundle/38ac46c0-fdc3-4f45-b4e4-d2d99a3fe109"
          },
          {
            "reference": "Composition/978485fd-0398-4545-83e7-394a8637e603"
          },
          {
            "reference": "PractitionerRole/35b06b8a-2a4b-44ee-a802-1a075e33dfd8"
          },
          {
            "reference": "Practitioner/061f7851-d8a9-4eb2-8ec8-19716d5b3642"
          },
          {
            "reference": "PractitionerRole/7dcc2ce9-0126-40ed-99a7-3c1b638be5bc"
          },
          {
            "reference": "Organization/fccdea89-0e07-43fa-b3d1-a2d728c0dd27"
          }
        ],
        "activity": {
          "text": "Synthetic Example Data Generation"
        },
        "policy": [
          "https://synderai.net/synderai-synthetic-data-policy"
        ],
        "agent": [
          {
            "type": {
              "text": "author"
            },
            "who": {
              "reference": "Device/67199a37-5397-499a-8bd4-29cd1f7e1f77"
            }
          }
        ],
        "reason": [
          {
            "text": "Interoperability Testing and Training (non-clinical use)"
          }
        ],
        "text": {
          "status": "generated",
          "div": "<div xmlns=\"http://www.w3.org/1999/xhtml\">Provenance for SYNDERAI Synthetic Example Data Resource</div>"
        },
        "recorded": "2019-01-30T07:16:00Z"
      }
    },
    {
      "fullUrl": "urn:uuid:35b06b8a-2a4b-44ee-a802-1a075e33dfd8",
      "resource": {
        "resourceType": "PractitionerRole",
        "id": "35b06b8a-2a4b-44ee-a802-1a075e33dfd8",
        "meta": {
          "profile": [
            "http://hl7.eu/fhir/base/StructureDefinition/practitionerRole-eu"
          ]
        },
        "text": {
          "status": "generated",
          "div": "<div xmlns=\"http://www.w3.org/1999/xhtml\">Laboratory Role Id: 35b06b8a-2a4b-44ee-a802-1a075e33dfd8</div>"
        },
        "practitioner": {
          "reference": "urn:uuid:061f7851-d8a9-4eb2-8ec8-19716d5b3642"
        }
      }
    },
    {
      "fullUrl": "urn:uuid:061f7851-d8a9-4eb2-8ec8-19716d5b3642",
      "resource": {
        "resourceType": "Practitioner",
        "id": "061f7851-d8a9-4eb2-8ec8-19716d5b3642",
        "meta": {
          "profile": [
            "http://hl7.eu/fhir/base/StructureDefinition/practitioner-eu"
          ]
        },
        "identifier": [
          {
            "assigner": {
              "display": "HL7 Europe"
            },
            "system": "urn:oid:2.16.840.1.113883.2.51.999",
            "value": "7c66ab5f-de56-4f68-9b6c-357a6b51afa9"
          }
        ],
        "name": [
          {
            "prefix": [
              "dr"
            ],
            "given": [
              "Ex"
            ],
            "family": "Ample"
          }
        ],
        "address": [
          {
            "line": [
              "Laboratoire Central Européenne",
              "Boulevard du Jardin Botanique 32"
            ],
            "postalCode": "1000",
            "city": "Brussels",
            "country": "Belgium"
          }
        ],
        "text": {
          "status": "generated",
          "div": "<div xmlns=\"http://www.w3.org/1999/xhtml\">Laboratory: Laboratoire Central Européenne, 1000 Brussels, Belgium</div>"
        }
      }
    }
  ],
  "type": "document",
  "timestamp": "2019-01-30T07:16:00Z"
}
