{
  "resourceType": "Bundle",
  "id": "2d2eb598-472b-4a3c-89f4-3d6ccf7c9e52",
  "meta": {
    "profile": [
      "http://hl7.eu/fhir/laboratory/StructureDefinition/Bundle-eu-lab"
    ]
  },
  "identifier": {
    "assigner": {
      "display": "HL7 Europe"
    },
    "system": "urn:oid:2.16.840.1.113883.2.51.999",
    "value": "c757e8ab-a3e0-416b-a7ff-2fe190e486f6"
  },
  "entry": [
    {
      "fullUrl": "urn:uuid:ec54dd3b-983d-4314-9518-959bb8a0c368",
      "resource": {
        "resourceType": "Composition",
        "id": "ec54dd3b-983d-4314-9518-959bb8a0c368",
        "meta": {
          "profile": [
            "http://hl7.eu/fhir/laboratory/StructureDefinition/Composition-eu-lab"
          ]
        },
        "identifier": {
          "assigner": {
            "display": "HL7 Europe"
          },
          "system": "urn:oid:2.16.840.1.113883.2.51.999",
          "value": "24d79d71-0621-47e0-82b4-e975c09463fc"
        },
        "author": [
          {
            "reference": "urn:uuid:2f7596a2-8dbd-4177-a985-fc76c446bf4f"
          }
        ],
        "category": [
          {
            "coding": [
              {
                "code": "26436-6",
                "system": "http://loinc.org",
                "display": "Laboratory studies (set)"
              }
            ]
          }
        ],
        "type": {
          "coding": [
            {
              "code": "11502-2",
              "system": "http://loinc.org",
              "display": "Laboratory report"
            }
          ],
          "text": "Laboratory Report"
        },
        "section": [
          {
            "code": {
              "coding": [
                {
                  "code": "26436-6",
                  "system": "http://loinc.org",
                  "display": "Laboratory studies (set)"
                }
              ],
              "text": "Laboratory studies"
            },
            "section": [
              {
                "code": {
                  "coding": [
                    {
                      "code": "$18719-5",
                      "system": "http://loinc.org",
                      "display": "Chemistry studies (set)"
                    }
                  ],
                  "text": "Chemistry"
                },
                "entry": [
                  {
                    "reference": "urn:uuid:51c3bf4a-87bc-4b82-91a6-34e7a1d37f9a"
                  },
                  {
                    "reference": "urn:uuid:1b5458b3-f9c6-4a03-815f-9329a67725d2"
                  },
                  {
                    "reference": "urn:uuid:08213296-1a2f-4e8c-91b7-4aa83ff1725c"
                  },
                  {
                    "reference": "urn:uuid:4e804d5d-ffc9-42ae-9004-bb46a2c39078"
                  },
                  {
                    "reference": "urn:uuid:4b7bccab-7762-4e1b-b8fe-8e868bd2084b"
                  },
                  {
                    "reference": "urn:uuid:db45f7c2-1f46-42be-ae90-1483072cb90f"
                  },
                  {
                    "reference": "urn:uuid:4a0e4ab9-7932-4fdd-a6c1-866f3a24246f"
                  },
                  {
                    "reference": "urn:uuid:339d0ca7-17d0-431c-a216-d8636d328459"
                  },
                  {
                    "reference": "urn:uuid:717f415b-c6bb-43b6-b092-bbfad70960a6"
                  },
                  {
                    "reference": "urn:uuid:d77429b9-f948-4716-a880-1a0ed1fb3eeb"
                  },
                  {
                    "reference": "urn:uuid:298c3896-d289-4882-80a5-15f72bd6a7bb"
                  },
                  {
                    "reference": "urn:uuid:28b2bf52-f2a9-4ad0-8424-cb0ccbf4e9d8"
                  },
                  {
                    "reference": "urn:uuid:739bf06c-eb65-4c9c-af91-cdfa0fa36786"
                  },
                  {
                    "reference": "urn:uuid:1b5db946-7917-498c-bd2a-bbe8e41cb25a"
                  },
                  {
                    "reference": "urn:uuid:539b4910-a6af-45cd-b5b7-dfe7f1688170"
                  },
                  {
                    "reference": "urn:uuid:39300f84-162b-4e81-bf5e-183d90a171b2"
                  },
                  {
                    "reference": "urn:uuid:09f2e1e2-d556-4964-8184-ccfb25a5cb1f"
                  },
                  {
                    "reference": "urn:uuid:a4e95b1e-6b12-4d45-a4f5-adb89789bed0"
                  }
                ],
                "text": {
                  "status": "generated",
                  "div": "<div xmlns=\"http://www.w3.org/1999/xhtml\"><h3>Chemistry</h3><table class=\"hl7__eu__lab__report\"><thead><tr><th>Test</th><th>16-JAN-2020</th><th>Reference&#xA0;Range</th><th>Unit</th></tr></thead><tbody><tr><td>Glucose [Mass/volume] in Serum or Plasma</td><td>76.3</td><td>70 - 140</td><td>mg/dL</td></tr><tr><td>Urea nitrogen [Mass/volume] in Serum or Plasma</td><td>17.2</td><td>7 - 25</td><td>mg/dL</td></tr><tr><td>Creatinine [Mass/volume] in Serum or Plasma</td><td><strong>2.0 H</strong></td><td>0.9 - 1.3</td><td>mg/dL</td></tr><tr><td>Calcium [Mass/volume] in Serum or Plasma</td><td>9.0</td><td>8.5 - 10.5</td><td>mg/dL</td></tr><tr><td>Sodium [Moles/volume] in Serum or Plasma</td><td>141.8</td><td>135 - 145</td><td>mmol/L</td></tr><tr><td>Potassium [Moles/volume] in Serum or Plasma</td><td>4.8</td><td>3.5 - 5.3</td><td>mmol/L</td></tr><tr><td>Chloride [Moles/volume] in Serum or Plasma</td><td>101.5</td><td>98 - 107</td><td>mmol/L</td></tr><tr><td>Carbon dioxide, total [Moles/volume] in Serum or Plasma</td><td>22.3</td><td>22 - 29</td><td>mmol/L</td></tr><tr><td>Ketones [Presence] in Urine by Test strip</td><td>Urine ketone test = +</td><td></td><td></td></tr><tr><td>Hemoglobin A1c/Hemoglobin.total in Blood</td><td><strong>3.1 L</strong></td><td>4.5 - 6.4</td><td>%</td></tr><tr><td>Glucose [Mass/volume] in Blood</td><td>76.3</td><td>70 - 140</td><td>mg/dL</td></tr><tr><td>Urea nitrogen [Mass/volume] in Blood</td><td>17.2</td><td>7 - 25</td><td>mg/dL</td></tr><tr><td>Creatinine [Mass/volume] in Blood</td><td><strong>1.7 H</strong></td><td>0.9 - 1.3</td><td>mg/dL</td></tr><tr><td>Calcium [Mass/volume] in Blood</td><td>9.0</td><td>8.6 - 10.2</td><td>mg/dL</td></tr><tr><td>Sodium [Moles/volume] in Blood</td><td>141.8</td><td>135 - 145</td><td>mmol/L</td></tr><tr><td>Potassium [Moles/volume] in Blood</td><td>4.8</td><td>3.5 - 5.1</td><td>mmol/L</td></tr><tr><td>Chloride [Moles/volume] in Blood</td><td>101.5</td><td>98 - 108</td><td>mmol/L</td></tr><tr><td>Carbon dioxide, total [Moles/volume] in Blood</td><td>22.3</td><td>22 - 32</td><td>mmol/L</td></tr></tbody></table></div>"
                },
                "title": "Chemistry"
              },
              {
                "code": {
                  "coding": [
                    {
                      "code": "$18729-4",
                      "system": "http://loinc.org",
                      "display": "Urinalysis studies (set)"
                    }
                  ],
                  "text": "Urinalysis"
                },
                "entry": [
                  {
                    "reference": "urn:uuid:45d7eb2a-5c58-4b57-a183-10cf134ba796"
                  },
                  {
                    "reference": "urn:uuid:2a20e760-81ad-4872-8987-5e251c4b6632"
                  },
                  {
                    "reference": "urn:uuid:a425f55b-c26c-4943-aa6f-68cef647d028"
                  },
                  {
                    "reference": "urn:uuid:a2d90dba-e41f-40c5-a976-2236ad662a97"
                  },
                  {
                    "reference": "urn:uuid:8b644121-62ed-400f-bccd-da7833386662"
                  },
                  {
                    "reference": "urn:uuid:b6835416-c505-4c54-9926-112e0e7b263c"
                  },
                  {
                    "reference": "urn:uuid:4752a967-84f0-4be7-892b-2232d6658e18"
                  },
                  {
                    "reference": "urn:uuid:4154383a-3664-4f42-aff0-74f3f9bda674"
                  },
                  {
                    "reference": "urn:uuid:03fadbb6-3792-41f6-956e-a0f50102b239"
                  },
                  {
                    "reference": "urn:uuid:f4fc73bf-6619-4526-9097-09503f524cd1"
                  },
                  {
                    "reference": "urn:uuid:b14051ad-51d2-4d46-80c5-0a89fa9a2751"
                  },
                  {
                    "reference": "urn:uuid:252e5854-23d9-48d4-974b-0a348adbc5e5"
                  }
                ],
                "text": {
                  "status": "generated",
                  "div": "<div xmlns=\"http://www.w3.org/1999/xhtml\"><h3>Urinalysis</h3><table class=\"hl7__eu__lab__report\"><thead><tr><th>Test</th><th>16-JAN-2020</th><th>Reference&#xA0;Range</th><th>Unit</th></tr></thead><tbody><tr><td>Glucose [Mass/volume] in Urine by Test strip</td><td><strong>0.8 H</strong></td><td>0.8 - 0</td><td>mg/dL</td></tr><tr><td>Glucose [Presence] in Urine by Test strip</td><td>++</td><td></td><td></td></tr><tr><td>Bilirubin.total [Mass/volume] in Urine by Test strip</td><td>1.3</td><td>0.2 - 1.5</td><td>mg/dL</td></tr><tr><td>Bilirubin.total [Presence] in Urine by Test strip</td><td>Finding of bilirubin in urine</td><td></td><td></td></tr><tr><td>Ketones [Mass/volume] in Urine by Test strip</td><td><strong>10.7 H</strong></td><td>0 - 4</td><td>mg/dL</td></tr><tr><td>Specific gravity of Urine by Test strip</td><td><strong>1.0 L</strong></td><td>1.01 - 1.03</td><td>{nominal}</td></tr><tr><td>pH of Urine by Test strip</td><td>6.2</td><td>4.5 - 7.5</td><td>pH</td></tr><tr><td>Protein [Mass/volume] in Urine by Test strip</td><td><strong>186.4 H</strong></td><td>0 - 150</td><td>mg/dL</td></tr><tr><td>Protein [Presence] in Urine by Test strip</td><td>Urine protein test = ++</td><td></td><td></td></tr><tr><td>Nitrite [Presence] in Urine by Test strip</td><td>Urine nitrite negative</td><td></td><td></td></tr><tr><td>Hemoglobin [Presence] in Urine by Test strip</td><td>Urine blood test = negative</td><td></td><td></td></tr><tr><td>Leukocyte esterase [Presence] in Urine by Test strip</td><td>Urine leukocyte test negative</td><td></td><td></td></tr></tbody></table></div>"
                },
                "title": "Urinalysis"
              },
              {
                "code": {
                  "coding": [
                    {
                      "code": "$LP7846-1",
                      "system": "http://loinc.org",
                      "display": "Specimen information"
                    }
                  ],
                  "text": "Specimen information"
                },
                "entry": [
                  {
                    "reference": "urn:uuid:2fffdfc5-de4b-4a6c-83af-80be9c103ad8"
                  },
                  {
                    "reference": "urn:uuid:6586a807-f8f0-437f-8235-61ff2942beb0"
                  },
                  {
                    "reference": "urn:uuid:d0967311-b032-4bb4-9d9e-e9974bb6eaa3"
                  },
                  {
                    "reference": "urn:uuid:761dca79-c604-489e-b7c1-13a0181838ee"
                  }
                ],
                "text": {
                  "status": "generated",
                  "div": "<div xmlns=\"http://www.w3.org/1999/xhtml\"><h3>Specimen information</h3><table class=\"hl7__eu__lab__report\"><thead><tr><th>Test</th><th>16-JAN-2020</th><th>Specimen</th><th></th></tr></thead><tbody><tr><td>Appearance of Urine</td><td>Cloudy urine</td><td>Urine</td><td></td></tr><tr><td>Odor of Urine</td><td>Urine smell ammoniacal</td><td>Urine</td><td></td></tr><tr><td>Clarity of Urine</td><td>Translucent</td><td>Urine</td><td></td></tr><tr><td>Color of Urine</td><td>Brown color</td><td>Urine</td><td></td></tr></tbody></table></div>"
                },
                "title": "Specimen information"
              }
            ],
            "title": "Laboratory Report"
          },
          {
            "text": {
              "status": "generated",
              "div": "<div xmlns=\"http://www.w3.org/1999/xhtml\"><h3>Annotation</h3><table class=\"hl7__eu__lab__report\"><tr><th>Conclusion and Recommendations based on this report and previous findings known to us</th></tr><tr><td>The patient shows elevated creatinine, proteinuria, and low urine specific gravity, suggesting impaired renal function. There is also glucosuria and ketonuria despite normal blood glucose and low HbA1c, which may indicate renal glycosuria or possible metabolic derangement. Urine is cloudy and brown with ammoniacal odor, but no evidence of infection (negative nitrites/leukocytes). Recommend further nephrological evaluation and assessment for possible underlying renal or metabolic disorders.</td></tr></table></div>"
            },
            "code": {
              "coding": [
                {
                  "system": "http://loinc.org",
                  "code": "48767-8",
                  "display": "Annotation comment"
                }
              ]
            },
            "title": "Annotation comment"
          }
        ],
        "status": "final",
        "subject": {
          "reference": "urn:uuid:c3a0f3c9-2577-4639-b85a-fa1474a60d6a",
          "display": "Pelayo Casal"
        },
        "date": "2020-01-16T06:38:59Z",
        "title": "Laboratory Report",
        "confidentiality": "N"
      }
    },
    {
      "fullUrl": "urn:uuid:5047b374-2716-499a-80bf-dd47b11bbafb",
      "resource": {
        "resourceType": "DiagnosticReport",
        "id": "5047b374-2716-499a-80bf-dd47b11bbafb",
        "meta": {
          "profile": [
            "http://hl7.eu/fhir/laboratory/StructureDefinition/DiagnosticReport-eu-lab"
          ]
        },
        "identifier": [
          {
            "assigner": {
              "display": "HL7 Europe"
            },
            "system": "urn:oid:2.16.840.1.113883.2.51.999",
            "value": "d9d05a46-54a3-419f-a28b-e7bb67661e0c"
          }
        ],
        "extension": [
          {
            "url": "http://hl7.org/fhir/5.0/StructureDefinition/extension-DiagnosticReport.composition",
            "valueReference": {
              "reference": "urn:uuid:24d79d71-0621-47e0-82b4-e975c09463fc"
            }
          }
        ],
        "category": [
          {
            "coding": [
              {
                "code": "26436-6",
                "system": "http://loinc.org",
                "display": "Laboratory studies (set)"
              }
            ]
          }
        ],
        "specimen": [
          {
            "reference": "urn:uuid:7dc7bf2b-18ce-4d0e-aac5-c309b60f47bf"
          },
          {
            "reference": "urn:uuid:30fb0ce4-259c-4431-93d9-0900317c1dac"
          },
          {
            "reference": "urn:uuid:31584cb5-d991-474a-8f95-5d1e0928e01e"
          }
        ],
        "result": [
          {
            "reference": "urn:uuid:51c3bf4a-87bc-4b82-91a6-34e7a1d37f9a"
          },
          {
            "reference": "urn:uuid:1b5458b3-f9c6-4a03-815f-9329a67725d2"
          },
          {
            "reference": "urn:uuid:08213296-1a2f-4e8c-91b7-4aa83ff1725c"
          },
          {
            "reference": "urn:uuid:4e804d5d-ffc9-42ae-9004-bb46a2c39078"
          },
          {
            "reference": "urn:uuid:4b7bccab-7762-4e1b-b8fe-8e868bd2084b"
          },
          {
            "reference": "urn:uuid:db45f7c2-1f46-42be-ae90-1483072cb90f"
          },
          {
            "reference": "urn:uuid:4a0e4ab9-7932-4fdd-a6c1-866f3a24246f"
          },
          {
            "reference": "urn:uuid:339d0ca7-17d0-431c-a216-d8636d328459"
          },
          {
            "reference": "urn:uuid:2fffdfc5-de4b-4a6c-83af-80be9c103ad8"
          },
          {
            "reference": "urn:uuid:6586a807-f8f0-437f-8235-61ff2942beb0"
          },
          {
            "reference": "urn:uuid:d0967311-b032-4bb4-9d9e-e9974bb6eaa3"
          },
          {
            "reference": "urn:uuid:761dca79-c604-489e-b7c1-13a0181838ee"
          },
          {
            "reference": "urn:uuid:45d7eb2a-5c58-4b57-a183-10cf134ba796"
          },
          {
            "reference": "urn:uuid:2a20e760-81ad-4872-8987-5e251c4b6632"
          },
          {
            "reference": "urn:uuid:a425f55b-c26c-4943-aa6f-68cef647d028"
          },
          {
            "reference": "urn:uuid:a2d90dba-e41f-40c5-a976-2236ad662a97"
          },
          {
            "reference": "urn:uuid:8b644121-62ed-400f-bccd-da7833386662"
          },
          {
            "reference": "urn:uuid:717f415b-c6bb-43b6-b092-bbfad70960a6"
          },
          {
            "reference": "urn:uuid:b6835416-c505-4c54-9926-112e0e7b263c"
          },
          {
            "reference": "urn:uuid:4752a967-84f0-4be7-892b-2232d6658e18"
          },
          {
            "reference": "urn:uuid:4154383a-3664-4f42-aff0-74f3f9bda674"
          },
          {
            "reference": "urn:uuid:03fadbb6-3792-41f6-956e-a0f50102b239"
          },
          {
            "reference": "urn:uuid:f4fc73bf-6619-4526-9097-09503f524cd1"
          },
          {
            "reference": "urn:uuid:b14051ad-51d2-4d46-80c5-0a89fa9a2751"
          },
          {
            "reference": "urn:uuid:252e5854-23d9-48d4-974b-0a348adbc5e5"
          },
          {
            "reference": "urn:uuid:d77429b9-f948-4716-a880-1a0ed1fb3eeb"
          },
          {
            "reference": "urn:uuid:298c3896-d289-4882-80a5-15f72bd6a7bb"
          },
          {
            "reference": "urn:uuid:28b2bf52-f2a9-4ad0-8424-cb0ccbf4e9d8"
          },
          {
            "reference": "urn:uuid:739bf06c-eb65-4c9c-af91-cdfa0fa36786"
          },
          {
            "reference": "urn:uuid:1b5db946-7917-498c-bd2a-bbe8e41cb25a"
          },
          {
            "reference": "urn:uuid:539b4910-a6af-45cd-b5b7-dfe7f1688170"
          },
          {
            "reference": "urn:uuid:39300f84-162b-4e81-bf5e-183d90a171b2"
          },
          {
            "reference": "urn:uuid:09f2e1e2-d556-4964-8184-ccfb25a5cb1f"
          },
          {
            "reference": "urn:uuid:a4e95b1e-6b12-4d45-a4f5-adb89789bed0"
          }
        ],
        "status": "registered",
        "code": {
          "coding": [
            {
              "code": "11502-2",
              "system": "http://loinc.org",
              "display": "Laboratory report"
            }
          ]
        },
        "subject": {
          "reference": "urn:uuid:c3a0f3c9-2577-4639-b85a-fa1474a60d6a",
          "display": "Pelayo Casal"
        }
      }
    },
    {
      "fullUrl": "urn:uuid:c3a0f3c9-2577-4639-b85a-fa1474a60d6a",
      "resource": {
        "resourceType": "Patient",
        "id": "c3a0f3c9-2577-4639-b85a-fa1474a60d6a",
        "meta": {
          "security": [
            {
              "system": "http://terminology.hl7.org/CodeSystem/v3-ActReason",
              "code": "HTEST"
            },
            {
              "system": "http://terminology.hl7.org/CodeSystem/v3-ActReason",
              "code": "TRAIN"
            }
          ],
          "tag": [
            {
              "system": "https://synderai.net/fhir/CodeSystem/tags",
              "code": "synthetic",
              "display": "SYNDERAI Synthetic data"
            }
          ],
          "profile": [
            "http://hl7.eu/fhir/base/StructureDefinition/patient-eu-core"
          ]
        },
        "identifier": [
          {
            "type": {
              "coding": [
                {
                  "code": "PT",
                  "system": "http://terminology.hl7.org/CodeSystem/v2-0203"
                }
              ]
            },
            "system": "http://ec.europa.eu/identifier/eci",
            "value": "7707-510028-7"
          },
          {
            "type": {
              "coding": [
                {
                  "code": "MR",
                  "system": "http://terminology.hl7.org/CodeSystem/v2-0203"
                }
              ]
            },
            "system": "http://local.setting.eu/identifier",
            "value": "d88e82c6-df33-82d2-8538-f8b57da06491"
          }
        ],
        "name": [
          {
            "family": "Casal"
          },
          {
            "given": [
              "Pelayo"
            ]
          },
          {
            "text": "Pelayo Casal"
          }
        ],
        "address": [
          {
            "line": [
              "Callejón de Ignacio Pedrosa 67 Apt. 68 "
            ],
            "use": "home",
            "type": "physical",
            "postalCode": "35001",
            "city": "Las Palmas",
            "country": "Spain"
          }
        ],
        "telecom": [
          {
            "system": "phone",
            "value": "+34 875724898"
          }
        ],
        "extension": [
          {
            "url": "http://hl7.org/fhir/StructureDefinition/patient-nationality",
            "valueCodeableConcept": {
              "coding": [
                {
                  "code": "ES",
                  "system": "http://hl7.org/fhir/ValueSet/country"
                }
              ]
            }
          }
        ],
        "text": {
          "status": "generated",
          "div": "<div xmlns=\"http://www.w3.org/1999/xhtml\"><table class=\"hl7__ips\"><tr><td>Pelayo Casal</td><td>male</td><td>19-Apr-1940</td></tr></table></div>"
        },
        "gender": "male",
        "birthDate": "1940-04-19"
      }
    },
    {
      "fullUrl": "urn:uuid:e0225509-e027-4551-a464-a8b4c1df1a2d",
      "resource": {
        "resourceType": "ServiceRequest",
        "id": "e0225509-e027-4551-a464-a8b4c1df1a2d",
        "meta": {
          "profile": [
            "http://hl7.eu/fhir/laboratory/StructureDefinition/ServiceRequest-eu-lab"
          ]
        },
        "identifier": [
          {
            "system": "http://example.org",
            "value": "80459d83-2180-43b3-a81a-f6e77366321e"
          }
        ],
        "specimen": [
          {
            "reference": "urn:uuid:7dc7bf2b-18ce-4d0e-aac5-c309b60f47bf"
          },
          {
            "reference": "urn:uuid:30fb0ce4-259c-4431-93d9-0900317c1dac"
          },
          {
            "reference": "urn:uuid:31584cb5-d991-474a-8f95-5d1e0928e01e"
          }
        ],
        "reasonCode": [
          {
            "coding": [
              {
                "code": "431856006",
                "system": "http://snomed.info/sct",
                "display": "Chronic kidney disease stage 2"
              }
            ]
          },
          {
            "coding": [
              {
                "code": "90781000119102",
                "system": "http://snomed.info/sct",
                "display": "Microalbuminuria due to type 2 diabetes mellitus"
              }
            ]
          },
          {
            "coding": [
              {
                "code": "127013003",
                "system": "http://snomed.info/sct",
                "display": "Disorder of kidney due to diabetes mellitus"
              }
            ]
          },
          {
            "coding": [
              {
                "code": "431855005",
                "system": "http://snomed.info/sct",
                "display": "Chronic kidney disease stage 1"
              }
            ]
          },
          {
            "coding": [
              {
                "code": "64859006",
                "system": "http://snomed.info/sct",
                "display": "Osteoporosis"
              }
            ]
          },
          {
            "coding": [
              {
                "code": "414545008",
                "system": "http://snomed.info/sct",
                "display": "Ischemic heart disease"
              }
            ]
          },
          {
            "coding": [
              {
                "code": "237602007",
                "system": "http://snomed.info/sct",
                "display": "Metabolic syndrome X"
              }
            ]
          },
          {
            "coding": [
              {
                "code": "59621000",
                "system": "http://snomed.info/sct",
                "display": "Essential hypertension"
              }
            ]
          },
          {
            "coding": [
              {
                "code": "271737000",
                "system": "http://snomed.info/sct",
                "display": "Anemia"
              }
            ]
          },
          {
            "coding": [
              {
                "code": "15777000",
                "system": "http://snomed.info/sct",
                "display": "Prediabetes"
              }
            ]
          }
        ],
        "status": "active",
        "intent": "order",
        "code": {
          "coding": [
            {
              "code": "108252007",
              "system": "http://snomed.info/sct",
              "display": "Laboratory procedure"
            }
          ]
        },
        "subject": {
          "reference": "urn:uuid:c3a0f3c9-2577-4639-b85a-fa1474a60d6a",
          "display": "Pelayo Casal"
        },
        "requester": {
          "reference": "urn:uuid:e565431a-e0cd-40c2-be85-35d4bea30677"
        }
      }
    },
    {
      "fullUrl": "urn:uuid:e565431a-e0cd-40c2-be85-35d4bea30677",
      "resource": {
        "resourceType": "PractitionerRole",
        "id": "e565431a-e0cd-40c2-be85-35d4bea30677",
        "meta": {
          "profile": [
            "http://hl7.eu/fhir/base/StructureDefinition/practitionerRole-eu"
          ]
        },
        "text": {
          "status": "generated",
          "div": "<div xmlns=\"http://www.w3.org/1999/xhtml\">Provider Role Id: e565431a-e0cd-40c2-be85-35d4bea30677</div>"
        },
        "organization": {
          "reference": "urn:uuid:bdea1225-f15b-4c6a-b353-23f59d322ea7"
        }
      }
    },
    {
      "fullUrl": "urn:uuid:bdea1225-f15b-4c6a-b353-23f59d322ea7",
      "resource": {
        "resourceType": "Organization",
        "id": "bdea1225-f15b-4c6a-b353-23f59d322ea7",
        "meta": {
          "profile": [
            "http://hl7.eu/fhir/base/StructureDefinition/organization-eu"
          ]
        },
        "identifier": [
          {
            "assigner": {
              "display": "HL7 Europe"
            },
            "system": "urn:oid:2.16.840.1.113883.2.51.999",
            "value": "3b2be9c8-7679-4707-988e-bbaafef57baf"
          }
        ],
        "address": [
          {
            "country": "Spain"
          }
        ],
        "text": {
          "status": "generated",
          "div": "<div xmlns=\"http://www.w3.org/1999/xhtml\">Provider Organization: Centro de Salud de Guanarteme</div>"
        },
        "name": "Centro de Salud de Guanarteme"
      }
    },
    {
      "fullUrl": "urn:uuid:7dc7bf2b-18ce-4d0e-aac5-c309b60f47bf",
      "resource": {
        "resourceType": "Specimen",
        "id": "7dc7bf2b-18ce-4d0e-aac5-c309b60f47bf",
        "meta": {
          "profile": [
            "http://hl7.eu/fhir/laboratory/StructureDefinition/Specimen-eu-lab"
          ]
        },
        "collection": {
          "collectedDateTime": "2020-01-16"
        },
        "text": {
          "status": "generated",
          "div": "<div xmlns=\"http://www.w3.org/1999/xhtml\"><table class=\"hl7__eu__lab__report\"><tr><th>Specimen</th><th>Collection Date</th></tr><tr><td>Acellular blood (serum or plasma) specimen</td><td><span class=\"nb\">16-Jan-2020</span></td></tr></table></div>"
        },
        "type": {
          "coding": [
            {
              "code": "122592007",
              "system": "http://snomed.info/sct",
              "display": "Acellular blood (serum or plasma) specimen"
            }
          ]
        }
      }
    },
    {
      "fullUrl": "urn:uuid:30fb0ce4-259c-4431-93d9-0900317c1dac",
      "resource": {
        "resourceType": "Specimen",
        "id": "30fb0ce4-259c-4431-93d9-0900317c1dac",
        "meta": {
          "profile": [
            "http://hl7.eu/fhir/laboratory/StructureDefinition/Specimen-eu-lab"
          ]
        },
        "collection": {
          "collectedDateTime": "2020-01-16"
        },
        "text": {
          "status": "generated",
          "div": "<div xmlns=\"http://www.w3.org/1999/xhtml\"><table class=\"hl7__eu__lab__report\"><tr><th>Specimen</th><th>Collection Date</th></tr><tr><td>Urine specimen</td><td><span class=\"nb\">16-Jan-2020</span></td></tr></table></div>"
        },
        "type": {
          "coding": [
            {
              "code": "122575003",
              "system": "http://snomed.info/sct",
              "display": "Urine specimen"
            }
          ]
        }
      }
    },
    {
      "fullUrl": "urn:uuid:31584cb5-d991-474a-8f95-5d1e0928e01e",
      "resource": {
        "resourceType": "Specimen",
        "id": "31584cb5-d991-474a-8f95-5d1e0928e01e",
        "meta": {
          "profile": [
            "http://hl7.eu/fhir/laboratory/StructureDefinition/Specimen-eu-lab"
          ]
        },
        "collection": {
          "collectedDateTime": "2020-01-16"
        },
        "text": {
          "status": "generated",
          "div": "<div xmlns=\"http://www.w3.org/1999/xhtml\"><table class=\"hl7__eu__lab__report\"><tr><th>Specimen</th><th>Collection Date</th></tr><tr><td>Whole blood specimen (specimen)</td><td><span class=\"nb\">16-Jan-2020</span></td></tr></table></div>"
        },
        "type": {
          "coding": [
            {
              "code": "258580003",
              "system": "http://snomed.info/sct",
              "display": "Whole blood specimen (specimen)"
            }
          ]
        }
      }
    },
    {
      "fullUrl": "urn:uuid:51c3bf4a-87bc-4b82-91a6-34e7a1d37f9a",
      "resource": {
        "resourceType": "Observation",
        "id": "51c3bf4a-87bc-4b82-91a6-34e7a1d37f9a",
        "meta": {
          "profile": [
            "http://hl7.eu/fhir/laboratory/StructureDefinition/Observation-resultslab-eu-lab"
          ]
        },
        "performer": [
          {
            "display": "The Central European Lab"
          }
        ],
        "category": [
          {
            "coding": [
              {
                "system": "http://terminology.hl7.org/CodeSystem/observation-category",
                "code": "laboratory"
              }
            ]
          }
        ],
        "code": {
          "coding": [
            {
              "code": "2345-7",
              "system": "http://loinc.org",
              "display": "Glucose [Mass/volume] in Serum or Plasma"
            }
          ],
          "text": "Glucose [Mass/volume] in Serum or Plasma"
        },
        "valueQuantity": {
          "system": "http://unitsofmeasure.org",
          "value": 76.3,
          "unit": "mg/dL",
          "code": "mg/dL"
        },
        "referenceRange": [
          {
            "low": {
              "value": 70,
              "code": "mg/dL",
              "system": "http://unitsofmeasure.org"
            }
          },
          {
            "high": {
              "value": 140,
              "code": "mg/dL",
              "system": "http://unitsofmeasure.org"
            }
          }
        ],
        "text": {
          "status": "generated",
          "div": "<div xmlns=\"http://www.w3.org/1999/xhtml\"><table class=\"hl7__eu__lab__report\"><tr><th>Test</th><th>16-Jan-2020</th><th>Reference&#xA0;Range</th><th>Unit</th></tr><tr><td>Glucose [Mass/volume] in Serum or Plasma</td><td>76.3</td><td>70 - 140</td><td></td><td>mg/dL</td></tr></table></div>"
        },
        "status": "final",
        "subject": {
          "reference": "urn:uuid:c3a0f3c9-2577-4639-b85a-fa1474a60d6a",
          "display": "Pelayo Casal"
        },
        "effectiveDateTime": "2020-01-16T05:38:59Z",
        "specimen": {
          "reference": "urn:uuid:7dc7bf2b-18ce-4d0e-aac5-c309b60f47bf"
        }
      }
    },
    {
      "fullUrl": "urn:uuid:1b5458b3-f9c6-4a03-815f-9329a67725d2",
      "resource": {
        "resourceType": "Observation",
        "id": "1b5458b3-f9c6-4a03-815f-9329a67725d2",
        "meta": {
          "profile": [
            "http://hl7.eu/fhir/laboratory/StructureDefinition/Observation-resultslab-eu-lab"
          ]
        },
        "performer": [
          {
            "display": "The Central European Lab"
          }
        ],
        "category": [
          {
            "coding": [
              {
                "system": "http://terminology.hl7.org/CodeSystem/observation-category",
                "code": "laboratory"
              }
            ]
          }
        ],
        "code": {
          "coding": [
            {
              "code": "3094-0",
              "system": "http://loinc.org",
              "display": "Urea nitrogen [Mass/volume] in Serum or Plasma"
            }
          ],
          "text": "Urea nitrogen [Mass/volume] in Serum or Plasma"
        },
        "valueQuantity": {
          "system": "http://unitsofmeasure.org",
          "value": 17.2,
          "unit": "mg/dL",
          "code": "mg/dL"
        },
        "referenceRange": [
          {
            "low": {
              "value": 7,
              "code": "mg/dL",
              "system": "http://unitsofmeasure.org"
            }
          },
          {
            "high": {
              "value": 25,
              "code": "mg/dL",
              "system": "http://unitsofmeasure.org"
            }
          }
        ],
        "text": {
          "status": "generated",
          "div": "<div xmlns=\"http://www.w3.org/1999/xhtml\"><table class=\"hl7__eu__lab__report\"><tr><th>Test</th><th>16-Jan-2020</th><th>Reference&#xA0;Range</th><th>Unit</th></tr><tr><td>Urea nitrogen [Mass/volume] in Serum or Plasma</td><td>17.2</td><td>7 - 25</td><td></td><td>mg/dL</td></tr></table></div>"
        },
        "status": "final",
        "subject": {
          "reference": "urn:uuid:c3a0f3c9-2577-4639-b85a-fa1474a60d6a",
          "display": "Pelayo Casal"
        },
        "effectiveDateTime": "2020-01-16T05:38:59Z",
        "specimen": {
          "reference": "urn:uuid:7dc7bf2b-18ce-4d0e-aac5-c309b60f47bf"
        }
      }
    },
    {
      "fullUrl": "urn:uuid:08213296-1a2f-4e8c-91b7-4aa83ff1725c",
      "resource": {
        "resourceType": "Observation",
        "id": "08213296-1a2f-4e8c-91b7-4aa83ff1725c",
        "meta": {
          "profile": [
            "http://hl7.eu/fhir/laboratory/StructureDefinition/Observation-resultslab-eu-lab"
          ]
        },
        "performer": [
          {
            "display": "The Central European Lab"
          }
        ],
        "category": [
          {
            "coding": [
              {
                "system": "http://terminology.hl7.org/CodeSystem/observation-category",
                "code": "laboratory"
              }
            ]
          }
        ],
        "code": {
          "coding": [
            {
              "code": "2160-0",
              "system": "http://loinc.org",
              "display": "Creatinine [Mass/volume] in Serum or Plasma"
            }
          ],
          "text": "Creatinine [Mass/volume] in Serum or Plasma"
        },
        "valueQuantity": {
          "system": "http://unitsofmeasure.org",
          "value": 2,
          "unit": "mg/dL",
          "code": "mg/dL"
        },
        "referenceRange": [
          {
            "low": {
              "value": 0.9,
              "code": "mg/dL",
              "system": "http://unitsofmeasure.org"
            }
          },
          {
            "high": {
              "value": 1.3,
              "code": "mg/dL",
              "system": "http://unitsofmeasure.org"
            }
          }
        ],
        "interpretation": [
          {
            "coding": [
              {
                "code": "H",
                "system": "http://terminology.hl7.org/CodeSystem/v3-ObservationInterpretation",
                "display": "High"
              }
            ]
          }
        ],
        "text": {
          "status": "generated",
          "div": "<div xmlns=\"http://www.w3.org/1999/xhtml\"><table class=\"hl7__eu__lab__report\"><tr><th>Test</th><th>16-Jan-2020</th><th>Reference&#xA0;Range</th><th>Unit</th></tr><tr><td>Creatinine [Mass/volume] in Serum or Plasma</td><td>2.0</td><td>0.9 - 1.3</td><td>H</td><td>mg/dL</td></tr></table></div>"
        },
        "status": "final",
        "subject": {
          "reference": "urn:uuid:c3a0f3c9-2577-4639-b85a-fa1474a60d6a",
          "display": "Pelayo Casal"
        },
        "effectiveDateTime": "2020-01-16T05:38:59Z",
        "specimen": {
          "reference": "urn:uuid:7dc7bf2b-18ce-4d0e-aac5-c309b60f47bf"
        }
      }
    },
    {
      "fullUrl": "urn:uuid:4e804d5d-ffc9-42ae-9004-bb46a2c39078",
      "resource": {
        "resourceType": "Observation",
        "id": "4e804d5d-ffc9-42ae-9004-bb46a2c39078",
        "meta": {
          "profile": [
            "http://hl7.eu/fhir/laboratory/StructureDefinition/Observation-resultslab-eu-lab"
          ]
        },
        "performer": [
          {
            "display": "The Central European Lab"
          }
        ],
        "category": [
          {
            "coding": [
              {
                "system": "http://terminology.hl7.org/CodeSystem/observation-category",
                "code": "laboratory"
              }
            ]
          }
        ],
        "code": {
          "coding": [
            {
              "code": "17861-6",
              "system": "http://loinc.org",
              "display": "Calcium [Mass/volume] in Serum or Plasma"
            }
          ],
          "text": "Calcium [Mass/volume] in Serum or Plasma"
        },
        "valueQuantity": {
          "system": "http://unitsofmeasure.org",
          "value": 9,
          "unit": "mg/dL",
          "code": "mg/dL"
        },
        "referenceRange": [
          {
            "low": {
              "value": 8.5,
              "code": "mg/dL",
              "system": "http://unitsofmeasure.org"
            }
          },
          {
            "high": {
              "value": 10.5,
              "code": "mg/dL",
              "system": "http://unitsofmeasure.org"
            }
          }
        ],
        "text": {
          "status": "generated",
          "div": "<div xmlns=\"http://www.w3.org/1999/xhtml\"><table class=\"hl7__eu__lab__report\"><tr><th>Test</th><th>16-Jan-2020</th><th>Reference&#xA0;Range</th><th>Unit</th></tr><tr><td>Calcium [Mass/volume] in Serum or Plasma</td><td>9.0</td><td>8.5 - 10.5</td><td></td><td>mg/dL</td></tr></table></div>"
        },
        "status": "final",
        "subject": {
          "reference": "urn:uuid:c3a0f3c9-2577-4639-b85a-fa1474a60d6a",
          "display": "Pelayo Casal"
        },
        "effectiveDateTime": "2020-01-16T05:38:59Z",
        "specimen": {
          "reference": "urn:uuid:7dc7bf2b-18ce-4d0e-aac5-c309b60f47bf"
        }
      }
    },
    {
      "fullUrl": "urn:uuid:4b7bccab-7762-4e1b-b8fe-8e868bd2084b",
      "resource": {
        "resourceType": "Observation",
        "id": "4b7bccab-7762-4e1b-b8fe-8e868bd2084b",
        "meta": {
          "profile": [
            "http://hl7.eu/fhir/laboratory/StructureDefinition/Observation-resultslab-eu-lab"
          ]
        },
        "performer": [
          {
            "display": "The Central European Lab"
          }
        ],
        "category": [
          {
            "coding": [
              {
                "system": "http://terminology.hl7.org/CodeSystem/observation-category",
                "code": "laboratory"
              }
            ]
          }
        ],
        "code": {
          "coding": [
            {
              "code": "2951-2",
              "system": "http://loinc.org",
              "display": "Sodium [Moles/volume] in Serum or Plasma"
            }
          ],
          "text": "Sodium [Moles/volume] in Serum or Plasma"
        },
        "valueQuantity": {
          "system": "http://unitsofmeasure.org",
          "value": 141.8,
          "unit": "mmol/L",
          "code": "mmol/L"
        },
        "referenceRange": [
          {
            "low": {
              "value": 135,
              "code": "mmol/L",
              "system": "http://unitsofmeasure.org"
            }
          },
          {
            "high": {
              "value": 145,
              "code": "mmol/L",
              "system": "http://unitsofmeasure.org"
            }
          }
        ],
        "text": {
          "status": "generated",
          "div": "<div xmlns=\"http://www.w3.org/1999/xhtml\"><table class=\"hl7__eu__lab__report\"><tr><th>Test</th><th>16-Jan-2020</th><th>Reference&#xA0;Range</th><th>Unit</th></tr><tr><td>Sodium [Moles/volume] in Serum or Plasma</td><td>141.8</td><td>135 - 145</td><td></td><td>mmol/L</td></tr></table></div>"
        },
        "status": "final",
        "subject": {
          "reference": "urn:uuid:c3a0f3c9-2577-4639-b85a-fa1474a60d6a",
          "display": "Pelayo Casal"
        },
        "effectiveDateTime": "2020-01-16T05:38:59Z",
        "specimen": {
          "reference": "urn:uuid:7dc7bf2b-18ce-4d0e-aac5-c309b60f47bf"
        }
      }
    },
    {
      "fullUrl": "urn:uuid:db45f7c2-1f46-42be-ae90-1483072cb90f",
      "resource": {
        "resourceType": "Observation",
        "id": "db45f7c2-1f46-42be-ae90-1483072cb90f",
        "meta": {
          "profile": [
            "http://hl7.eu/fhir/laboratory/StructureDefinition/Observation-resultslab-eu-lab"
          ]
        },
        "performer": [
          {
            "display": "The Central European Lab"
          }
        ],
        "category": [
          {
            "coding": [
              {
                "system": "http://terminology.hl7.org/CodeSystem/observation-category",
                "code": "laboratory"
              }
            ]
          }
        ],
        "code": {
          "coding": [
            {
              "code": "2823-3",
              "system": "http://loinc.org",
              "display": "Potassium [Moles/volume] in Serum or Plasma"
            }
          ],
          "text": "Potassium [Moles/volume] in Serum or Plasma"
        },
        "valueQuantity": {
          "system": "http://unitsofmeasure.org",
          "value": 4.8,
          "unit": "mmol/L",
          "code": "mmol/L"
        },
        "referenceRange": [
          {
            "low": {
              "value": 3.5,
              "code": "mmol/L",
              "system": "http://unitsofmeasure.org"
            }
          },
          {
            "high": {
              "value": 5.3,
              "code": "mmol/L",
              "system": "http://unitsofmeasure.org"
            }
          }
        ],
        "text": {
          "status": "generated",
          "div": "<div xmlns=\"http://www.w3.org/1999/xhtml\"><table class=\"hl7__eu__lab__report\"><tr><th>Test</th><th>16-Jan-2020</th><th>Reference&#xA0;Range</th><th>Unit</th></tr><tr><td>Potassium [Moles/volume] in Serum or Plasma</td><td>4.8</td><td>3.5 - 5.3</td><td></td><td>mmol/L</td></tr></table></div>"
        },
        "status": "final",
        "subject": {
          "reference": "urn:uuid:c3a0f3c9-2577-4639-b85a-fa1474a60d6a",
          "display": "Pelayo Casal"
        },
        "effectiveDateTime": "2020-01-16T05:38:59Z",
        "specimen": {
          "reference": "urn:uuid:7dc7bf2b-18ce-4d0e-aac5-c309b60f47bf"
        }
      }
    },
    {
      "fullUrl": "urn:uuid:4a0e4ab9-7932-4fdd-a6c1-866f3a24246f",
      "resource": {
        "resourceType": "Observation",
        "id": "4a0e4ab9-7932-4fdd-a6c1-866f3a24246f",
        "meta": {
          "profile": [
            "http://hl7.eu/fhir/laboratory/StructureDefinition/Observation-resultslab-eu-lab"
          ]
        },
        "performer": [
          {
            "display": "The Central European Lab"
          }
        ],
        "category": [
          {
            "coding": [
              {
                "system": "http://terminology.hl7.org/CodeSystem/observation-category",
                "code": "laboratory"
              }
            ]
          }
        ],
        "code": {
          "coding": [
            {
              "code": "2075-0",
              "system": "http://loinc.org",
              "display": "Chloride [Moles/volume] in Serum or Plasma"
            }
          ],
          "text": "Chloride [Moles/volume] in Serum or Plasma"
        },
        "valueQuantity": {
          "system": "http://unitsofmeasure.org",
          "value": 101.5,
          "unit": "mmol/L",
          "code": "mmol/L"
        },
        "referenceRange": [
          {
            "low": {
              "value": 98,
              "code": "mmol/L",
              "system": "http://unitsofmeasure.org"
            }
          },
          {
            "high": {
              "value": 107,
              "code": "mmol/L",
              "system": "http://unitsofmeasure.org"
            }
          }
        ],
        "text": {
          "status": "generated",
          "div": "<div xmlns=\"http://www.w3.org/1999/xhtml\"><table class=\"hl7__eu__lab__report\"><tr><th>Test</th><th>16-Jan-2020</th><th>Reference&#xA0;Range</th><th>Unit</th></tr><tr><td>Chloride [Moles/volume] in Serum or Plasma</td><td>101.5</td><td>98 - 107</td><td></td><td>mmol/L</td></tr></table></div>"
        },
        "status": "final",
        "subject": {
          "reference": "urn:uuid:c3a0f3c9-2577-4639-b85a-fa1474a60d6a",
          "display": "Pelayo Casal"
        },
        "effectiveDateTime": "2020-01-16T05:38:59Z",
        "specimen": {
          "reference": "urn:uuid:7dc7bf2b-18ce-4d0e-aac5-c309b60f47bf"
        }
      }
    },
    {
      "fullUrl": "urn:uuid:339d0ca7-17d0-431c-a216-d8636d328459",
      "resource": {
        "resourceType": "Observation",
        "id": "339d0ca7-17d0-431c-a216-d8636d328459",
        "meta": {
          "profile": [
            "http://hl7.eu/fhir/laboratory/StructureDefinition/Observation-resultslab-eu-lab"
          ]
        },
        "performer": [
          {
            "display": "The Central European Lab"
          }
        ],
        "category": [
          {
            "coding": [
              {
                "system": "http://terminology.hl7.org/CodeSystem/observation-category",
                "code": "laboratory"
              }
            ]
          }
        ],
        "code": {
          "coding": [
            {
              "code": "2028-9",
              "system": "http://loinc.org",
              "display": "Carbon dioxide, total [Moles/volume] in Serum or Plasma"
            }
          ],
          "text": "Carbon dioxide, total [Moles/volume] in Serum or Plasma"
        },
        "valueQuantity": {
          "system": "http://unitsofmeasure.org",
          "value": 22.3,
          "unit": "mmol/L",
          "code": "mmol/L"
        },
        "referenceRange": [
          {
            "low": {
              "value": 22,
              "code": "mmol/L",
              "system": "http://unitsofmeasure.org"
            }
          },
          {
            "high": {
              "value": 29,
              "code": "mmol/L",
              "system": "http://unitsofmeasure.org"
            }
          }
        ],
        "text": {
          "status": "generated",
          "div": "<div xmlns=\"http://www.w3.org/1999/xhtml\"><table class=\"hl7__eu__lab__report\"><tr><th>Test</th><th>16-Jan-2020</th><th>Reference&#xA0;Range</th><th>Unit</th></tr><tr><td>Carbon dioxide, total [Moles/volume] in Serum or Plasma</td><td>22.3</td><td>22 - 29</td><td></td><td>mmol/L</td></tr></table></div>"
        },
        "status": "final",
        "subject": {
          "reference": "urn:uuid:c3a0f3c9-2577-4639-b85a-fa1474a60d6a",
          "display": "Pelayo Casal"
        },
        "effectiveDateTime": "2020-01-16T05:38:59Z",
        "specimen": {
          "reference": "urn:uuid:7dc7bf2b-18ce-4d0e-aac5-c309b60f47bf"
        }
      }
    },
    {
      "fullUrl": "urn:uuid:2fffdfc5-de4b-4a6c-83af-80be9c103ad8",
      "resource": {
        "resourceType": "Observation",
        "id": "2fffdfc5-de4b-4a6c-83af-80be9c103ad8",
        "meta": {
          "profile": [
            "http://hl7.eu/fhir/laboratory/StructureDefinition/Observation-resultslab-eu-lab"
          ]
        },
        "performer": [
          {
            "display": "The Central European Lab"
          }
        ],
        "category": [
          {
            "coding": [
              {
                "system": "http://terminology.hl7.org/CodeSystem/observation-category",
                "code": "laboratory"
              }
            ]
          }
        ],
        "code": {
          "coding": [
            {
              "code": "5767-9",
              "system": "http://loinc.org",
              "display": "Appearance of Urine"
            }
          ],
          "text": "Appearance of Urine"
        },
        "text": {
          "status": "generated",
          "div": "<div xmlns=\"http://www.w3.org/1999/xhtml\"><table class=\"hl7__eu__lab__report\"><tr><th>Test</th><th>16-Jan-2020</th><th>Reference&#xA0;Range</th><th>Unit</th></tr><tr><td>Appearance of Urine</td></tr></table></div>"
        },
        "status": "final",
        "subject": {
          "reference": "urn:uuid:c3a0f3c9-2577-4639-b85a-fa1474a60d6a",
          "display": "Pelayo Casal"
        },
        "effectiveDateTime": "2020-01-16T05:38:59Z",
        "specimen": {
          "reference": "urn:uuid:30fb0ce4-259c-4431-93d9-0900317c1dac"
        }
      }
    },
    {
      "fullUrl": "urn:uuid:6586a807-f8f0-437f-8235-61ff2942beb0",
      "resource": {
        "resourceType": "Observation",
        "id": "6586a807-f8f0-437f-8235-61ff2942beb0",
        "meta": {
          "profile": [
            "http://hl7.eu/fhir/laboratory/StructureDefinition/Observation-resultslab-eu-lab"
          ]
        },
        "performer": [
          {
            "display": "The Central European Lab"
          }
        ],
        "category": [
          {
            "coding": [
              {
                "system": "http://terminology.hl7.org/CodeSystem/observation-category",
                "code": "laboratory"
              }
            ]
          }
        ],
        "code": {
          "coding": [
            {
              "code": "34533-0",
              "system": "http://loinc.org",
              "display": "Odor of Urine"
            }
          ],
          "text": "Odor of Urine"
        },
        "text": {
          "status": "generated",
          "div": "<div xmlns=\"http://www.w3.org/1999/xhtml\"><table class=\"hl7__eu__lab__report\"><tr><th>Test</th><th>16-Jan-2020</th><th>Reference&#xA0;Range</th><th>Unit</th></tr><tr><td>Odor of Urine</td></tr></table></div>"
        },
        "status": "final",
        "subject": {
          "reference": "urn:uuid:c3a0f3c9-2577-4639-b85a-fa1474a60d6a",
          "display": "Pelayo Casal"
        },
        "effectiveDateTime": "2020-01-16T05:38:59Z",
        "specimen": {
          "reference": "urn:uuid:30fb0ce4-259c-4431-93d9-0900317c1dac"
        }
      }
    },
    {
      "fullUrl": "urn:uuid:d0967311-b032-4bb4-9d9e-e9974bb6eaa3",
      "resource": {
        "resourceType": "Observation",
        "id": "d0967311-b032-4bb4-9d9e-e9974bb6eaa3",
        "meta": {
          "profile": [
            "http://hl7.eu/fhir/laboratory/StructureDefinition/Observation-resultslab-eu-lab"
          ]
        },
        "performer": [
          {
            "display": "The Central European Lab"
          }
        ],
        "category": [
          {
            "coding": [
              {
                "system": "http://terminology.hl7.org/CodeSystem/observation-category",
                "code": "laboratory"
              }
            ]
          }
        ],
        "code": {
          "coding": [
            {
              "code": "32167-9",
              "system": "http://loinc.org",
              "display": "Clarity of Urine"
            }
          ],
          "text": "Clarity of Urine"
        },
        "text": {
          "status": "generated",
          "div": "<div xmlns=\"http://www.w3.org/1999/xhtml\"><table class=\"hl7__eu__lab__report\"><tr><th>Test</th><th>16-Jan-2020</th><th>Reference&#xA0;Range</th><th>Unit</th></tr><tr><td>Clarity of Urine</td></tr></table></div>"
        },
        "status": "final",
        "subject": {
          "reference": "urn:uuid:c3a0f3c9-2577-4639-b85a-fa1474a60d6a",
          "display": "Pelayo Casal"
        },
        "effectiveDateTime": "2020-01-16T05:38:59Z",
        "specimen": {
          "reference": "urn:uuid:30fb0ce4-259c-4431-93d9-0900317c1dac"
        }
      }
    },
    {
      "fullUrl": "urn:uuid:761dca79-c604-489e-b7c1-13a0181838ee",
      "resource": {
        "resourceType": "Observation",
        "id": "761dca79-c604-489e-b7c1-13a0181838ee",
        "meta": {
          "profile": [
            "http://hl7.eu/fhir/laboratory/StructureDefinition/Observation-resultslab-eu-lab"
          ]
        },
        "performer": [
          {
            "display": "The Central European Lab"
          }
        ],
        "category": [
          {
            "coding": [
              {
                "system": "http://terminology.hl7.org/CodeSystem/observation-category",
                "code": "laboratory"
              }
            ]
          }
        ],
        "code": {
          "coding": [
            {
              "code": "5778-6",
              "system": "http://loinc.org",
              "display": "Color of Urine"
            }
          ],
          "text": "Color of Urine"
        },
        "text": {
          "status": "generated",
          "div": "<div xmlns=\"http://www.w3.org/1999/xhtml\"><table class=\"hl7__eu__lab__report\"><tr><th>Test</th><th>16-Jan-2020</th><th>Reference&#xA0;Range</th><th>Unit</th></tr><tr><td>Color of Urine</td></tr></table></div>"
        },
        "status": "final",
        "subject": {
          "reference": "urn:uuid:c3a0f3c9-2577-4639-b85a-fa1474a60d6a",
          "display": "Pelayo Casal"
        },
        "effectiveDateTime": "2020-01-16T05:38:59Z",
        "specimen": {
          "reference": "urn:uuid:30fb0ce4-259c-4431-93d9-0900317c1dac"
        }
      }
    },
    {
      "fullUrl": "urn:uuid:45d7eb2a-5c58-4b57-a183-10cf134ba796",
      "resource": {
        "resourceType": "Observation",
        "id": "45d7eb2a-5c58-4b57-a183-10cf134ba796",
        "meta": {
          "profile": [
            "http://hl7.eu/fhir/laboratory/StructureDefinition/Observation-resultslab-eu-lab"
          ]
        },
        "performer": [
          {
            "display": "The Central European Lab"
          }
        ],
        "category": [
          {
            "coding": [
              {
                "system": "http://terminology.hl7.org/CodeSystem/observation-category",
                "code": "laboratory"
              }
            ]
          }
        ],
        "code": {
          "coding": [
            {
              "code": "5792-7",
              "system": "http://loinc.org",
              "display": "Glucose [Mass/volume] in Urine by Test strip"
            }
          ],
          "text": "Glucose [Mass/volume] in Urine by Test strip"
        },
        "valueQuantity": {
          "system": "http://unitsofmeasure.org",
          "value": 0.8,
          "unit": "mg/dL",
          "code": "mg/dL"
        },
        "referenceRange": [
          {
            "low": {
              "value": 0.8,
              "code": "mg/dL",
              "system": "http://unitsofmeasure.org"
            }
          },
          {
            "high": {
              "value": 0,
              "code": "mg/dL",
              "system": "http://unitsofmeasure.org"
            }
          }
        ],
        "interpretation": [
          {
            "coding": [
              {
                "code": "H",
                "system": "http://terminology.hl7.org/CodeSystem/v3-ObservationInterpretation",
                "display": "High"
              }
            ]
          }
        ],
        "text": {
          "status": "generated",
          "div": "<div xmlns=\"http://www.w3.org/1999/xhtml\"><table class=\"hl7__eu__lab__report\"><tr><th>Test</th><th>16-Jan-2020</th><th>Reference&#xA0;Range</th><th>Unit</th></tr><tr><td>Glucose [Mass/volume] in Urine by Test strip</td><td>0.8</td><td>0.8 - 0</td><td>H</td><td>mg/dL</td></tr></table></div>"
        },
        "status": "final",
        "subject": {
          "reference": "urn:uuid:c3a0f3c9-2577-4639-b85a-fa1474a60d6a",
          "display": "Pelayo Casal"
        },
        "effectiveDateTime": "2020-01-16T05:38:59Z",
        "specimen": {
          "reference": "urn:uuid:30fb0ce4-259c-4431-93d9-0900317c1dac"
        }
      }
    },
    {
      "fullUrl": "urn:uuid:2a20e760-81ad-4872-8987-5e251c4b6632",
      "resource": {
        "resourceType": "Observation",
        "id": "2a20e760-81ad-4872-8987-5e251c4b6632",
        "meta": {
          "profile": [
            "http://hl7.eu/fhir/laboratory/StructureDefinition/Observation-resultslab-eu-lab"
          ]
        },
        "performer": [
          {
            "display": "The Central European Lab"
          }
        ],
        "category": [
          {
            "coding": [
              {
                "system": "http://terminology.hl7.org/CodeSystem/observation-category",
                "code": "laboratory"
              }
            ]
          }
        ],
        "code": {
          "coding": [
            {
              "code": "25428-4",
              "system": "http://loinc.org",
              "display": "Glucose [Presence] in Urine by Test strip"
            }
          ],
          "text": "Glucose [Presence] in Urine by Test strip"
        },
        "text": {
          "status": "generated",
          "div": "<div xmlns=\"http://www.w3.org/1999/xhtml\"><table class=\"hl7__eu__lab__report\"><tr><th>Test</th><th>16-Jan-2020</th><th>Reference&#xA0;Range</th><th>Unit</th></tr><tr><td>Glucose [Presence] in Urine by Test strip</td></tr></table></div>"
        },
        "status": "final",
        "subject": {
          "reference": "urn:uuid:c3a0f3c9-2577-4639-b85a-fa1474a60d6a",
          "display": "Pelayo Casal"
        },
        "effectiveDateTime": "2020-01-16T05:38:59Z",
        "specimen": {
          "reference": "urn:uuid:30fb0ce4-259c-4431-93d9-0900317c1dac"
        }
      }
    },
    {
      "fullUrl": "urn:uuid:a425f55b-c26c-4943-aa6f-68cef647d028",
      "resource": {
        "resourceType": "Observation",
        "id": "a425f55b-c26c-4943-aa6f-68cef647d028",
        "meta": {
          "profile": [
            "http://hl7.eu/fhir/laboratory/StructureDefinition/Observation-resultslab-eu-lab"
          ]
        },
        "performer": [
          {
            "display": "The Central European Lab"
          }
        ],
        "category": [
          {
            "coding": [
              {
                "system": "http://terminology.hl7.org/CodeSystem/observation-category",
                "code": "laboratory"
              }
            ]
          }
        ],
        "code": {
          "coding": [
            {
              "code": "20505-4",
              "system": "http://loinc.org",
              "display": "Bilirubin.total [Mass/volume] in Urine by Test strip"
            }
          ],
          "text": "Bilirubin.total [Mass/volume] in Urine by Test strip"
        },
        "valueQuantity": {
          "system": "http://unitsofmeasure.org",
          "value": 1.3,
          "unit": "mg/dL",
          "code": "mg/dL"
        },
        "referenceRange": [
          {
            "low": {
              "value": 0.2,
              "code": "mg/dL",
              "system": "http://unitsofmeasure.org"
            }
          },
          {
            "high": {
              "value": 1.5,
              "code": "mg/dL",
              "system": "http://unitsofmeasure.org"
            }
          }
        ],
        "text": {
          "status": "generated",
          "div": "<div xmlns=\"http://www.w3.org/1999/xhtml\"><table class=\"hl7__eu__lab__report\"><tr><th>Test</th><th>16-Jan-2020</th><th>Reference&#xA0;Range</th><th>Unit</th></tr><tr><td>Bilirubin.total [Mass/volume] in Urine by Test strip</td><td>1.3</td><td>0.2 - 1.5</td><td></td><td>mg/dL</td></tr></table></div>"
        },
        "status": "final",
        "subject": {
          "reference": "urn:uuid:c3a0f3c9-2577-4639-b85a-fa1474a60d6a",
          "display": "Pelayo Casal"
        },
        "effectiveDateTime": "2020-01-16T05:38:59Z",
        "specimen": {
          "reference": "urn:uuid:30fb0ce4-259c-4431-93d9-0900317c1dac"
        }
      }
    },
    {
      "fullUrl": "urn:uuid:a2d90dba-e41f-40c5-a976-2236ad662a97",
      "resource": {
        "resourceType": "Observation",
        "id": "a2d90dba-e41f-40c5-a976-2236ad662a97",
        "meta": {
          "profile": [
            "http://hl7.eu/fhir/laboratory/StructureDefinition/Observation-resultslab-eu-lab"
          ]
        },
        "performer": [
          {
            "display": "The Central European Lab"
          }
        ],
        "category": [
          {
            "coding": [
              {
                "system": "http://terminology.hl7.org/CodeSystem/observation-category",
                "code": "laboratory"
              }
            ]
          }
        ],
        "code": {
          "coding": [
            {
              "code": "5770-3",
              "system": "http://loinc.org",
              "display": "Bilirubin.total [Presence] in Urine by Test strip"
            }
          ],
          "text": "Bilirubin.total [Presence] in Urine by Test strip"
        },
        "text": {
          "status": "generated",
          "div": "<div xmlns=\"http://www.w3.org/1999/xhtml\"><table class=\"hl7__eu__lab__report\"><tr><th>Test</th><th>16-Jan-2020</th><th>Reference&#xA0;Range</th><th>Unit</th></tr><tr><td>Bilirubin.total [Presence] in Urine by Test strip</td></tr></table></div>"
        },
        "status": "final",
        "subject": {
          "reference": "urn:uuid:c3a0f3c9-2577-4639-b85a-fa1474a60d6a",
          "display": "Pelayo Casal"
        },
        "effectiveDateTime": "2020-01-16T05:38:59Z",
        "specimen": {
          "reference": "urn:uuid:30fb0ce4-259c-4431-93d9-0900317c1dac"
        }
      }
    },
    {
      "fullUrl": "urn:uuid:8b644121-62ed-400f-bccd-da7833386662",
      "resource": {
        "resourceType": "Observation",
        "id": "8b644121-62ed-400f-bccd-da7833386662",
        "meta": {
          "profile": [
            "http://hl7.eu/fhir/laboratory/StructureDefinition/Observation-resultslab-eu-lab"
          ]
        },
        "performer": [
          {
            "display": "The Central European Lab"
          }
        ],
        "category": [
          {
            "coding": [
              {
                "system": "http://terminology.hl7.org/CodeSystem/observation-category",
                "code": "laboratory"
              }
            ]
          }
        ],
        "code": {
          "coding": [
            {
              "code": "5797-6",
              "system": "http://loinc.org",
              "display": "Ketones [Mass/volume] in Urine by Test strip"
            }
          ],
          "text": "Ketones [Mass/volume] in Urine by Test strip"
        },
        "valueQuantity": {
          "system": "http://unitsofmeasure.org",
          "value": 10.7,
          "unit": "mg/dL",
          "code": "mg/dL"
        },
        "referenceRange": [
          {
            "low": {
              "value": 0,
              "code": "mg/dL",
              "system": "http://unitsofmeasure.org"
            }
          },
          {
            "high": {
              "value": 4,
              "code": "mg/dL",
              "system": "http://unitsofmeasure.org"
            }
          }
        ],
        "interpretation": [
          {
            "coding": [
              {
                "code": "H",
                "system": "http://terminology.hl7.org/CodeSystem/v3-ObservationInterpretation",
                "display": "High"
              }
            ]
          }
        ],
        "text": {
          "status": "generated",
          "div": "<div xmlns=\"http://www.w3.org/1999/xhtml\"><table class=\"hl7__eu__lab__report\"><tr><th>Test</th><th>16-Jan-2020</th><th>Reference&#xA0;Range</th><th>Unit</th></tr><tr><td>Ketones [Mass/volume] in Urine by Test strip</td><td>10.7</td><td>0 - 4</td><td>H</td><td>mg/dL</td></tr></table></div>"
        },
        "status": "final",
        "subject": {
          "reference": "urn:uuid:c3a0f3c9-2577-4639-b85a-fa1474a60d6a",
          "display": "Pelayo Casal"
        },
        "effectiveDateTime": "2020-01-16T05:38:59Z",
        "specimen": {
          "reference": "urn:uuid:30fb0ce4-259c-4431-93d9-0900317c1dac"
        }
      }
    },
    {
      "fullUrl": "urn:uuid:717f415b-c6bb-43b6-b092-bbfad70960a6",
      "resource": {
        "resourceType": "Observation",
        "id": "717f415b-c6bb-43b6-b092-bbfad70960a6",
        "meta": {
          "profile": [
            "http://hl7.eu/fhir/laboratory/StructureDefinition/Observation-resultslab-eu-lab"
          ]
        },
        "performer": [
          {
            "display": "The Central European Lab"
          }
        ],
        "category": [
          {
            "coding": [
              {
                "system": "http://terminology.hl7.org/CodeSystem/observation-category",
                "code": "laboratory"
              }
            ]
          }
        ],
        "code": {
          "coding": [
            {
              "code": "2514-8",
              "system": "http://loinc.org",
              "display": "Ketones [Presence] in Urine by Test strip"
            }
          ],
          "text": "Ketones [Presence] in Urine by Test strip"
        },
        "text": {
          "status": "generated",
          "div": "<div xmlns=\"http://www.w3.org/1999/xhtml\"><table class=\"hl7__eu__lab__report\"><tr><th>Test</th><th>16-Jan-2020</th><th>Reference&#xA0;Range</th><th>Unit</th></tr><tr><td>Ketones [Presence] in Urine by Test strip</td></tr></table></div>"
        },
        "status": "final",
        "subject": {
          "reference": "urn:uuid:c3a0f3c9-2577-4639-b85a-fa1474a60d6a",
          "display": "Pelayo Casal"
        },
        "effectiveDateTime": "2020-01-16T05:38:59Z",
        "specimen": {
          "reference": "urn:uuid:30fb0ce4-259c-4431-93d9-0900317c1dac"
        }
      }
    },
    {
      "fullUrl": "urn:uuid:b6835416-c505-4c54-9926-112e0e7b263c",
      "resource": {
        "resourceType": "Observation",
        "id": "b6835416-c505-4c54-9926-112e0e7b263c",
        "meta": {
          "profile": [
            "http://hl7.eu/fhir/laboratory/StructureDefinition/Observation-resultslab-eu-lab"
          ]
        },
        "performer": [
          {
            "display": "The Central European Lab"
          }
        ],
        "category": [
          {
            "coding": [
              {
                "system": "http://terminology.hl7.org/CodeSystem/observation-category",
                "code": "laboratory"
              }
            ]
          }
        ],
        "code": {
          "coding": [
            {
              "code": "5811-5",
              "system": "http://loinc.org",
              "display": "Specific gravity of Urine by Test strip"
            }
          ],
          "text": "Specific gravity of Urine by Test strip"
        },
        "valueQuantity": {
          "system": "http://unitsofmeasure.org",
          "value": 1,
          "unit": "{nominal}",
          "code": "{nominal}"
        },
        "referenceRange": [
          {
            "low": {
              "value": 1.01,
              "code": "g/mL",
              "system": "http://unitsofmeasure.org"
            }
          },
          {
            "high": {
              "value": 1.03,
              "code": "g/mL",
              "system": "http://unitsofmeasure.org"
            }
          }
        ],
        "interpretation": [
          {
            "coding": [
              {
                "code": "L",
                "system": "http://terminology.hl7.org/CodeSystem/v3-ObservationInterpretation",
                "display": "Low"
              }
            ]
          }
        ],
        "text": {
          "status": "generated",
          "div": "<div xmlns=\"http://www.w3.org/1999/xhtml\"><table class=\"hl7__eu__lab__report\"><tr><th>Test</th><th>16-Jan-2020</th><th>Reference&#xA0;Range</th><th>Unit</th></tr><tr><td>Specific gravity of Urine by Test strip</td><td>1.0</td><td>1.01 - 1.03</td><td>L</td><td>{nominal}</td></tr></table></div>"
        },
        "status": "final",
        "subject": {
          "reference": "urn:uuid:c3a0f3c9-2577-4639-b85a-fa1474a60d6a",
          "display": "Pelayo Casal"
        },
        "effectiveDateTime": "2020-01-16T05:38:59Z",
        "specimen": {
          "reference": "urn:uuid:30fb0ce4-259c-4431-93d9-0900317c1dac"
        }
      }
    },
    {
      "fullUrl": "urn:uuid:4752a967-84f0-4be7-892b-2232d6658e18",
      "resource": {
        "resourceType": "Observation",
        "id": "4752a967-84f0-4be7-892b-2232d6658e18",
        "meta": {
          "profile": [
            "http://hl7.eu/fhir/laboratory/StructureDefinition/Observation-resultslab-eu-lab"
          ]
        },
        "performer": [
          {
            "display": "The Central European Lab"
          }
        ],
        "category": [
          {
            "coding": [
              {
                "system": "http://terminology.hl7.org/CodeSystem/observation-category",
                "code": "laboratory"
              }
            ]
          }
        ],
        "code": {
          "coding": [
            {
              "code": "5803-2",
              "system": "http://loinc.org",
              "display": "pH of Urine by Test strip"
            }
          ],
          "text": "pH of Urine by Test strip"
        },
        "valueQuantity": {
          "system": "http://unitsofmeasure.org",
          "value": 6.2,
          "unit": "pH",
          "code": "pH"
        },
        "referenceRange": [
          {
            "low": {
              "value": 4.5,
              "code": "pH",
              "system": "http://unitsofmeasure.org"
            }
          },
          {
            "high": {
              "value": 7.5,
              "code": "pH",
              "system": "http://unitsofmeasure.org"
            }
          }
        ],
        "text": {
          "status": "generated",
          "div": "<div xmlns=\"http://www.w3.org/1999/xhtml\"><table class=\"hl7__eu__lab__report\"><tr><th>Test</th><th>16-Jan-2020</th><th>Reference&#xA0;Range</th><th>Unit</th></tr><tr><td>pH of Urine by Test strip</td><td>6.2</td><td>4.5 - 7.5</td><td></td><td>pH</td></tr></table></div>"
        },
        "status": "final",
        "subject": {
          "reference": "urn:uuid:c3a0f3c9-2577-4639-b85a-fa1474a60d6a",
          "display": "Pelayo Casal"
        },
        "effectiveDateTime": "2020-01-16T05:38:59Z",
        "specimen": {
          "reference": "urn:uuid:30fb0ce4-259c-4431-93d9-0900317c1dac"
        }
      }
    },
    {
      "fullUrl": "urn:uuid:4154383a-3664-4f42-aff0-74f3f9bda674",
      "resource": {
        "resourceType": "Observation",
        "id": "4154383a-3664-4f42-aff0-74f3f9bda674",
        "meta": {
          "profile": [
            "http://hl7.eu/fhir/laboratory/StructureDefinition/Observation-resultslab-eu-lab"
          ]
        },
        "performer": [
          {
            "display": "The Central European Lab"
          }
        ],
        "category": [
          {
            "coding": [
              {
                "system": "http://terminology.hl7.org/CodeSystem/observation-category",
                "code": "laboratory"
              }
            ]
          }
        ],
        "code": {
          "coding": [
            {
              "code": "5804-0",
              "system": "http://loinc.org",
              "display": "Protein [Mass/volume] in Urine by Test strip"
            }
          ],
          "text": "Protein [Mass/volume] in Urine by Test strip"
        },
        "valueQuantity": {
          "system": "http://unitsofmeasure.org",
          "value": 186.4,
          "unit": "mg/dL",
          "code": "mg/dL"
        },
        "referenceRange": [
          {
            "low": {
              "value": 0,
              "code": "mg/dL",
              "system": "http://unitsofmeasure.org"
            }
          },
          {
            "high": {
              "value": 150,
              "code": "mg/dL",
              "system": "http://unitsofmeasure.org"
            }
          }
        ],
        "interpretation": [
          {
            "coding": [
              {
                "code": "H",
                "system": "http://terminology.hl7.org/CodeSystem/v3-ObservationInterpretation",
                "display": "High"
              }
            ]
          }
        ],
        "text": {
          "status": "generated",
          "div": "<div xmlns=\"http://www.w3.org/1999/xhtml\"><table class=\"hl7__eu__lab__report\"><tr><th>Test</th><th>16-Jan-2020</th><th>Reference&#xA0;Range</th><th>Unit</th></tr><tr><td>Protein [Mass/volume] in Urine by Test strip</td><td>186.4</td><td>0 - 150</td><td>H</td><td>mg/dL</td></tr></table></div>"
        },
        "status": "final",
        "subject": {
          "reference": "urn:uuid:c3a0f3c9-2577-4639-b85a-fa1474a60d6a",
          "display": "Pelayo Casal"
        },
        "effectiveDateTime": "2020-01-16T05:38:59Z",
        "specimen": {
          "reference": "urn:uuid:30fb0ce4-259c-4431-93d9-0900317c1dac"
        }
      }
    },
    {
      "fullUrl": "urn:uuid:03fadbb6-3792-41f6-956e-a0f50102b239",
      "resource": {
        "resourceType": "Observation",
        "id": "03fadbb6-3792-41f6-956e-a0f50102b239",
        "meta": {
          "profile": [
            "http://hl7.eu/fhir/laboratory/StructureDefinition/Observation-resultslab-eu-lab"
          ]
        },
        "performer": [
          {
            "display": "The Central European Lab"
          }
        ],
        "category": [
          {
            "coding": [
              {
                "system": "http://terminology.hl7.org/CodeSystem/observation-category",
                "code": "laboratory"
              }
            ]
          }
        ],
        "code": {
          "coding": [
            {
              "code": "20454-5",
              "system": "http://loinc.org",
              "display": "Protein [Presence] in Urine by Test strip"
            }
          ],
          "text": "Protein [Presence] in Urine by Test strip"
        },
        "text": {
          "status": "generated",
          "div": "<div xmlns=\"http://www.w3.org/1999/xhtml\"><table class=\"hl7__eu__lab__report\"><tr><th>Test</th><th>16-Jan-2020</th><th>Reference&#xA0;Range</th><th>Unit</th></tr><tr><td>Protein [Presence] in Urine by Test strip</td></tr></table></div>"
        },
        "status": "final",
        "subject": {
          "reference": "urn:uuid:c3a0f3c9-2577-4639-b85a-fa1474a60d6a",
          "display": "Pelayo Casal"
        },
        "effectiveDateTime": "2020-01-16T05:38:59Z",
        "specimen": {
          "reference": "urn:uuid:30fb0ce4-259c-4431-93d9-0900317c1dac"
        }
      }
    },
    {
      "fullUrl": "urn:uuid:f4fc73bf-6619-4526-9097-09503f524cd1",
      "resource": {
        "resourceType": "Observation",
        "id": "f4fc73bf-6619-4526-9097-09503f524cd1",
        "meta": {
          "profile": [
            "http://hl7.eu/fhir/laboratory/StructureDefinition/Observation-resultslab-eu-lab"
          ]
        },
        "performer": [
          {
            "display": "The Central European Lab"
          }
        ],
        "category": [
          {
            "coding": [
              {
                "system": "http://terminology.hl7.org/CodeSystem/observation-category",
                "code": "laboratory"
              }
            ]
          }
        ],
        "code": {
          "coding": [
            {
              "code": "5802-4",
              "system": "http://loinc.org",
              "display": "Nitrite [Presence] in Urine by Test strip"
            }
          ],
          "text": "Nitrite [Presence] in Urine by Test strip"
        },
        "text": {
          "status": "generated",
          "div": "<div xmlns=\"http://www.w3.org/1999/xhtml\"><table class=\"hl7__eu__lab__report\"><tr><th>Test</th><th>16-Jan-2020</th><th>Reference&#xA0;Range</th><th>Unit</th></tr><tr><td>Nitrite [Presence] in Urine by Test strip</td></tr></table></div>"
        },
        "status": "final",
        "subject": {
          "reference": "urn:uuid:c3a0f3c9-2577-4639-b85a-fa1474a60d6a",
          "display": "Pelayo Casal"
        },
        "effectiveDateTime": "2020-01-16T05:38:59Z",
        "specimen": {
          "reference": "urn:uuid:30fb0ce4-259c-4431-93d9-0900317c1dac"
        }
      }
    },
    {
      "fullUrl": "urn:uuid:b14051ad-51d2-4d46-80c5-0a89fa9a2751",
      "resource": {
        "resourceType": "Observation",
        "id": "b14051ad-51d2-4d46-80c5-0a89fa9a2751",
        "meta": {
          "profile": [
            "http://hl7.eu/fhir/laboratory/StructureDefinition/Observation-resultslab-eu-lab"
          ]
        },
        "performer": [
          {
            "display": "The Central European Lab"
          }
        ],
        "category": [
          {
            "coding": [
              {
                "system": "http://terminology.hl7.org/CodeSystem/observation-category",
                "code": "laboratory"
              }
            ]
          }
        ],
        "code": {
          "coding": [
            {
              "code": "5794-3",
              "system": "http://loinc.org",
              "display": "Hemoglobin [Presence] in Urine by Test strip"
            }
          ],
          "text": "Hemoglobin [Presence] in Urine by Test strip"
        },
        "text": {
          "status": "generated",
          "div": "<div xmlns=\"http://www.w3.org/1999/xhtml\"><table class=\"hl7__eu__lab__report\"><tr><th>Test</th><th>16-Jan-2020</th><th>Reference&#xA0;Range</th><th>Unit</th></tr><tr><td>Hemoglobin [Presence] in Urine by Test strip</td></tr></table></div>"
        },
        "status": "final",
        "subject": {
          "reference": "urn:uuid:c3a0f3c9-2577-4639-b85a-fa1474a60d6a",
          "display": "Pelayo Casal"
        },
        "effectiveDateTime": "2020-01-16T05:38:59Z",
        "specimen": {
          "reference": "urn:uuid:30fb0ce4-259c-4431-93d9-0900317c1dac"
        }
      }
    },
    {
      "fullUrl": "urn:uuid:252e5854-23d9-48d4-974b-0a348adbc5e5",
      "resource": {
        "resourceType": "Observation",
        "id": "252e5854-23d9-48d4-974b-0a348adbc5e5",
        "meta": {
          "profile": [
            "http://hl7.eu/fhir/laboratory/StructureDefinition/Observation-resultslab-eu-lab"
          ]
        },
        "performer": [
          {
            "display": "The Central European Lab"
          }
        ],
        "category": [
          {
            "coding": [
              {
                "system": "http://terminology.hl7.org/CodeSystem/observation-category",
                "code": "laboratory"
              }
            ]
          }
        ],
        "code": {
          "coding": [
            {
              "code": "5799-2",
              "system": "http://loinc.org",
              "display": "Leukocyte esterase [Presence] in Urine by Test strip"
            }
          ],
          "text": "Leukocyte esterase [Presence] in Urine by Test strip"
        },
        "text": {
          "status": "generated",
          "div": "<div xmlns=\"http://www.w3.org/1999/xhtml\"><table class=\"hl7__eu__lab__report\"><tr><th>Test</th><th>16-Jan-2020</th><th>Reference&#xA0;Range</th><th>Unit</th></tr><tr><td>Leukocyte esterase [Presence] in Urine by Test strip</td></tr></table></div>"
        },
        "status": "final",
        "subject": {
          "reference": "urn:uuid:c3a0f3c9-2577-4639-b85a-fa1474a60d6a",
          "display": "Pelayo Casal"
        },
        "effectiveDateTime": "2020-01-16T05:38:59Z",
        "specimen": {
          "reference": "urn:uuid:30fb0ce4-259c-4431-93d9-0900317c1dac"
        }
      }
    },
    {
      "fullUrl": "urn:uuid:d77429b9-f948-4716-a880-1a0ed1fb3eeb",
      "resource": {
        "resourceType": "Observation",
        "id": "d77429b9-f948-4716-a880-1a0ed1fb3eeb",
        "meta": {
          "profile": [
            "http://hl7.eu/fhir/laboratory/StructureDefinition/Observation-resultslab-eu-lab"
          ]
        },
        "performer": [
          {
            "display": "The Central European Lab"
          }
        ],
        "category": [
          {
            "coding": [
              {
                "system": "http://terminology.hl7.org/CodeSystem/observation-category",
                "code": "laboratory"
              }
            ]
          }
        ],
        "code": {
          "coding": [
            {
              "code": "4548-4",
              "system": "http://loinc.org",
              "display": "Hemoglobin A1c/Hemoglobin.total in Blood"
            }
          ],
          "text": "Hemoglobin A1c/Hemoglobin.total in Blood"
        },
        "valueQuantity": {
          "system": "http://unitsofmeasure.org",
          "value": 3.1,
          "unit": "%",
          "code": "%"
        },
        "referenceRange": [
          {
            "low": {
              "value": 4.5,
              "code": "%",
              "system": "http://unitsofmeasure.org"
            }
          },
          {
            "high": {
              "value": 6.4,
              "code": "%",
              "system": "http://unitsofmeasure.org"
            }
          }
        ],
        "interpretation": [
          {
            "coding": [
              {
                "code": "L",
                "system": "http://terminology.hl7.org/CodeSystem/v3-ObservationInterpretation",
                "display": "Low"
              }
            ]
          }
        ],
        "text": {
          "status": "generated",
          "div": "<div xmlns=\"http://www.w3.org/1999/xhtml\"><table class=\"hl7__eu__lab__report\"><tr><th>Test</th><th>16-Jan-2020</th><th>Reference&#xA0;Range</th><th>Unit</th></tr><tr><td>Hemoglobin A1c/Hemoglobin.total in Blood</td><td>3.1</td><td>4.5 - 6.4</td><td>L</td><td>%</td></tr></table></div>"
        },
        "status": "final",
        "subject": {
          "reference": "urn:uuid:c3a0f3c9-2577-4639-b85a-fa1474a60d6a",
          "display": "Pelayo Casal"
        },
        "effectiveDateTime": "2020-01-16T05:38:59Z",
        "specimen": {
          "reference": "urn:uuid:31584cb5-d991-474a-8f95-5d1e0928e01e"
        }
      }
    },
    {
      "fullUrl": "urn:uuid:298c3896-d289-4882-80a5-15f72bd6a7bb",
      "resource": {
        "resourceType": "Observation",
        "id": "298c3896-d289-4882-80a5-15f72bd6a7bb",
        "meta": {
          "profile": [
            "http://hl7.eu/fhir/laboratory/StructureDefinition/Observation-resultslab-eu-lab"
          ]
        },
        "performer": [
          {
            "display": "The Central European Lab"
          }
        ],
        "category": [
          {
            "coding": [
              {
                "system": "http://terminology.hl7.org/CodeSystem/observation-category",
                "code": "laboratory"
              }
            ]
          }
        ],
        "code": {
          "coding": [
            {
              "code": "2339-0",
              "system": "http://loinc.org",
              "display": "Glucose [Mass/volume] in Blood"
            }
          ],
          "text": "Glucose [Mass/volume] in Blood"
        },
        "valueQuantity": {
          "system": "http://unitsofmeasure.org",
          "value": 76.3,
          "unit": "mg/dL",
          "code": "mg/dL"
        },
        "referenceRange": [
          {
            "low": {
              "value": 70,
              "code": "mg/dL",
              "system": "http://unitsofmeasure.org"
            }
          },
          {
            "high": {
              "value": 140,
              "code": "mg/dL",
              "system": "http://unitsofmeasure.org"
            }
          }
        ],
        "text": {
          "status": "generated",
          "div": "<div xmlns=\"http://www.w3.org/1999/xhtml\"><table class=\"hl7__eu__lab__report\"><tr><th>Test</th><th>16-Jan-2020</th><th>Reference&#xA0;Range</th><th>Unit</th></tr><tr><td>Glucose [Mass/volume] in Blood</td><td>76.3</td><td>70 - 140</td><td></td><td>mg/dL</td></tr></table></div>"
        },
        "status": "final",
        "subject": {
          "reference": "urn:uuid:c3a0f3c9-2577-4639-b85a-fa1474a60d6a",
          "display": "Pelayo Casal"
        },
        "effectiveDateTime": "2020-01-16T05:38:59Z",
        "specimen": {
          "reference": "urn:uuid:31584cb5-d991-474a-8f95-5d1e0928e01e"
        }
      }
    },
    {
      "fullUrl": "urn:uuid:28b2bf52-f2a9-4ad0-8424-cb0ccbf4e9d8",
      "resource": {
        "resourceType": "Observation",
        "id": "28b2bf52-f2a9-4ad0-8424-cb0ccbf4e9d8",
        "meta": {
          "profile": [
            "http://hl7.eu/fhir/laboratory/StructureDefinition/Observation-resultslab-eu-lab"
          ]
        },
        "performer": [
          {
            "display": "The Central European Lab"
          }
        ],
        "category": [
          {
            "coding": [
              {
                "system": "http://terminology.hl7.org/CodeSystem/observation-category",
                "code": "laboratory"
              }
            ]
          }
        ],
        "code": {
          "coding": [
            {
              "code": "6299-2",
              "system": "http://loinc.org",
              "display": "Urea nitrogen [Mass/volume] in Blood"
            }
          ],
          "text": "Urea nitrogen [Mass/volume] in Blood"
        },
        "valueQuantity": {
          "system": "http://unitsofmeasure.org",
          "value": 17.2,
          "unit": "mg/dL",
          "code": "mg/dL"
        },
        "referenceRange": [
          {
            "low": {
              "value": 7,
              "code": "mg/dL",
              "system": "http://unitsofmeasure.org"
            }
          },
          {
            "high": {
              "value": 25,
              "code": "mg/dL",
              "system": "http://unitsofmeasure.org"
            }
          }
        ],
        "text": {
          "status": "generated",
          "div": "<div xmlns=\"http://www.w3.org/1999/xhtml\"><table class=\"hl7__eu__lab__report\"><tr><th>Test</th><th>16-Jan-2020</th><th>Reference&#xA0;Range</th><th>Unit</th></tr><tr><td>Urea nitrogen [Mass/volume] in Blood</td><td>17.2</td><td>7 - 25</td><td></td><td>mg/dL</td></tr></table></div>"
        },
        "status": "final",
        "subject": {
          "reference": "urn:uuid:c3a0f3c9-2577-4639-b85a-fa1474a60d6a",
          "display": "Pelayo Casal"
        },
        "effectiveDateTime": "2020-01-16T05:38:59Z",
        "specimen": {
          "reference": "urn:uuid:31584cb5-d991-474a-8f95-5d1e0928e01e"
        }
      }
    },
    {
      "fullUrl": "urn:uuid:739bf06c-eb65-4c9c-af91-cdfa0fa36786",
      "resource": {
        "resourceType": "Observation",
        "id": "739bf06c-eb65-4c9c-af91-cdfa0fa36786",
        "meta": {
          "profile": [
            "http://hl7.eu/fhir/laboratory/StructureDefinition/Observation-resultslab-eu-lab"
          ]
        },
        "performer": [
          {
            "display": "The Central European Lab"
          }
        ],
        "category": [
          {
            "coding": [
              {
                "system": "http://terminology.hl7.org/CodeSystem/observation-category",
                "code": "laboratory"
              }
            ]
          }
        ],
        "code": {
          "coding": [
            {
              "code": "38483-4",
              "system": "http://loinc.org",
              "display": "Creatinine [Mass/volume] in Blood"
            }
          ],
          "text": "Creatinine [Mass/volume] in Blood"
        },
        "valueQuantity": {
          "system": "http://unitsofmeasure.org",
          "value": 1.7,
          "unit": "mg/dL",
          "code": "mg/dL"
        },
        "referenceRange": [
          {
            "low": {
              "value": 0.9,
              "code": "mg/dL",
              "system": "http://unitsofmeasure.org"
            }
          },
          {
            "high": {
              "value": 1.3,
              "code": "mg/dL",
              "system": "http://unitsofmeasure.org"
            }
          }
        ],
        "interpretation": [
          {
            "coding": [
              {
                "code": "H",
                "system": "http://terminology.hl7.org/CodeSystem/v3-ObservationInterpretation",
                "display": "High"
              }
            ]
          }
        ],
        "text": {
          "status": "generated",
          "div": "<div xmlns=\"http://www.w3.org/1999/xhtml\"><table class=\"hl7__eu__lab__report\"><tr><th>Test</th><th>16-Jan-2020</th><th>Reference&#xA0;Range</th><th>Unit</th></tr><tr><td>Creatinine [Mass/volume] in Blood</td><td>1.7</td><td>0.9 - 1.3</td><td>H</td><td>mg/dL</td></tr></table></div>"
        },
        "status": "final",
        "subject": {
          "reference": "urn:uuid:c3a0f3c9-2577-4639-b85a-fa1474a60d6a",
          "display": "Pelayo Casal"
        },
        "effectiveDateTime": "2020-01-16T05:38:59Z",
        "specimen": {
          "reference": "urn:uuid:31584cb5-d991-474a-8f95-5d1e0928e01e"
        }
      }
    },
    {
      "fullUrl": "urn:uuid:1b5db946-7917-498c-bd2a-bbe8e41cb25a",
      "resource": {
        "resourceType": "Observation",
        "id": "1b5db946-7917-498c-bd2a-bbe8e41cb25a",
        "meta": {
          "profile": [
            "http://hl7.eu/fhir/laboratory/StructureDefinition/Observation-resultslab-eu-lab"
          ]
        },
        "performer": [
          {
            "display": "The Central European Lab"
          }
        ],
        "category": [
          {
            "coding": [
              {
                "system": "http://terminology.hl7.org/CodeSystem/observation-category",
                "code": "laboratory"
              }
            ]
          }
        ],
        "code": {
          "coding": [
            {
              "code": "49765-1",
              "system": "http://loinc.org",
              "display": "Calcium [Mass/volume] in Blood"
            }
          ],
          "text": "Calcium [Mass/volume] in Blood"
        },
        "valueQuantity": {
          "system": "http://unitsofmeasure.org",
          "value": 9,
          "unit": "mg/dL",
          "code": "mg/dL"
        },
        "referenceRange": [
          {
            "low": {
              "value": 8.6,
              "code": "mg/dL",
              "system": "http://unitsofmeasure.org"
            }
          },
          {
            "high": {
              "value": 10.2,
              "code": "mg/dL",
              "system": "http://unitsofmeasure.org"
            }
          }
        ],
        "text": {
          "status": "generated",
          "div": "<div xmlns=\"http://www.w3.org/1999/xhtml\"><table class=\"hl7__eu__lab__report\"><tr><th>Test</th><th>16-Jan-2020</th><th>Reference&#xA0;Range</th><th>Unit</th></tr><tr><td>Calcium [Mass/volume] in Blood</td><td>9.0</td><td>8.6 - 10.2</td><td></td><td>mg/dL</td></tr></table></div>"
        },
        "status": "final",
        "subject": {
          "reference": "urn:uuid:c3a0f3c9-2577-4639-b85a-fa1474a60d6a",
          "display": "Pelayo Casal"
        },
        "effectiveDateTime": "2020-01-16T05:38:59Z",
        "specimen": {
          "reference": "urn:uuid:31584cb5-d991-474a-8f95-5d1e0928e01e"
        }
      }
    },
    {
      "fullUrl": "urn:uuid:539b4910-a6af-45cd-b5b7-dfe7f1688170",
      "resource": {
        "resourceType": "Observation",
        "id": "539b4910-a6af-45cd-b5b7-dfe7f1688170",
        "meta": {
          "profile": [
            "http://hl7.eu/fhir/laboratory/StructureDefinition/Observation-resultslab-eu-lab"
          ]
        },
        "performer": [
          {
            "display": "The Central European Lab"
          }
        ],
        "category": [
          {
            "coding": [
              {
                "system": "http://terminology.hl7.org/CodeSystem/observation-category",
                "code": "laboratory"
              }
            ]
          }
        ],
        "code": {
          "coding": [
            {
              "code": "2947-0",
              "system": "http://loinc.org",
              "display": "Sodium [Moles/volume] in Blood"
            }
          ],
          "text": "Sodium [Moles/volume] in Blood"
        },
        "valueQuantity": {
          "system": "http://unitsofmeasure.org",
          "value": 141.8,
          "unit": "mmol/L",
          "code": "mmol/L"
        },
        "referenceRange": [
          {
            "low": {
              "value": 135,
              "code": "mmol/L",
              "system": "http://unitsofmeasure.org"
            }
          },
          {
            "high": {
              "value": 145,
              "code": "mmol/L",
              "system": "http://unitsofmeasure.org"
            }
          }
        ],
        "text": {
          "status": "generated",
          "div": "<div xmlns=\"http://www.w3.org/1999/xhtml\"><table class=\"hl7__eu__lab__report\"><tr><th>Test</th><th>16-Jan-2020</th><th>Reference&#xA0;Range</th><th>Unit</th></tr><tr><td>Sodium [Moles/volume] in Blood</td><td>141.8</td><td>135 - 145</td><td></td><td>mmol/L</td></tr></table></div>"
        },
        "status": "final",
        "subject": {
          "reference": "urn:uuid:c3a0f3c9-2577-4639-b85a-fa1474a60d6a",
          "display": "Pelayo Casal"
        },
        "effectiveDateTime": "2020-01-16T05:38:59Z",
        "specimen": {
          "reference": "urn:uuid:31584cb5-d991-474a-8f95-5d1e0928e01e"
        }
      }
    },
    {
      "fullUrl": "urn:uuid:39300f84-162b-4e81-bf5e-183d90a171b2",
      "resource": {
        "resourceType": "Observation",
        "id": "39300f84-162b-4e81-bf5e-183d90a171b2",
        "meta": {
          "profile": [
            "http://hl7.eu/fhir/laboratory/StructureDefinition/Observation-resultslab-eu-lab"
          ]
        },
        "performer": [
          {
            "display": "The Central European Lab"
          }
        ],
        "category": [
          {
            "coding": [
              {
                "system": "http://terminology.hl7.org/CodeSystem/observation-category",
                "code": "laboratory"
              }
            ]
          }
        ],
        "code": {
          "coding": [
            {
              "code": "6298-4",
              "system": "http://loinc.org",
              "display": "Potassium [Moles/volume] in Blood"
            }
          ],
          "text": "Potassium [Moles/volume] in Blood"
        },
        "valueQuantity": {
          "system": "http://unitsofmeasure.org",
          "value": 4.8,
          "unit": "mmol/L",
          "code": "mmol/L"
        },
        "referenceRange": [
          {
            "low": {
              "value": 3.5,
              "code": "mmol/L",
              "system": "http://unitsofmeasure.org"
            }
          },
          {
            "high": {
              "value": 5.1,
              "code": "mmol/L",
              "system": "http://unitsofmeasure.org"
            }
          }
        ],
        "text": {
          "status": "generated",
          "div": "<div xmlns=\"http://www.w3.org/1999/xhtml\"><table class=\"hl7__eu__lab__report\"><tr><th>Test</th><th>16-Jan-2020</th><th>Reference&#xA0;Range</th><th>Unit</th></tr><tr><td>Potassium [Moles/volume] in Blood</td><td>4.8</td><td>3.5 - 5.1</td><td></td><td>mmol/L</td></tr></table></div>"
        },
        "status": "final",
        "subject": {
          "reference": "urn:uuid:c3a0f3c9-2577-4639-b85a-fa1474a60d6a",
          "display": "Pelayo Casal"
        },
        "effectiveDateTime": "2020-01-16T05:38:59Z",
        "specimen": {
          "reference": "urn:uuid:31584cb5-d991-474a-8f95-5d1e0928e01e"
        }
      }
    },
    {
      "fullUrl": "urn:uuid:09f2e1e2-d556-4964-8184-ccfb25a5cb1f",
      "resource": {
        "resourceType": "Observation",
        "id": "09f2e1e2-d556-4964-8184-ccfb25a5cb1f",
        "meta": {
          "profile": [
            "http://hl7.eu/fhir/laboratory/StructureDefinition/Observation-resultslab-eu-lab"
          ]
        },
        "performer": [
          {
            "display": "The Central European Lab"
          }
        ],
        "category": [
          {
            "coding": [
              {
                "system": "http://terminology.hl7.org/CodeSystem/observation-category",
                "code": "laboratory"
              }
            ]
          }
        ],
        "code": {
          "coding": [
            {
              "code": "2069-3",
              "system": "http://loinc.org",
              "display": "Chloride [Moles/volume] in Blood"
            }
          ],
          "text": "Chloride [Moles/volume] in Blood"
        },
        "valueQuantity": {
          "system": "http://unitsofmeasure.org",
          "value": 101.5,
          "unit": "mmol/L",
          "code": "mmol/L"
        },
        "referenceRange": [
          {
            "low": {
              "value": 98,
              "code": "mmol/L",
              "system": "http://unitsofmeasure.org"
            }
          },
          {
            "high": {
              "value": 108,
              "code": "mmol/L",
              "system": "http://unitsofmeasure.org"
            }
          }
        ],
        "text": {
          "status": "generated",
          "div": "<div xmlns=\"http://www.w3.org/1999/xhtml\"><table class=\"hl7__eu__lab__report\"><tr><th>Test</th><th>16-Jan-2020</th><th>Reference&#xA0;Range</th><th>Unit</th></tr><tr><td>Chloride [Moles/volume] in Blood</td><td>101.5</td><td>98 - 108</td><td></td><td>mmol/L</td></tr></table></div>"
        },
        "status": "final",
        "subject": {
          "reference": "urn:uuid:c3a0f3c9-2577-4639-b85a-fa1474a60d6a",
          "display": "Pelayo Casal"
        },
        "effectiveDateTime": "2020-01-16T05:38:59Z",
        "specimen": {
          "reference": "urn:uuid:31584cb5-d991-474a-8f95-5d1e0928e01e"
        }
      }
    },
    {
      "fullUrl": "urn:uuid:a4e95b1e-6b12-4d45-a4f5-adb89789bed0",
      "resource": {
        "resourceType": "Observation",
        "id": "a4e95b1e-6b12-4d45-a4f5-adb89789bed0",
        "meta": {
          "profile": [
            "http://hl7.eu/fhir/laboratory/StructureDefinition/Observation-resultslab-eu-lab"
          ]
        },
        "performer": [
          {
            "display": "The Central European Lab"
          }
        ],
        "category": [
          {
            "coding": [
              {
                "system": "http://terminology.hl7.org/CodeSystem/observation-category",
                "code": "laboratory"
              }
            ]
          }
        ],
        "code": {
          "coding": [
            {
              "code": "20565-8",
              "system": "http://loinc.org",
              "display": "Carbon dioxide, total [Moles/volume] in Blood"
            }
          ],
          "text": "Carbon dioxide, total [Moles/volume] in Blood"
        },
        "valueQuantity": {
          "system": "http://unitsofmeasure.org",
          "value": 22.3,
          "unit": "mmol/L",
          "code": "mmol/L"
        },
        "referenceRange": [
          {
            "low": {
              "value": 22,
              "code": "mmol/L",
              "system": "http://unitsofmeasure.org"
            }
          },
          {
            "high": {
              "value": 32,
              "code": "mmol/L",
              "system": "http://unitsofmeasure.org"
            }
          }
        ],
        "text": {
          "status": "generated",
          "div": "<div xmlns=\"http://www.w3.org/1999/xhtml\"><table class=\"hl7__eu__lab__report\"><tr><th>Test</th><th>16-Jan-2020</th><th>Reference&#xA0;Range</th><th>Unit</th></tr><tr><td>Carbon dioxide, total [Moles/volume] in Blood</td><td>22.3</td><td>22 - 32</td><td></td><td>mmol/L</td></tr></table></div>"
        },
        "status": "final",
        "subject": {
          "reference": "urn:uuid:c3a0f3c9-2577-4639-b85a-fa1474a60d6a",
          "display": "Pelayo Casal"
        },
        "effectiveDateTime": "2020-01-16T05:38:59Z",
        "specimen": {
          "reference": "urn:uuid:31584cb5-d991-474a-8f95-5d1e0928e01e"
        }
      }
    },
    {
      "fullUrl": "urn:uuid:6be2e4a4-376a-41ee-8a4c-e477aa91f23b",
      "resource": {
        "resourceType": "Device",
        "id": "6be2e4a4-376a-41ee-8a4c-e477aa91f23b",
        "deviceName": [
          {
            "name": "SYNDERAI Synthetic Generator",
            "type": "manufacturer-name"
          }
        ],
        "version": [
          {
            "value": "5.0"
          }
        ],
        "text": {
          "status": "generated",
          "div": "<div xmlns=\"http://www.w3.org/1999/xhtml\">SYNDERAI Synthetic Generator v5.0</div>"
        },
        "status": "active\"",
        "distinctIdentifier": "synderai-generator-50",
        "manufacturer": "SYNDERAI Project"
      }
    },
    {
      "fullUrl": "urn:uuid:8f995448-a8c7-4899-ad05-8943df516e61",
      "resource": {
        "resourceType": "Provenance",
        "id": "8f995448-a8c7-4899-ad05-8943df516e61",
        "target": [
          {
            "reference": "Patient/c3a0f3c9-2577-4639-b85a-fa1474a60d6a"
          },
          {
            "reference": "Bundle/2d2eb598-472b-4a3c-89f4-3d6ccf7c9e52"
          },
          {
            "reference": "Composition/ec54dd3b-983d-4314-9518-959bb8a0c368"
          },
          {
            "reference": "PractitionerRole/2f7596a2-8dbd-4177-a985-fc76c446bf4f"
          },
          {
            "reference": "Practitioner/ff9d5ef8-3ca8-4dfe-819e-8d4c116a9cb3"
          },
          {
            "reference": "PractitionerRole/e565431a-e0cd-40c2-be85-35d4bea30677"
          },
          {
            "reference": "Organization/bdea1225-f15b-4c6a-b353-23f59d322ea7"
          }
        ],
        "activity": {
          "text": "Synthetic Example Data Generation"
        },
        "policy": [
          "https://synderai.net/synderai-synthetic-data-policy"
        ],
        "agent": [
          {
            "type": {
              "text": "author"
            },
            "who": {
              "reference": "Device/6be2e4a4-376a-41ee-8a4c-e477aa91f23b"
            }
          }
        ],
        "reason": [
          {
            "text": "Interoperability Testing and Training (non-clinical use)"
          }
        ],
        "text": {
          "status": "generated",
          "div": "<div xmlns=\"http://www.w3.org/1999/xhtml\">Provenance for SYNDERAI Synthetic Example Data Resource</div>"
        },
        "recorded": "2020-01-16T06:38:59Z"
      }
    },
    {
      "fullUrl": "urn:uuid:2f7596a2-8dbd-4177-a985-fc76c446bf4f",
      "resource": {
        "resourceType": "PractitionerRole",
        "id": "2f7596a2-8dbd-4177-a985-fc76c446bf4f",
        "meta": {
          "profile": [
            "http://hl7.eu/fhir/base/StructureDefinition/practitionerRole-eu"
          ]
        },
        "text": {
          "status": "generated",
          "div": "<div xmlns=\"http://www.w3.org/1999/xhtml\">Laboratory Role Id: 2f7596a2-8dbd-4177-a985-fc76c446bf4f</div>"
        },
        "practitioner": {
          "reference": "urn:uuid:ff9d5ef8-3ca8-4dfe-819e-8d4c116a9cb3"
        }
      }
    },
    {
      "fullUrl": "urn:uuid:ff9d5ef8-3ca8-4dfe-819e-8d4c116a9cb3",
      "resource": {
        "resourceType": "Practitioner",
        "id": "ff9d5ef8-3ca8-4dfe-819e-8d4c116a9cb3",
        "meta": {
          "profile": [
            "http://hl7.eu/fhir/base/StructureDefinition/practitioner-eu"
          ]
        },
        "identifier": [
          {
            "assigner": {
              "display": "HL7 Europe"
            },
            "system": "urn:oid:2.16.840.1.113883.2.51.999",
            "value": "b50d6867-a97a-44b2-bfb7-104aa7a5b6f1"
          }
        ],
        "name": [
          {
            "prefix": [
              "dr"
            ],
            "given": [
              "Ex"
            ],
            "family": "Ample"
          }
        ],
        "address": [
          {
            "line": [
              "Laboratoire Central Européenne",
              "Boulevard du Jardin Botanique 32"
            ],
            "postalCode": "1000",
            "city": "Brussels",
            "country": "Belgium"
          }
        ],
        "text": {
          "status": "generated",
          "div": "<div xmlns=\"http://www.w3.org/1999/xhtml\">Laboratory: Laboratoire Central Européenne, 1000 Brussels, Belgium</div>"
        }
      }
    }
  ],
  "type": "document",
  "timestamp": "2020-01-16T06:38:59Z"
}
