{
  "resourceType": "Bundle",
  "id": "ffd15382-2643-496a-96dd-051cd74bdf35",
  "meta": {
    "profile": [
      "http://hl7.eu/fhir/laboratory/StructureDefinition/Bundle-eu-lab"
    ]
  },
  "identifier": {
    "assigner": {
      "display": "HL7 Europe"
    },
    "system": "urn:oid:2.16.840.1.113883.2.51.999",
    "value": "c4577b9a-143f-4bc9-85cb-c454dba96482"
  },
  "entry": [
    {
      "fullUrl": "urn:uuid:91a2cd95-1610-41c4-886d-54bfc1a73783",
      "resource": {
        "resourceType": "Composition",
        "id": "91a2cd95-1610-41c4-886d-54bfc1a73783",
        "meta": {
          "profile": [
            "http://hl7.eu/fhir/laboratory/StructureDefinition/Composition-eu-lab"
          ]
        },
        "identifier": {
          "assigner": {
            "display": "HL7 Europe"
          },
          "system": "urn:oid:2.16.840.1.113883.2.51.999",
          "value": "1ee59265-faf7-4ae5-8816-73792a481812"
        },
        "author": [
          {
            "reference": "urn:uuid:8f6a8e0d-fa40-4b3f-877c-47ea051aeec9"
          }
        ],
        "category": [
          {
            "coding": [
              {
                "code": "26436-6",
                "system": "http://loinc.org",
                "display": "Laboratory studies (set)"
              }
            ]
          }
        ],
        "type": {
          "coding": [
            {
              "code": "11502-2",
              "system": "http://loinc.org",
              "display": "Laboratory report"
            }
          ],
          "text": "Laboratory Report"
        },
        "section": [
          {
            "code": {
              "coding": [
                {
                  "code": "26436-6",
                  "system": "http://loinc.org",
                  "display": "Laboratory studies (set)"
                }
              ],
              "text": "Laboratory studies"
            },
            "section": [
              {
                "code": {
                  "coding": [
                    {
                      "code": "$18719-5",
                      "system": "http://loinc.org",
                      "display": "Chemistry studies (set)"
                    }
                  ],
                  "text": "Chemistry"
                },
                "entry": [
                  {
                    "reference": "urn:uuid:9e3382a4-a24f-4057-8fc3-c9badc3aa51c"
                  },
                  {
                    "reference": "urn:uuid:bd89ba2b-15c8-4012-a179-2a5a0c57de2a"
                  },
                  {
                    "reference": "urn:uuid:115209b3-640d-4bec-9833-74c5ad049fa3"
                  },
                  {
                    "reference": "urn:uuid:a7b9381f-863b-457f-b1fe-13ae452606d6"
                  },
                  {
                    "reference": "urn:uuid:5f6d165c-0cb5-4cbf-8848-76a0ac504157"
                  },
                  {
                    "reference": "urn:uuid:6285c9c3-1a42-4e48-b905-55b202383573"
                  },
                  {
                    "reference": "urn:uuid:8a20865a-a186-4ffa-ae99-b4da39d73a2a"
                  },
                  {
                    "reference": "urn:uuid:67ca3863-b750-4c6e-8833-69ffad22c89a"
                  },
                  {
                    "reference": "urn:uuid:9239c5bd-ec3b-42b4-9b42-2e3cf5d5c6fb"
                  }
                ],
                "text": {
                  "status": "generated",
                  "div": "<div xmlns=\"http://www.w3.org/1999/xhtml\"><h3>Chemistry</h3><table class=\"hl7__eu__lab__report\"><thead><tr><th>Test</th><th>10-MAY-2023</th><th>Reference&#xA0;Range</th><th>Unit</th></tr></thead><tbody><tr><td>Hemoglobin A1c/Hemoglobin.total in Blood</td><td><strong>2.9 L</strong></td><td>4.5 - 6.4</td><td>%</td></tr><tr><td>Glucose [Mass/volume] in Blood</td><td>73.9</td><td>70 - 140</td><td>mg/dL</td></tr><tr><td>Urea nitrogen [Mass/volume] in Blood</td><td>9.3</td><td>7 - 30</td><td>mg/dL</td></tr><tr><td>Creatinine [Mass/volume] in Blood</td><td>0.8</td><td>0.5 - 1.3</td><td>mg/dL</td></tr><tr><td>Calcium [Mass/volume] in Blood</td><td>9.0</td><td>8.6 - 10.2</td><td>mg/dL</td></tr><tr><td>Sodium [Moles/volume] in Blood</td><td>141.3</td><td>135 - 145</td><td>mmol/L</td></tr><tr><td>Potassium [Moles/volume] in Blood</td><td>4.2</td><td>3.5 - 5.1</td><td>mmol/L</td></tr><tr><td>Chloride [Moles/volume] in Blood</td><td>103.7</td><td>98 - 114</td><td>mmol/L</td></tr><tr><td>Carbon dioxide, total [Moles/volume] in Blood</td><td><strong>20.2 L</strong></td><td>22 - 32</td><td>mmol/L</td></tr></tbody></table></div>"
                },
                "title": "Chemistry"
              }
            ],
            "title": "Laboratory Report"
          },
          {
            "text": {
              "status": "generated",
              "div": "<div xmlns=\"http://www.w3.org/1999/xhtml\"><h3>Annotation</h3><table class=\"hl7__eu__lab__report\"><tr><th>Conclusion and Recommendations based on this report and previous findings known to us</th></tr><tr><td>The patient shows a markedly low HbA1c, which may suggest recent hypoglycemia or conditions affecting red cell turnover. Glucose is at the lower end of normal. Total CO₂ is mildly decreased, possibly indicating mild metabolic acidosis or compensation for respiratory alkalosis. Renal function and electrolytes are within normal limits. Clinical correlation is recommended.</td></tr></table></div>"
            },
            "code": {
              "coding": [
                {
                  "system": "http://loinc.org",
                  "code": "48767-8",
                  "display": "Annotation comment"
                }
              ]
            },
            "title": "Annotation comment"
          }
        ],
        "status": "final",
        "subject": {
          "reference": "urn:uuid:660b9566-8938-406a-b3ae-8c0ad5b45ca0",
          "display": "Maria Nohlmans"
        },
        "date": "2023-05-10T13:02:39Z",
        "title": "Laboratory Report",
        "confidentiality": "N"
      }
    },
    {
      "fullUrl": "urn:uuid:8725fca2-bdcb-4ae5-ad35-7c8b72436c25",
      "resource": {
        "resourceType": "DiagnosticReport",
        "id": "8725fca2-bdcb-4ae5-ad35-7c8b72436c25",
        "meta": {
          "profile": [
            "http://hl7.eu/fhir/laboratory/StructureDefinition/DiagnosticReport-eu-lab"
          ]
        },
        "identifier": [
          {
            "assigner": {
              "display": "HL7 Europe"
            },
            "system": "urn:oid:2.16.840.1.113883.2.51.999",
            "value": "60514188-d4e1-4ede-bcaa-cf133e23515a"
          }
        ],
        "extension": [
          {
            "url": "http://hl7.org/fhir/5.0/StructureDefinition/extension-DiagnosticReport.composition",
            "valueReference": {
              "reference": "urn:uuid:1ee59265-faf7-4ae5-8816-73792a481812"
            }
          }
        ],
        "category": [
          {
            "coding": [
              {
                "code": "26436-6",
                "system": "http://loinc.org",
                "display": "Laboratory studies (set)"
              }
            ]
          }
        ],
        "specimen": [
          {
            "reference": "urn:uuid:1fa6b6b7-7cce-447d-8b08-56cc8bafe55e"
          }
        ],
        "result": [
          {
            "reference": "urn:uuid:9e3382a4-a24f-4057-8fc3-c9badc3aa51c"
          },
          {
            "reference": "urn:uuid:bd89ba2b-15c8-4012-a179-2a5a0c57de2a"
          },
          {
            "reference": "urn:uuid:115209b3-640d-4bec-9833-74c5ad049fa3"
          },
          {
            "reference": "urn:uuid:a7b9381f-863b-457f-b1fe-13ae452606d6"
          },
          {
            "reference": "urn:uuid:5f6d165c-0cb5-4cbf-8848-76a0ac504157"
          },
          {
            "reference": "urn:uuid:6285c9c3-1a42-4e48-b905-55b202383573"
          },
          {
            "reference": "urn:uuid:8a20865a-a186-4ffa-ae99-b4da39d73a2a"
          },
          {
            "reference": "urn:uuid:67ca3863-b750-4c6e-8833-69ffad22c89a"
          },
          {
            "reference": "urn:uuid:9239c5bd-ec3b-42b4-9b42-2e3cf5d5c6fb"
          }
        ],
        "status": "registered",
        "code": {
          "coding": [
            {
              "code": "11502-2",
              "system": "http://loinc.org",
              "display": "Laboratory report"
            }
          ]
        },
        "subject": {
          "reference": "urn:uuid:660b9566-8938-406a-b3ae-8c0ad5b45ca0",
          "display": "Maria Nohlmans"
        }
      }
    },
    {
      "fullUrl": "urn:uuid:660b9566-8938-406a-b3ae-8c0ad5b45ca0",
      "resource": {
        "resourceType": "Patient",
        "id": "660b9566-8938-406a-b3ae-8c0ad5b45ca0",
        "meta": {
          "security": [
            {
              "system": "http://terminology.hl7.org/CodeSystem/v3-ActReason",
              "code": "HTEST"
            },
            {
              "system": "http://terminology.hl7.org/CodeSystem/v3-ActReason",
              "code": "TRAIN"
            }
          ],
          "tag": [
            {
              "system": "https://synderai.net/fhir/CodeSystem/tags",
              "code": "synthetic",
              "display": "SYNDERAI Synthetic data"
            }
          ],
          "profile": [
            "http://hl7.eu/fhir/base/StructureDefinition/patient-eu-core"
          ]
        },
        "identifier": [
          {
            "type": {
              "coding": [
                {
                  "code": "PT",
                  "system": "http://terminology.hl7.org/CodeSystem/v2-0203"
                }
              ]
            },
            "system": "http://ec.europa.eu/identifier/eci",
            "value": "6886-506417-1"
          },
          {
            "type": {
              "coding": [
                {
                  "code": "MR",
                  "system": "http://terminology.hl7.org/CodeSystem/v2-0203"
                }
              ]
            },
            "system": "http://local.setting.eu/identifier",
            "value": "2cb21ed6-b617-b1f3-2290-589a710de5ee"
          }
        ],
        "name": [
          {
            "family": "Nohlmans"
          },
          {
            "given": [
              "Maria"
            ]
          },
          {
            "text": "Maria Nohlmans"
          }
        ],
        "address": [
          {
            "line": [
              "Alfons-Wulff-Weg 1"
            ],
            "use": "home",
            "type": "physical",
            "postalCode": "25813",
            "city": "Husum",
            "country": "Germany"
          }
        ],
        "telecom": [
          {
            "system": "phone",
            "value": "+49(0)1911 105501"
          }
        ],
        "extension": [
          {
            "url": "http://hl7.org/fhir/StructureDefinition/patient-nationality",
            "valueCodeableConcept": {
              "coding": [
                {
                  "code": "DE",
                  "system": "http://hl7.org/fhir/ValueSet/country"
                }
              ]
            }
          }
        ],
        "text": {
          "status": "generated",
          "div": "<div xmlns=\"http://www.w3.org/1999/xhtml\"><table class=\"hl7__ips\"><tr><td>Maria Nohlmans</td><td>female</td><td>11-Jun-1947</td></tr></table></div>"
        },
        "gender": "female",
        "birthDate": "1947-06-11"
      }
    },
    {
      "fullUrl": "urn:uuid:6589187b-f837-4942-83ed-04765dda490c",
      "resource": {
        "resourceType": "ServiceRequest",
        "id": "6589187b-f837-4942-83ed-04765dda490c",
        "meta": {
          "profile": [
            "http://hl7.eu/fhir/laboratory/StructureDefinition/ServiceRequest-eu-lab"
          ]
        },
        "identifier": [
          {
            "system": "http://example.org",
            "value": "f2d27aaa-9e62-42d8-bd57-1361275b1781"
          }
        ],
        "specimen": [
          {
            "reference": "urn:uuid:1fa6b6b7-7cce-447d-8b08-56cc8bafe55e"
          }
        ],
        "reasonCode": [
          {
            "coding": [
              {
                "code": "401314000",
                "system": "http://snomed.info/sct",
                "display": "Acute non-ST segment elevation myocardial infarction"
              }
            ]
          },
          {
            "coding": [
              {
                "code": "157141000119108",
                "system": "http://snomed.info/sct",
                "display": "Proteinuria due to type 2 diabetes mellitus"
              }
            ]
          },
          {
            "coding": [
              {
                "code": "237602007",
                "system": "http://snomed.info/sct",
                "display": "Metabolic syndrome X"
              }
            ]
          },
          {
            "coding": [
              {
                "code": "90781000119102",
                "system": "http://snomed.info/sct",
                "display": "Microalbuminuria due to type 2 diabetes mellitus"
              }
            ]
          },
          {
            "coding": [
              {
                "code": "127013003",
                "system": "http://snomed.info/sct",
                "display": "Disorder of kidney due to diabetes mellitus"
              }
            ]
          },
          {
            "coding": [
              {
                "code": "59621000",
                "system": "http://snomed.info/sct",
                "display": "Essential hypertension"
              }
            ]
          },
          {
            "coding": [
              {
                "code": "271737000",
                "system": "http://snomed.info/sct",
                "display": "Anemia"
              }
            ]
          },
          {
            "coding": [
              {
                "code": "15777000",
                "system": "http://snomed.info/sct",
                "display": "Prediabetes"
              }
            ]
          }
        ],
        "status": "active",
        "intent": "order",
        "code": {
          "coding": [
            {
              "code": "108252007",
              "system": "http://snomed.info/sct",
              "display": "Laboratory procedure"
            }
          ]
        },
        "subject": {
          "reference": "urn:uuid:660b9566-8938-406a-b3ae-8c0ad5b45ca0",
          "display": "Maria Nohlmans"
        },
        "requester": {
          "reference": "urn:uuid:19453c61-846a-4676-9b02-3ed61788ea7d"
        }
      }
    },
    {
      "fullUrl": "urn:uuid:19453c61-846a-4676-9b02-3ed61788ea7d",
      "resource": {
        "resourceType": "PractitionerRole",
        "id": "19453c61-846a-4676-9b02-3ed61788ea7d",
        "meta": {
          "profile": [
            "http://hl7.eu/fhir/base/StructureDefinition/practitionerRole-eu"
          ]
        },
        "text": {
          "status": "generated",
          "div": "<div xmlns=\"http://www.w3.org/1999/xhtml\">Provider Role Id: 19453c61-846a-4676-9b02-3ed61788ea7d</div>"
        },
        "organization": {
          "reference": "urn:uuid:dad00435-463f-4847-a7a6-3272e81ffb53"
        }
      }
    },
    {
      "fullUrl": "urn:uuid:dad00435-463f-4847-a7a6-3272e81ffb53",
      "resource": {
        "resourceType": "Organization",
        "id": "dad00435-463f-4847-a7a6-3272e81ffb53",
        "meta": {
          "profile": [
            "http://hl7.eu/fhir/base/StructureDefinition/organization-eu"
          ]
        },
        "identifier": [
          {
            "assigner": {
              "display": "HL7 Europe"
            },
            "system": "urn:oid:2.16.840.1.113883.2.51.999",
            "value": "65e830cb-e712-4fea-923b-0fe673cb8712"
          }
        ],
        "address": [
          {
            "line": [
              "Brinckmannstraße 35"
            ],
            "city": "Husum",
            "postalCode": "25813",
            "country": "Germany"
          }
        ],
        "text": {
          "status": "generated",
          "div": "<div xmlns=\"http://www.w3.org/1999/xhtml\">Provider Organization: Dr. Wolfram Hussels Kieferorthopäde</div>"
        },
        "name": "Dr. Wolfram Hussels Kieferorthopäde"
      }
    },
    {
      "fullUrl": "urn:uuid:1fa6b6b7-7cce-447d-8b08-56cc8bafe55e",
      "resource": {
        "resourceType": "Specimen",
        "id": "1fa6b6b7-7cce-447d-8b08-56cc8bafe55e",
        "meta": {
          "profile": [
            "http://hl7.eu/fhir/laboratory/StructureDefinition/Specimen-eu-lab"
          ]
        },
        "collection": {
          "collectedDateTime": "2023-05-10"
        },
        "text": {
          "status": "generated",
          "div": "<div xmlns=\"http://www.w3.org/1999/xhtml\"><table class=\"hl7__eu__lab__report\"><tr><th>Specimen</th><th>Collection Date</th></tr><tr><td>Whole blood specimen (specimen)</td><td><span class=\"nb\">10-May-2023</span></td></tr></table></div>"
        },
        "type": {
          "coding": [
            {
              "code": "258580003",
              "system": "http://snomed.info/sct",
              "display": "Whole blood specimen (specimen)"
            }
          ]
        }
      }
    },
    {
      "fullUrl": "urn:uuid:9e3382a4-a24f-4057-8fc3-c9badc3aa51c",
      "resource": {
        "resourceType": "Observation",
        "id": "9e3382a4-a24f-4057-8fc3-c9badc3aa51c",
        "meta": {
          "profile": [
            "http://hl7.eu/fhir/laboratory/StructureDefinition/Observation-resultslab-eu-lab"
          ]
        },
        "performer": [
          {
            "display": "The Central European Lab"
          }
        ],
        "category": [
          {
            "coding": [
              {
                "system": "http://terminology.hl7.org/CodeSystem/observation-category",
                "code": "laboratory"
              }
            ]
          }
        ],
        "code": {
          "coding": [
            {
              "code": "4548-4",
              "system": "http://loinc.org",
              "display": "Hemoglobin A1c/Hemoglobin.total in Blood"
            }
          ],
          "text": "Hemoglobin A1c/Hemoglobin.total in Blood"
        },
        "valueQuantity": {
          "system": "http://unitsofmeasure.org",
          "value": 2.9,
          "unit": "%",
          "code": "%"
        },
        "referenceRange": [
          {
            "low": {
              "value": 4.5,
              "code": "%",
              "system": "http://unitsofmeasure.org"
            }
          },
          {
            "high": {
              "value": 6.4,
              "code": "%",
              "system": "http://unitsofmeasure.org"
            }
          }
        ],
        "interpretation": [
          {
            "coding": [
              {
                "code": "L",
                "system": "http://terminology.hl7.org/CodeSystem/v3-ObservationInterpretation",
                "display": "Low"
              }
            ]
          }
        ],
        "text": {
          "status": "generated",
          "div": "<div xmlns=\"http://www.w3.org/1999/xhtml\"><table class=\"hl7__eu__lab__report\"><tr><th>Test</th><th>10-May-2023</th><th>Reference&#xA0;Range</th><th>Unit</th></tr><tr><td>Hemoglobin A1c/Hemoglobin.total in Blood</td><td>2.9</td><td>4.5 - 6.4</td><td>L</td><td>%</td></tr></table></div>"
        },
        "status": "final",
        "subject": {
          "reference": "urn:uuid:660b9566-8938-406a-b3ae-8c0ad5b45ca0",
          "display": "Maria Nohlmans"
        },
        "effectiveDateTime": "2023-05-10T11:02:39Z",
        "specimen": {
          "reference": "urn:uuid:1fa6b6b7-7cce-447d-8b08-56cc8bafe55e"
        }
      }
    },
    {
      "fullUrl": "urn:uuid:bd89ba2b-15c8-4012-a179-2a5a0c57de2a",
      "resource": {
        "resourceType": "Observation",
        "id": "bd89ba2b-15c8-4012-a179-2a5a0c57de2a",
        "meta": {
          "profile": [
            "http://hl7.eu/fhir/laboratory/StructureDefinition/Observation-resultslab-eu-lab"
          ]
        },
        "performer": [
          {
            "display": "The Central European Lab"
          }
        ],
        "category": [
          {
            "coding": [
              {
                "system": "http://terminology.hl7.org/CodeSystem/observation-category",
                "code": "laboratory"
              }
            ]
          }
        ],
        "code": {
          "coding": [
            {
              "code": "2339-0",
              "system": "http://loinc.org",
              "display": "Glucose [Mass/volume] in Blood"
            }
          ],
          "text": "Glucose [Mass/volume] in Blood"
        },
        "valueQuantity": {
          "system": "http://unitsofmeasure.org",
          "value": 73.9,
          "unit": "mg/dL",
          "code": "mg/dL"
        },
        "referenceRange": [
          {
            "low": {
              "value": 70,
              "code": "mg/dL",
              "system": "http://unitsofmeasure.org"
            }
          },
          {
            "high": {
              "value": 140,
              "code": "mg/dL",
              "system": "http://unitsofmeasure.org"
            }
          }
        ],
        "text": {
          "status": "generated",
          "div": "<div xmlns=\"http://www.w3.org/1999/xhtml\"><table class=\"hl7__eu__lab__report\"><tr><th>Test</th><th>10-May-2023</th><th>Reference&#xA0;Range</th><th>Unit</th></tr><tr><td>Glucose [Mass/volume] in Blood</td><td>73.9</td><td>70 - 140</td><td></td><td>mg/dL</td></tr></table></div>"
        },
        "status": "final",
        "subject": {
          "reference": "urn:uuid:660b9566-8938-406a-b3ae-8c0ad5b45ca0",
          "display": "Maria Nohlmans"
        },
        "effectiveDateTime": "2023-05-10T11:02:39Z",
        "specimen": {
          "reference": "urn:uuid:1fa6b6b7-7cce-447d-8b08-56cc8bafe55e"
        }
      }
    },
    {
      "fullUrl": "urn:uuid:115209b3-640d-4bec-9833-74c5ad049fa3",
      "resource": {
        "resourceType": "Observation",
        "id": "115209b3-640d-4bec-9833-74c5ad049fa3",
        "meta": {
          "profile": [
            "http://hl7.eu/fhir/laboratory/StructureDefinition/Observation-resultslab-eu-lab"
          ]
        },
        "performer": [
          {
            "display": "The Central European Lab"
          }
        ],
        "category": [
          {
            "coding": [
              {
                "system": "http://terminology.hl7.org/CodeSystem/observation-category",
                "code": "laboratory"
              }
            ]
          }
        ],
        "code": {
          "coding": [
            {
              "code": "6299-2",
              "system": "http://loinc.org",
              "display": "Urea nitrogen [Mass/volume] in Blood"
            }
          ],
          "text": "Urea nitrogen [Mass/volume] in Blood"
        },
        "valueQuantity": {
          "system": "http://unitsofmeasure.org",
          "value": 9.3,
          "unit": "mg/dL",
          "code": "mg/dL"
        },
        "referenceRange": [
          {
            "low": {
              "value": 7,
              "code": "mg/dL",
              "system": "http://unitsofmeasure.org"
            }
          },
          {
            "high": {
              "value": 30,
              "code": "mg/dL",
              "system": "http://unitsofmeasure.org"
            }
          }
        ],
        "text": {
          "status": "generated",
          "div": "<div xmlns=\"http://www.w3.org/1999/xhtml\"><table class=\"hl7__eu__lab__report\"><tr><th>Test</th><th>10-May-2023</th><th>Reference&#xA0;Range</th><th>Unit</th></tr><tr><td>Urea nitrogen [Mass/volume] in Blood</td><td>9.3</td><td>7 - 30</td><td></td><td>mg/dL</td></tr></table></div>"
        },
        "status": "final",
        "subject": {
          "reference": "urn:uuid:660b9566-8938-406a-b3ae-8c0ad5b45ca0",
          "display": "Maria Nohlmans"
        },
        "effectiveDateTime": "2023-05-10T11:02:39Z",
        "specimen": {
          "reference": "urn:uuid:1fa6b6b7-7cce-447d-8b08-56cc8bafe55e"
        }
      }
    },
    {
      "fullUrl": "urn:uuid:a7b9381f-863b-457f-b1fe-13ae452606d6",
      "resource": {
        "resourceType": "Observation",
        "id": "a7b9381f-863b-457f-b1fe-13ae452606d6",
        "meta": {
          "profile": [
            "http://hl7.eu/fhir/laboratory/StructureDefinition/Observation-resultslab-eu-lab"
          ]
        },
        "performer": [
          {
            "display": "The Central European Lab"
          }
        ],
        "category": [
          {
            "coding": [
              {
                "system": "http://terminology.hl7.org/CodeSystem/observation-category",
                "code": "laboratory"
              }
            ]
          }
        ],
        "code": {
          "coding": [
            {
              "code": "38483-4",
              "system": "http://loinc.org",
              "display": "Creatinine [Mass/volume] in Blood"
            }
          ],
          "text": "Creatinine [Mass/volume] in Blood"
        },
        "valueQuantity": {
          "system": "http://unitsofmeasure.org",
          "value": 0.8,
          "unit": "mg/dL",
          "code": "mg/dL"
        },
        "referenceRange": [
          {
            "low": {
              "value": 0.5,
              "code": "mg/dL",
              "system": "http://unitsofmeasure.org"
            }
          },
          {
            "high": {
              "value": 1.3,
              "code": "mg/dL",
              "system": "http://unitsofmeasure.org"
            }
          }
        ],
        "text": {
          "status": "generated",
          "div": "<div xmlns=\"http://www.w3.org/1999/xhtml\"><table class=\"hl7__eu__lab__report\"><tr><th>Test</th><th>10-May-2023</th><th>Reference&#xA0;Range</th><th>Unit</th></tr><tr><td>Creatinine [Mass/volume] in Blood</td><td>0.8</td><td>0.5 - 1.3</td><td></td><td>mg/dL</td></tr></table></div>"
        },
        "status": "final",
        "subject": {
          "reference": "urn:uuid:660b9566-8938-406a-b3ae-8c0ad5b45ca0",
          "display": "Maria Nohlmans"
        },
        "effectiveDateTime": "2023-05-10T11:02:39Z",
        "specimen": {
          "reference": "urn:uuid:1fa6b6b7-7cce-447d-8b08-56cc8bafe55e"
        }
      }
    },
    {
      "fullUrl": "urn:uuid:5f6d165c-0cb5-4cbf-8848-76a0ac504157",
      "resource": {
        "resourceType": "Observation",
        "id": "5f6d165c-0cb5-4cbf-8848-76a0ac504157",
        "meta": {
          "profile": [
            "http://hl7.eu/fhir/laboratory/StructureDefinition/Observation-resultslab-eu-lab"
          ]
        },
        "performer": [
          {
            "display": "The Central European Lab"
          }
        ],
        "category": [
          {
            "coding": [
              {
                "system": "http://terminology.hl7.org/CodeSystem/observation-category",
                "code": "laboratory"
              }
            ]
          }
        ],
        "code": {
          "coding": [
            {
              "code": "49765-1",
              "system": "http://loinc.org",
              "display": "Calcium [Mass/volume] in Blood"
            }
          ],
          "text": "Calcium [Mass/volume] in Blood"
        },
        "valueQuantity": {
          "system": "http://unitsofmeasure.org",
          "value": 9,
          "unit": "mg/dL",
          "code": "mg/dL"
        },
        "referenceRange": [
          {
            "low": {
              "value": 8.6,
              "code": "mg/dL",
              "system": "http://unitsofmeasure.org"
            }
          },
          {
            "high": {
              "value": 10.2,
              "code": "mg/dL",
              "system": "http://unitsofmeasure.org"
            }
          }
        ],
        "text": {
          "status": "generated",
          "div": "<div xmlns=\"http://www.w3.org/1999/xhtml\"><table class=\"hl7__eu__lab__report\"><tr><th>Test</th><th>10-May-2023</th><th>Reference&#xA0;Range</th><th>Unit</th></tr><tr><td>Calcium [Mass/volume] in Blood</td><td>9.0</td><td>8.6 - 10.2</td><td></td><td>mg/dL</td></tr></table></div>"
        },
        "status": "final",
        "subject": {
          "reference": "urn:uuid:660b9566-8938-406a-b3ae-8c0ad5b45ca0",
          "display": "Maria Nohlmans"
        },
        "effectiveDateTime": "2023-05-10T11:02:39Z",
        "specimen": {
          "reference": "urn:uuid:1fa6b6b7-7cce-447d-8b08-56cc8bafe55e"
        }
      }
    },
    {
      "fullUrl": "urn:uuid:6285c9c3-1a42-4e48-b905-55b202383573",
      "resource": {
        "resourceType": "Observation",
        "id": "6285c9c3-1a42-4e48-b905-55b202383573",
        "meta": {
          "profile": [
            "http://hl7.eu/fhir/laboratory/StructureDefinition/Observation-resultslab-eu-lab"
          ]
        },
        "performer": [
          {
            "display": "The Central European Lab"
          }
        ],
        "category": [
          {
            "coding": [
              {
                "system": "http://terminology.hl7.org/CodeSystem/observation-category",
                "code": "laboratory"
              }
            ]
          }
        ],
        "code": {
          "coding": [
            {
              "code": "2947-0",
              "system": "http://loinc.org",
              "display": "Sodium [Moles/volume] in Blood"
            }
          ],
          "text": "Sodium [Moles/volume] in Blood"
        },
        "valueQuantity": {
          "system": "http://unitsofmeasure.org",
          "value": 141.3,
          "unit": "mmol/L",
          "code": "mmol/L"
        },
        "referenceRange": [
          {
            "low": {
              "value": 135,
              "code": "mmol/L",
              "system": "http://unitsofmeasure.org"
            }
          },
          {
            "high": {
              "value": 145,
              "code": "mmol/L",
              "system": "http://unitsofmeasure.org"
            }
          }
        ],
        "text": {
          "status": "generated",
          "div": "<div xmlns=\"http://www.w3.org/1999/xhtml\"><table class=\"hl7__eu__lab__report\"><tr><th>Test</th><th>10-May-2023</th><th>Reference&#xA0;Range</th><th>Unit</th></tr><tr><td>Sodium [Moles/volume] in Blood</td><td>141.3</td><td>135 - 145</td><td></td><td>mmol/L</td></tr></table></div>"
        },
        "status": "final",
        "subject": {
          "reference": "urn:uuid:660b9566-8938-406a-b3ae-8c0ad5b45ca0",
          "display": "Maria Nohlmans"
        },
        "effectiveDateTime": "2023-05-10T11:02:39Z",
        "specimen": {
          "reference": "urn:uuid:1fa6b6b7-7cce-447d-8b08-56cc8bafe55e"
        }
      }
    },
    {
      "fullUrl": "urn:uuid:8a20865a-a186-4ffa-ae99-b4da39d73a2a",
      "resource": {
        "resourceType": "Observation",
        "id": "8a20865a-a186-4ffa-ae99-b4da39d73a2a",
        "meta": {
          "profile": [
            "http://hl7.eu/fhir/laboratory/StructureDefinition/Observation-resultslab-eu-lab"
          ]
        },
        "performer": [
          {
            "display": "The Central European Lab"
          }
        ],
        "category": [
          {
            "coding": [
              {
                "system": "http://terminology.hl7.org/CodeSystem/observation-category",
                "code": "laboratory"
              }
            ]
          }
        ],
        "code": {
          "coding": [
            {
              "code": "6298-4",
              "system": "http://loinc.org",
              "display": "Potassium [Moles/volume] in Blood"
            }
          ],
          "text": "Potassium [Moles/volume] in Blood"
        },
        "valueQuantity": {
          "system": "http://unitsofmeasure.org",
          "value": 4.2,
          "unit": "mmol/L",
          "code": "mmol/L"
        },
        "referenceRange": [
          {
            "low": {
              "value": 3.5,
              "code": "mmol/L",
              "system": "http://unitsofmeasure.org"
            }
          },
          {
            "high": {
              "value": 5.1,
              "code": "mmol/L",
              "system": "http://unitsofmeasure.org"
            }
          }
        ],
        "text": {
          "status": "generated",
          "div": "<div xmlns=\"http://www.w3.org/1999/xhtml\"><table class=\"hl7__eu__lab__report\"><tr><th>Test</th><th>10-May-2023</th><th>Reference&#xA0;Range</th><th>Unit</th></tr><tr><td>Potassium [Moles/volume] in Blood</td><td>4.2</td><td>3.5 - 5.1</td><td></td><td>mmol/L</td></tr></table></div>"
        },
        "status": "final",
        "subject": {
          "reference": "urn:uuid:660b9566-8938-406a-b3ae-8c0ad5b45ca0",
          "display": "Maria Nohlmans"
        },
        "effectiveDateTime": "2023-05-10T11:02:39Z",
        "specimen": {
          "reference": "urn:uuid:1fa6b6b7-7cce-447d-8b08-56cc8bafe55e"
        }
      }
    },
    {
      "fullUrl": "urn:uuid:67ca3863-b750-4c6e-8833-69ffad22c89a",
      "resource": {
        "resourceType": "Observation",
        "id": "67ca3863-b750-4c6e-8833-69ffad22c89a",
        "meta": {
          "profile": [
            "http://hl7.eu/fhir/laboratory/StructureDefinition/Observation-resultslab-eu-lab"
          ]
        },
        "performer": [
          {
            "display": "The Central European Lab"
          }
        ],
        "category": [
          {
            "coding": [
              {
                "system": "http://terminology.hl7.org/CodeSystem/observation-category",
                "code": "laboratory"
              }
            ]
          }
        ],
        "code": {
          "coding": [
            {
              "code": "2069-3",
              "system": "http://loinc.org",
              "display": "Chloride [Moles/volume] in Blood"
            }
          ],
          "text": "Chloride [Moles/volume] in Blood"
        },
        "valueQuantity": {
          "system": "http://unitsofmeasure.org",
          "value": 103.7,
          "unit": "mmol/L",
          "code": "mmol/L"
        },
        "referenceRange": [
          {
            "low": {
              "value": 98,
              "code": "mmol/L",
              "system": "http://unitsofmeasure.org"
            }
          },
          {
            "high": {
              "value": 114,
              "code": "mmol/L",
              "system": "http://unitsofmeasure.org"
            }
          }
        ],
        "text": {
          "status": "generated",
          "div": "<div xmlns=\"http://www.w3.org/1999/xhtml\"><table class=\"hl7__eu__lab__report\"><tr><th>Test</th><th>10-May-2023</th><th>Reference&#xA0;Range</th><th>Unit</th></tr><tr><td>Chloride [Moles/volume] in Blood</td><td>103.7</td><td>98 - 114</td><td></td><td>mmol/L</td></tr></table></div>"
        },
        "status": "final",
        "subject": {
          "reference": "urn:uuid:660b9566-8938-406a-b3ae-8c0ad5b45ca0",
          "display": "Maria Nohlmans"
        },
        "effectiveDateTime": "2023-05-10T11:02:39Z",
        "specimen": {
          "reference": "urn:uuid:1fa6b6b7-7cce-447d-8b08-56cc8bafe55e"
        }
      }
    },
    {
      "fullUrl": "urn:uuid:9239c5bd-ec3b-42b4-9b42-2e3cf5d5c6fb",
      "resource": {
        "resourceType": "Observation",
        "id": "9239c5bd-ec3b-42b4-9b42-2e3cf5d5c6fb",
        "meta": {
          "profile": [
            "http://hl7.eu/fhir/laboratory/StructureDefinition/Observation-resultslab-eu-lab"
          ]
        },
        "performer": [
          {
            "display": "The Central European Lab"
          }
        ],
        "category": [
          {
            "coding": [
              {
                "system": "http://terminology.hl7.org/CodeSystem/observation-category",
                "code": "laboratory"
              }
            ]
          }
        ],
        "code": {
          "coding": [
            {
              "code": "20565-8",
              "system": "http://loinc.org",
              "display": "Carbon dioxide, total [Moles/volume] in Blood"
            }
          ],
          "text": "Carbon dioxide, total [Moles/volume] in Blood"
        },
        "valueQuantity": {
          "system": "http://unitsofmeasure.org",
          "value": 20.2,
          "unit": "mmol/L",
          "code": "mmol/L"
        },
        "referenceRange": [
          {
            "low": {
              "value": 22,
              "code": "mmol/L",
              "system": "http://unitsofmeasure.org"
            }
          },
          {
            "high": {
              "value": 32,
              "code": "mmol/L",
              "system": "http://unitsofmeasure.org"
            }
          }
        ],
        "interpretation": [
          {
            "coding": [
              {
                "code": "L",
                "system": "http://terminology.hl7.org/CodeSystem/v3-ObservationInterpretation",
                "display": "Low"
              }
            ]
          }
        ],
        "text": {
          "status": "generated",
          "div": "<div xmlns=\"http://www.w3.org/1999/xhtml\"><table class=\"hl7__eu__lab__report\"><tr><th>Test</th><th>10-May-2023</th><th>Reference&#xA0;Range</th><th>Unit</th></tr><tr><td>Carbon dioxide, total [Moles/volume] in Blood</td><td>20.2</td><td>22 - 32</td><td>L</td><td>mmol/L</td></tr></table></div>"
        },
        "status": "final",
        "subject": {
          "reference": "urn:uuid:660b9566-8938-406a-b3ae-8c0ad5b45ca0",
          "display": "Maria Nohlmans"
        },
        "effectiveDateTime": "2023-05-10T11:02:39Z",
        "specimen": {
          "reference": "urn:uuid:1fa6b6b7-7cce-447d-8b08-56cc8bafe55e"
        }
      }
    },
    {
      "fullUrl": "urn:uuid:a5253152-f6f4-43b7-9b89-d23152b906f5",
      "resource": {
        "resourceType": "Device",
        "id": "a5253152-f6f4-43b7-9b89-d23152b906f5",
        "deviceName": [
          {
            "name": "SYNDERAI Synthetic Generator",
            "type": "manufacturer-name"
          }
        ],
        "version": [
          {
            "value": "5.0"
          }
        ],
        "text": {
          "status": "generated",
          "div": "<div xmlns=\"http://www.w3.org/1999/xhtml\">SYNDERAI Synthetic Generator v5.0</div>"
        },
        "status": "active\"",
        "distinctIdentifier": "synderai-generator-50",
        "manufacturer": "SYNDERAI Project"
      }
    },
    {
      "fullUrl": "urn:uuid:1d937e0a-faa0-4539-b220-b51598f678dc",
      "resource": {
        "resourceType": "Provenance",
        "id": "1d937e0a-faa0-4539-b220-b51598f678dc",
        "target": [
          {
            "reference": "Patient/660b9566-8938-406a-b3ae-8c0ad5b45ca0"
          },
          {
            "reference": "Bundle/ffd15382-2643-496a-96dd-051cd74bdf35"
          },
          {
            "reference": "Composition/91a2cd95-1610-41c4-886d-54bfc1a73783"
          },
          {
            "reference": "PractitionerRole/8f6a8e0d-fa40-4b3f-877c-47ea051aeec9"
          },
          {
            "reference": "Practitioner/c0d96f34-92e8-4e05-9259-02383a233eb3"
          },
          {
            "reference": "PractitionerRole/19453c61-846a-4676-9b02-3ed61788ea7d"
          },
          {
            "reference": "Organization/dad00435-463f-4847-a7a6-3272e81ffb53"
          }
        ],
        "activity": {
          "text": "Synthetic Example Data Generation"
        },
        "policy": [
          "https://synderai.net/synderai-synthetic-data-policy"
        ],
        "agent": [
          {
            "type": {
              "text": "author"
            },
            "who": {
              "reference": "Device/a5253152-f6f4-43b7-9b89-d23152b906f5"
            }
          }
        ],
        "reason": [
          {
            "text": "Interoperability Testing and Training (non-clinical use)"
          }
        ],
        "text": {
          "status": "generated",
          "div": "<div xmlns=\"http://www.w3.org/1999/xhtml\">Provenance for SYNDERAI Synthetic Example Data Resource</div>"
        },
        "recorded": "2023-05-10T13:02:39Z"
      }
    },
    {
      "fullUrl": "urn:uuid:8f6a8e0d-fa40-4b3f-877c-47ea051aeec9",
      "resource": {
        "resourceType": "PractitionerRole",
        "id": "8f6a8e0d-fa40-4b3f-877c-47ea051aeec9",
        "meta": {
          "profile": [
            "http://hl7.eu/fhir/base/StructureDefinition/practitionerRole-eu"
          ]
        },
        "text": {
          "status": "generated",
          "div": "<div xmlns=\"http://www.w3.org/1999/xhtml\">Laboratory Role Id: 8f6a8e0d-fa40-4b3f-877c-47ea051aeec9</div>"
        },
        "practitioner": {
          "reference": "urn:uuid:c0d96f34-92e8-4e05-9259-02383a233eb3"
        }
      }
    },
    {
      "fullUrl": "urn:uuid:c0d96f34-92e8-4e05-9259-02383a233eb3",
      "resource": {
        "resourceType": "Practitioner",
        "id": "c0d96f34-92e8-4e05-9259-02383a233eb3",
        "meta": {
          "profile": [
            "http://hl7.eu/fhir/base/StructureDefinition/practitioner-eu"
          ]
        },
        "identifier": [
          {
            "assigner": {
              "display": "HL7 Europe"
            },
            "system": "urn:oid:2.16.840.1.113883.2.51.999",
            "value": "ec4ae73d-2fd0-4134-9584-958c6f2cb46f"
          }
        ],
        "name": [
          {
            "prefix": [
              "dr"
            ],
            "given": [
              "Ex"
            ],
            "family": "Ample"
          }
        ],
        "address": [
          {
            "line": [
              "Laboratoire Central Européenne",
              "Boulevard du Jardin Botanique 32"
            ],
            "postalCode": "1000",
            "city": "Brussels",
            "country": "Belgium"
          }
        ],
        "text": {
          "status": "generated",
          "div": "<div xmlns=\"http://www.w3.org/1999/xhtml\">Laboratory: Laboratoire Central Européenne, 1000 Brussels, Belgium</div>"
        }
      }
    }
  ],
  "type": "document",
  "timestamp": "2023-05-10T13:02:39Z"
}
